time,seconds_elapsed,z,y,x
1761370219513561900,0.183561767578125,8.63940715789795,-0.6423056125640869,-1.9152791500091553
1761370219532172000,0.202172119140625,8.499714851379395,-1.4979546070098877,-2.5331368446350098
1761370219550783700,0.22078369140625,7.579302787780762,-1.4738531112670898,-2.488666534423828
1761370219569394200,0.239394287109375,4.521740913391113,-0.6125173568725586,-2.530120849609375
1761370219597310700,0.267310791015625,-0.33992671966552734,0.1415708065032959,-1.4178767204284668
1761370219615922400,0.28592236328125,-2.564305305480957,0.07300329208374023,-0.014444828033447266
1761370219634532600,0.30453271484375,-4.024235248565674,0.41344428062438965,1.1934661865234375
1761370219653144600,0.32314453125,-5.410536766052246,1.100193738937378,1.9408527612686157
1761370219671754800,0.341754638671875,-6.731642246246338,-0.5345981121063232,1.8338154554367065
1761370219690366500,0.360366455078125,-7.838853359222412,-1.3847897052764893,1.6846843957901
1761370219708977000,0.378976806640625,-7.700468063354492,-1.4111260175704956,0.9757464528083801
1761370219727588600,0.397588623046875,-6.457006931304932,-0.3882838487625122,0.19714707136154175
1761370219746199000,0.416198974609375,-4.921480178833008,-0.30101537704467773,0.19584167003631592
1761370219764810800,0.434810791015625,-4.755009174346924,-1.1123435497283936,0.24563908576965332
1761370219783421000,0.4534208984375,-6.430939197540283,-1.392308235168457,0.19924259185791016
1761370219802033000,0.472032958984375,-6.7692365646362305,-1.0221580266952515,0.3209037780761719
1761370219820643000,0.49064306640625,-6.199164867401123,-0.5666187405586243,-0.21682322025299072
1761370219839255000,0.509255126953125,-3.879913806915283,0.20139455795288086,-0.6639910936355591
1761370219857865200,0.527865234375,-0.713007926940918,1.1087526082992554,-1.2418084144592285
1761370219876477000,0.546476806640625,1.7181501388549805,1.598526954650879,-2.0167229175567627
1761370219895087400,0.56508740234375,0.9038219451904297,0.5440424680709839,-2.151693105697632
1761370219913699000,0.583698974609375,1.3800220489501953,0.33415913581848145,-1.1705725193023682
1761370219932309200,0.602309326171875,-0.0261993408203125,0.7662315368652344,-0.35665225982666016
1761370219950921200,0.620921142578125,2.218538284301758,-1.0896881818771362,-1.4560892581939697
1761370219969531400,0.639531494140625,5.110361099243164,-0.5631321668624878,-1.6366182565689087
1761370219988143400,0.658143310546875,7.311361312866211,-0.7700260877609253,-0.24028635025024414
1761370220006753500,0.67675341796875,8.956270217895508,-1.5382291078567505,0.555849552154541
1761370220025365200,0.695365234375,8.879740715026855,-1.3631227016448975,-0.7977491617202759
1761370220043975700,0.7139755859375,7.61573600769043,-0.6594970226287842,-1.8930288553237915
1761370220062587400,0.73258740234375,6.1189374923706055,0.1486968994140625,-1.331228256225586
1761370220081197600,0.751197509765625,5.124127388000488,0.7075227499008179,1.4177541732788086
1761370220099809500,0.7698095703125,3.337216377258301,0.674082338809967,3.00105881690979
1761370220118419700,0.788419677734375,-0.17551326751708984,0.8835374116897583,3.1113193035125732
1761370220137031700,0.80703173828125,-4.146302700042725,1.191106915473938,2.848245143890381
1761370220155641900,0.825641845703125,-5.824174880981445,0.2168210744857788,1.761195421218872
1761370220174253600,0.844253662109375,-3.040339946746826,-0.3432314395904541,-0.4100475311279297
1761370220192864000,0.862864013671875,0.6939411163330078,0.6596367359161377,-1.5465447902679443
1761370220211475700,0.881475830078125,3.201298713684082,2.8659565448760986,-2.1434149742126465
1761370220230086100,0.900086181640625,3.437602996826172,4.419768810272217,-2.1301321983337402
1761370220248697900,0.91869775390625,1.529423713684082,4.402260780334473,-1.7136884927749634
1761370220267308000,0.93730810546875,-0.7164020538330078,4.238761901855469,-2.0422396659851074
1761370220285920000,0.955919921875,-3.059835910797119,3.8742003440856934,-2.568601608276367
1761370220304530200,0.9745302734375,-5.027890682220459,3.5786423683166504,-2.8792884349823
1761370220323142100,0.99314208984375,-5.634723663330078,3.212451457977295,-2.797513484954834
1761370220341752300,1.01175244140625,-4.568306922912598,2.8975067138671875,-3.1795341968536377
1761370220360364300,1.0303642578125,-3.4862961769104004,2.296706199645996,-2.8491733074188232
1761370220378974500,1.048974365234375,-2.562720775604248,1.5596550703048706,-2.5793819427490234
1761370220397586400,1.06758642578125,-0.965641975402832,1.2095861434936523,-2.1622984409332275
1761370220416196600,1.086196533203125,0.27793407440185547,0.31076133251190186,-0.13941216468811035
1761370220434808300,1.104808349609375,1.3982601165771484,-0.5725805759429932,2.1484367847442627
1761370220453418800,1.123418701171875,3.130314826965332,-1.673675298690796,2.717428207397461
1761370220472030500,1.142030517578125,4.919515609741211,-3.62367582321167,1.1794805526733398
1761370220490640600,1.160640625,6.331812858581543,-4.648900985717773,-0.8520666360855103
1761370220509252600,1.179252685546875,5.586750030517578,-5.027737140655518,-1.6505838632583618
1761370220527862800,1.19786279296875,4.865384101867676,-4.8831353187561035,0.9164190292358398
1761370220546474800,1.216474853515625,6.127443313598633,-5.601274013519287,5.691798210144043
1761370220565085000,1.2350849609375,9.149032592773438,-7.007979393005371,7.665882110595703
1761370220583697000,1.25369677734375,9.587685585021973,-6.241969585418701,4.956811428070068
1761370220602307000,1.27230712890625,5.295840263366699,-3.277291774749756,2.5635504722595215
1761370220620919000,1.2909189453125,1.0620603561401367,-0.4029710292816162,1.810929298400879
1761370220639529200,1.309529296875,0.2882270812988281,1.1704753637313843,1.4169938564300537
1761370220658141000,1.328140869140625,0.31598949432373047,1.7551761865615845,0.7452881336212158
1761370220676751400,1.34675146484375,-0.12545299530029297,2.51753568649292,-0.05550026893615723
1761370220695363000,1.365363037109375,-0.4669666290283203,3.214155912399292,-0.19760823249816895
1761370220713973500,1.383973388671875,-0.9590435028076172,3.8232033252716064,-0.9037044048309326
1761370220732585200,1.402585205078125,-1.3640527725219727,4.656030178070068,-2.5643727779388428
1761370220751195400,1.4211953125,-1.832282543182373,5.227717876434326,-3.862151622772217
1761370220769807400,1.439807373046875,-2.811081886291504,5.2710065841674805,-3.845825672149658
1761370220788417500,1.45841748046875,-3.968303680419922,4.9079389572143555,-2.7344672679901123
1761370220807029500,1.477029541015625,-5.292391300201416,4.383793354034424,-1.239959955215454
1761370220825639700,1.4956396484375,-5.807333946228027,3.6213626861572266,-0.2599438428878784
1761370220844251600,1.514251708984375,-5.924690246582031,2.757939100265503,0.005097031593322754
1761370220862861800,1.53286181640625,-5.070524215698242,2.1500210762023926,-0.2403355836868286
1761370220881473800,1.551473876953125,-4.850689888000488,1.416446328163147,-0.6611875295639038
1761370220900084000,1.570083984375,-4.97861909866333,1.1965993642807007,-0.7977678179740906
1761370220918695700,1.58869580078125,-4.804788112640381,0.8830808401107788,-0.7436801195144653
1761370220937306000,1.60730615234375,-3.5832676887512207,0.5033531188964844,1.2200331687927246
1761370220955917800,1.625917724609375,-0.7639636993408203,-0.3661251664161682,3.4933252334594727
1761370220974528300,1.6445283203125,2.4459686279296875,-1.813567876815796,5.174386024475098
1761370220993140000,1.663139892578125,4.357967376708984,-3.4469079971313477,5.75135612487793
1761370221011750100,1.681750244140625,6.376133918762207,-4.164674282073975,3.6842222213745117
1761370221030362000,1.700362060546875,6.524580001831055,-5.761448860168457,0.0071086883544921875
1761370221048972300,1.71897216796875,6.123289108276367,-5.1837477684021,-4.2848358154296875
1761370221067584300,1.737584228515625,5.919661521911621,-4.754846096038818,-3.8316919803619385
1761370221086194400,1.7561943359375,6.818947792053223,-4.598399639129639,1.0792641639709473
1761370221104806400,1.774806396484375,8.194363594055176,-3.7887392044067383,4.579708099365234
1761370221123416600,1.79341650390625,7.576997756958008,-2.5511553287506104,4.664312362670898
1761370221142028500,1.812028564453125,5.495174407958984,-1.444592833518982,3.173987627029419
1761370221160638700,1.830638671875,2.616884231567383,-0.30164241790771484,1.001101016998291
1761370221179250400,1.84925048828125,-0.9868841171264648,0.004230976104736328,-0.800264835357666
1761370221197860900,1.86786083984375,-3.116241931915283,1.1071460247039795,-1.9973783493041992
1761370221216472600,1.88647265625,-4.573099136352539,2.1041574478149414,-2.5120582580566406
1761370221235083000,1.9050830078125,-5.68041467666626,2.272402286529541,-3.0671520233154297
1761370221253694700,1.92369482421875,-6.041337490081787,2.7712106704711914,-3.88328218460083
1761370221272305200,1.94230517578125,-5.932958602905273,3.378713607788086,-3.720146656036377
1761370221290916900,1.960916748046875,-5.076965808868408,3.700608253479004,-3.3591344356536865
1761370221309527000,1.979527099609375,-4.170019149780273,3.708026647567749,-2.3315622806549072
1761370221328139000,1.998138916015625,-4.003294467926025,3.159729480743408,-1.3861665725708008
1761370221346749200,2.016749267578125,-4.555300235748291,2.5777859687805176,-1.2792887687683105
1761370221365361200,2.035361083984375,-4.937968730926514,2.1169073581695557,-2.135861873626709
1761370221383971300,2.053971435546875,-4.441652774810791,1.5233687162399292,-2.929595708847046
1761370221402583300,2.072583251953125,-3.496203899383545,0.8997345566749573,-3.0381460189819336
1761370221421193500,2.091193359375,-2.717841625213623,0.39250606298446655,-2.4417636394500732
1761370221439805400,2.109805419921875,-1.9117956161499023,0.09422454982995987,-1.665916085243225
1761370221458415600,2.12841552734375,-0.72161865234375,-0.5568475723266602,-1.086073875427246
1761370221477027600,2.147027587890625,1.595663070678711,-1.5054347515106201,-0.7620950937271118
1761370221495637800,2.1656376953125,3.337721824645996,-1.8013911247253418,-1.029280424118042
1761370221514249700,2.184249755859375,3.953688621520996,-1.8162529468536377,-0.04190230369567871
1761370221532860000,2.20285986328125,4.661332130432129,-2.5085299015045166,2.358955144882202
1761370221551471600,2.2214716796875,5.407100677490234,-4.898493766784668,2.3591010570526123
1761370221570082000,2.24008203125,6.628470420837402,-5.9129414558410645,0.6043610572814941
1761370221588693800,2.25869384765625,7.916837692260742,-7.046162128448486,-0.7698124051094055
1761370221607304200,2.27730419921875,9.609602928161621,-8.886896133422852,-0.7833036184310913
1761370221625916000,2.295916015625,13.879084587097168,-7.401662349700928,0.02580893039703369
1761370221644526000,2.314526123046875,15.17074966430664,-3.703056812286377,2.4330191612243652
1761370221663138000,2.333137939453125,12.187496185302734,-0.20546674728393555,4.654300212860107
1761370221681748200,2.351748291015625,7.141356468200684,1.5281085968017578,4.697016716003418
1761370221700360200,2.370360107421875,2.6554012298583984,2.519303321838379,2.188978910446167
1761370221718970400,2.388970458984375,-0.5269880294799805,3.438478469848633,-1.1525424718856812
1761370221737582300,2.407582275390625,-3.061967372894287,3.619171380996704,-3.4424197673797607
1761370221756192500,2.426192626953125,-4.523293972015381,3.480086088180542,-4.570641040802002
1761370221774804500,2.444804443359375,-4.998955726623535,3.765691041946411,-5.624112129211426
1761370221793414700,2.46341455078125,-4.6387715339660645,5.420690536499023,-4.900092601776123
1761370221812026600,2.482026611328125,-4.558649063110352,5.17331600189209,-2.0479848384857178
1761370221830636800,2.50063671875,-5.533740997314453,4.664259910583496,0.6284825801849365
1761370221849248800,2.519248779296875,-6.777225494384766,3.7678680419921875,2.575078010559082
1761370221867859000,2.53785888671875,-7.471652984619141,2.761059522628784,3.3679754734039307
1761370221886470700,2.556470703125,-7.4879326820373535,2.2491719722747803,2.619223117828369
1761370221905081000,2.5750810546875,-6.757052421569824,1.792888879776001,1.3509798049926758
1761370221923692800,2.59369287109375,-5.28683614730835,0.8691827058792114,0.755097508430481
1761370221942303200,2.61230322265625,-2.681903839111328,0.24557042121887207,0.8190833330154419
1761370221960915000,2.6309150390625,0.6380300521850586,-0.08282327651977539,1.799130916595459
1761370221979525400,2.649525390625,3.6268720626831055,-1.103987455368042,2.707913875579834
1761370221998137000,2.66813720703125,5.606450080871582,-2.2053349018096924,3.061272382736206
1761370222016747300,2.686747314453125,5.836488723754883,-2.474268913269043,1.4116796255111694
1761370222035359200,2.705359130859375,4.938930511474609,-3.3898491859436035,0.34753942489624023
1761370222053969400,2.723969482421875,3.3112993240356445,-3.3494608402252197,-2.274752140045166
1761370222072581400,2.742581298828125,1.1465044021606445,-2.0041894912719727,-4.945373058319092
1761370222091191600,2.761191650390625,-0.43657875061035156,-1.0798038244247437,-6.470424652099609
1761370222109803500,2.779803466796875,1.0350379943847656,-1.4548628330230713,-4.190301418304443
1761370222128413700,2.79841357421875,3.3054885864257812,-1.5587376356124878,-1.309259295463562
1761370222147025700,2.817025634765625,3.658799171447754,-0.9996240139007568,2.245502471923828
1761370222165635800,2.8356357421875,2.6857118606567383,-1.3617184162139893,4.938368797302246
1761370222184247800,2.854247802734375,1.483626365661621,-1.0397582054138184,4.982718467712402
1761370222202858000,2.87285791015625,0.8996295928955078,-0.5312290191650391,3.994133710861206
1761370222221470000,2.891469970703125,1.1069459915161133,0.4917793273925781,2.7386374473571777
1761370222240080100,2.910080078125,1.337203025817871,1.7280852794647217,1.0014729499816895
1761370222258692000,2.928692138671875,0.9103212356567383,2.4876906871795654,-0.7934556007385254
1761370222277302300,2.94730224609375,-0.05803966522216797,2.4557149410247803,-2.966747999191284
1761370222295914200,2.965914306640625,-0.20518016815185547,3.1691348552703857,-5.563376426696777
1761370222314524400,2.9845244140625,0.23835372924804688,4.014439105987549,-6.424012184143066
1761370222333136100,3.00313623046875,-0.35666465759277344,4.066123962402344,-5.164760589599609
1761370222351746600,3.02174658203125,-1.9330496788024902,3.651596784591675,-3.191504716873169
1761370222370358300,3.040358154296875,-3.5032119750976562,2.698930263519287,-1.509364366531372
1761370222388968700,3.05896875,-4.4180684089660645,1.8501501083374023,-0.4371654987335205
1761370222407580400,3.077580322265625,-4.904778003692627,1.4089874029159546,-0.5976345539093018
1761370222426190800,3.09619091796875,-5.081515789031982,1.2592799663543701,-0.8156096935272217
1761370222444802600,3.114802490234375,-4.862558841705322,0.8268072605133057,-0.25027596950531006
1761370222463413000,3.1334130859375,-4.156344413757324,0.5465099215507507,1.0323833227157593
1761370222482024700,3.152024658203125,-2.494481086730957,0.4277181625366211,2.8633933067321777
1761370222500635000,3.170634765625,-0.2705564498901367,0.09074077010154724,4.772234916687012
1761370222519246800,3.189246826171875,1.4981565475463867,-0.06073397397994995,3.651639223098755
1761370222537857000,3.20785693359375,3.431884765625,-1.227347493171692,0.7088854312896729
1761370222556469000,3.226468994140625,5.299777030944824,-4.777546405792236,-1.0312399864196777
1761370222575079200,3.2450791015625,7.9710235595703125,-3.344478130340576,-4.260733604431152
1761370222593691100,3.263691162109375,9.882752418518066,-2.390080451965332,-4.370059967041016
1761370222612301300,3.28230126953125,9.641218185424805,-4.214188098907471,1.134392261505127
1761370222630913300,3.300913330078125,9.900837898254395,-3.0990231037139893,3.3402297496795654
1761370222649523500,3.3195234375,8.523282051086426,-1.6756349802017212,1.8779675960540771
1761370222668135400,3.338135498046875,4.040821075439453,-0.07058954238891602,-0.2841845750808716
1761370222686745600,3.35674560546875,0.3421907424926758,0.3342233896255493,-0.4206632375717163
1761370222705357600,3.375357666015625,-2.3239030838012695,0.05646407604217529,0.1646343469619751
1761370222723967700,3.3939677734375,-2.820291519165039,1.3084484338760376,0.9156832695007324
1761370222742579700,3.412579833984375,-2.7661075592041016,2.4557950496673584,2.529268980026245
1761370222761190000,3.43118994140625,-4.124717712402344,2.7120370864868164,3.1475372314453125
1761370222779801900,3.4498017578125,-5.546367168426514,3.1344146728515625,2.0806825160980225
1761370222798412000,3.468412109375,-5.204939365386963,3.476658344268799,0.4198583960533142
1761370222817024000,3.48702392578125,-3.952561855316162,3.2355690002441406,-0.5200707912445068
1761370222835634200,3.50563427734375,-2.4828848838806152,3.914572238922119,-1.816650629043579
1761370222854246000,3.524245849609375,-1.8485708236694336,4.367696762084961,-1.5546691417694092
1761370222872856300,3.542856201171875,-2.767580986022949,3.1115636825561523,0.8131994605064392
1761370222891468000,3.561468017578125,-3.642892360687256,2.8158702850341797,2.0051352977752686
1761370222910078500,3.580078369140625,-3.5853195190429688,2.3308467864990234,1.4693292379379272
1761370222928690200,3.598690185546875,-3.001523494720459,1.6526191234588623,0.5171007513999939
1761370222947300600,3.617300537109375,-2.912632465362549,0.6911814212799072,0.686364471912384
1761370222965912300,3.635912353515625,-3.0253419876098633,-0.8415942788124084,1.6911745071411133
1761370222984522800,3.654522705078125,-2.088984489440918,-2.862959861755371,3.2461535930633545
1761370223003134500,3.673134521484375,0.24631404876708984,-4.877241611480713,4.011497974395752
1761370223021744600,3.69174462890625,2.2435102462768555,-5.745745658874512,1.5597790479660034
1761370223040356600,3.710356689453125,1.753890037536621,-4.907851219177246,-3.2808284759521484
1761370223058966800,3.728966796875,0.5482864379882812,-2.197064161300659,-5.473263740539551
1761370223077578800,3.747578857421875,3.738022804260254,-1.0235440731048584,-3.5618627071380615
1761370223096189000,3.76618896484375,8.922380447387695,0.5905964374542236,-0.8687610626220703
1761370223114801000,3.78480078125,10.937140464782715,1.9719386100769043,0.22333994507789612
1761370223133411000,3.8034111328125,11.502965927124023,2.612919330596924,1.0550966262817383
1761370223152023000,3.82202294921875,12.49186897277832,1.1632301807403564,1.9172345399856567
1761370223170633200,3.84063330078125,11.55259895324707,0.8118784427642822,2.842632532119751
1761370223189245200,3.8592451171875,8.256324768066406,1.1626063585281372,3.205172538757324
1761370223207855400,3.87785546875,4.834693908691406,2.030379295349121,3.875732898712158
1761370223226467300,3.89646728515625,2.2729034423828125,2.760148525238037,3.891195297241211
1761370223245077500,3.915077392578125,-0.17406845092773438,3.2523696422576904,3.0826416015625
1761370223263689500,3.933689453125,-1.7231111526489258,3.171205997467041,2.6832332611083984
1761370223282299600,3.952299560546875,-3.2670650482177734,3.0300612449645996,2.389878273010254
1761370223300911600,3.97091162109375,-4.539021015167236,2.689275026321411,1.3325225114822388
1761370223319521800,3.989521728515625,-5.832121849060059,1.971287488937378,-0.1211087703704834
1761370223338133800,4.0081337890625,-6.850043773651123,1.289313554763794,-1.1382912397384644
1761370223356744000,4.026743896484375,-8.020108222961426,0.42511212825775146,-1.360520839691162
1761370223375356000,4.04535595703125,-9.031082153320312,-0.026398658752441406,-1.899643898010254
1761370223393966000,4.063966064453125,-9.470754623413086,-0.12101626396179199,-2.5677437782287598
1761370223412578000,4.082578125,-8.769662857055664,-1.1079577207565308,-2.3691818714141846
1761370223431188200,4.101188232421875,-6.48978328704834,-2.085296154022217,-1.42753005027771
1761370223449800200,4.11980029296875,-4.585421085357666,-2.6343719959259033,-0.673711895942688
1761370223468410400,4.138410400390625,-2.941561222076416,-2.568840742111206,-0.8557023406028748
1761370223487022300,4.157022216796875,-1.4702024459838867,-2.747013807296753,-1.7540706396102905
1761370223505632500,4.175632568359375,0.2297229766845703,-2.4824955463409424,-2.2354073524475098
1761370223524244200,4.194244140625,2.423572540283203,-2.8935940265655518,-2.328915596008301
1761370223542854700,4.212854736328125,4.868217468261719,-2.998227119445801,-1.750546932220459
1761370223561466400,4.23146630859375,6.467978477478027,-2.9308435916900635,0.7564799189567566
1761370223580076800,4.250076904296875,6.636796951293945,-3.365088939666748,1.2071902751922607
1761370223598688500,4.2686884765625,4.6532793045043945,-1.6187636852264404,-2.3136119842529297
1761370223617299000,4.287298828125,2.4074020385742188,-0.0923609733581543,-4.750090599060059
1761370223635910700,4.30591064453125,1.1101140975952148,2.134734630584717,-4.300745010375977
1761370223654521000,4.32452099609375,3.1100358963012695,0.39893388748168945,-2.187918186187744
1761370223673132800,4.3431328125,6.550798416137695,-3.239905595779419,1.2895054817199707
1761370223691743000,4.361742919921875,6.5153045654296875,-4.275965690612793,1.5450000762939453
1761370223710355000,4.38035498046875,4.7255754470825195,-3.6566033363342285,0.9293355941772461
1761370223728965000,4.398965087890625,3.455092430114746,-2.6528451442718506,0.7202968597412109
1761370223747577000,4.4175771484375,2.030646324157715,-1.9972515106201172,1.0314242839813232
1761370223766187300,4.436187255859375,0.4151496887207031,-1.296392560005188,0.8591258525848389
1761370223784799200,4.45479931640625,-1.4193401336669922,-0.7031464576721191,-0.31264400482177734
1761370223803409400,4.473409423828125,-2.7701587677001953,-0.08991554379463196,-1.5707358121871948
1761370223822021400,4.492021484375,-3.32297420501709,0.46108728647232056,-1.7947311401367188
1761370223840631600,4.510631591796875,-3.784780502319336,1.303201675415039,-1.9009811878204346
1761370223859243500,4.529243408203125,-4.108127593994141,1.8162204027175903,-2.104830265045166
1761370223877853700,4.547853759765625,-4.708353519439697,1.6853501796722412,-1.5736263990402222
1761370223896465700,4.566465576171875,-5.372838020324707,2.019698143005371,-0.26913928985595703
1761370223915075800,4.585075927734375,-5.307220458984375,2.652627944946289,0.8804669380187988
1761370223933687800,4.603687744140625,-4.912509441375732,2.705418348312378,1.8558118343353271
1761370223952298000,4.622298095703125,-5.2573723793029785,0.8026794791221619,1.894611120223999
1761370223970910000,4.640909912109375,-5.141151428222656,0.9418765306472778,1.142948865890503
1761370223989520100,4.65952001953125,-5.1527228355407715,0.8157055377960205,0.17080998420715332
1761370224008132000,4.678132080078125,-4.133593559265137,0.7160810232162476,0.0325160026550293
1761370224026742300,4.6967421875,-0.7866754531860352,0.04606908559799194,1.3130016326904297
1761370224045354200,4.715354248046875,3.5323877334594727,-0.489994615316391,2.732684850692749
1761370224063964400,4.73396435546875,7.336570739746094,-1.2910983562469482,3.640562057495117
1761370224082576400,4.752576416015625,8.35773754119873,-1.950244665145874,1.7740633487701416
1761370224101186600,4.7711865234375,7.812224388122559,-0.3911530375480652,-0.9658371210098267
1761370224119798500,4.789798583984375,6.859869003295898,0.8303877115249634,-0.5520123243331909
1761370224138408700,4.80840869140625,6.166760444641113,0.2521747350692749,3.02252197265625
1761370224157020700,4.827020751953125,6.291962623596191,-1.146805763244629,6.407345771789551
1761370224175630800,4.845630859375,6.326382637023926,-1.2550321817398071,4.232243537902832
1761370224194242600,4.86424267578125,4.664334297180176,-1.813584804534912,2.462745189666748
1761370224212853000,4.88285302734375,3.1028127670288086,-1.4993295669555664,0.7369773387908936
1761370224231464700,4.901464599609375,2.9443464279174805,-0.38195061683654785,0.39317893981933594
1761370224250075100,4.9200751953125,2.3597707748413086,0.3339571952819824,0.8935337066650391
1761370224268686800,4.938686767578125,1.1550312042236328,0.2932150363922119,2.238901376724243
1761370224287297300,4.95729736328125,-0.3756589889526367,2.4407291412353516,1.3131775856018066
1761370224305909000,4.975908935546875,-2.713606834411621,2.8842978477478027,0.2964303493499756
1761370224324519400,4.99451953125,-3.529046058654785,3.43005108833313,-0.2385634183883667
1761370224343131100,5.013131103515625,-3.9590115547180176,3.7083864212036133,-1.2496395111083984
1761370224361741600,5.031741455078125,-4.807399272918701,3.458127737045288,-1.743001937866211
1761370224380353300,5.050353271484375,-6.1574177742004395,3.306443691253662,-1.5710912942886353
1761370224398963700,5.068963623046875,-7.526232719421387,3.5870723724365234,-1.2172093391418457
1761370224417575400,5.087575439453125,-8.239554405212402,3.575979709625244,-1.4843699932098389
1761370224436185900,5.106185791015625,-7.013486385345459,3.6232619285583496,-2.0327200889587402
1761370224454797600,5.124797607421875,-5.253428936004639,2.6477549076080322,-1.1667015552520752
1761370224473408000,5.143407958984375,-3.8000850677490234,2.5522944927215576,0.14475607872009277
1761370224492019700,5.162019775390625,-3.0581159591674805,2.2698585987091064,1.2541351318359375
1761370224510630100,5.180630126953125,-0.9305095672607422,2.015655279159546,2.577993869781494
1761370224529241900,5.199241943359375,2.6270599365234375,1.896124005317688,3.9947474002838135
1761370224547852300,5.217852294921875,5.704411506652832,-0.030624866485595703,4.578644275665283
1761370224566464000,5.236464111328125,9.719115257263184,-2.022243022918701,4.356044292449951
1761370224585074200,5.25507421875,12.94515323638916,-5.645049571990967,3.3958635330200195
1761370224603686100,5.27368603515625,13.26806640625,-8.014710426330566,1.2111237049102783
1761370224622296300,5.29229638671875,9.842073440551758,-7.878973484039307,-0.7753359079360962
1761370224640908300,5.310908203125,5.133906364440918,-7.11741828918457,0.03550899028778076
1761370224659518500,5.3295185546875,3.386630058288574,-2.73030161857605,1.0499309301376343
1761370224678130400,5.34813037109375,4.710147857666016,-2.307732105255127,1.8125014305114746
1761370224696740600,5.36674072265625,3.8678503036499023,-1.3024048805236816,-0.5769901275634766
1761370224715352600,5.3853525390625,-0.5799045562744141,-1.0752581357955933,-1.6075955629348755
1761370224733962800,5.403962646484375,-4.49469518661499,-0.4015515446662903,-1.353512167930603
1761370224752574700,5.42257470703125,-6.78713321685791,0.503027617931366,-0.5007445812225342
1761370224771185000,5.441184814453125,-7.221160888671875,0.9262372255325317,-0.6449973583221436
1761370224789796900,5.459796875,-6.073461532592773,0.6360052227973938,-1.9986454248428345
1761370224808407000,5.478406982421875,-4.408504486083984,0.9685156345367432,-3.464388132095337
1761370224827019000,5.49701904296875,-3.119015693664551,1.1995596885681152,-3.5665178298950195
1761370224845629200,5.515629150390625,-2.5970311164855957,1.735238790512085,-2.8678770065307617
1761370224864241200,5.5342412109375,-2.413266181945801,2.4366369247436523,-2.0599091053009033
1761370224882851300,5.552851318359375,-2.6464552879333496,2.917638063430786,-1.2154369354248047
1761370224901463300,5.57146337890625,-2.92972469329834,2.758119583129883,0.0937199592590332
1761370224920073500,5.590073486328125,-3.8915023803710938,1.9873398542404175,0.39463067054748535
1761370224938685400,5.608685546875,-4.758926868438721,1.108452558517456,-0.43788909912109375
1761370224957295600,5.627295654296875,-4.898255348205566,0.5405415892601013,-1.6429407596588135
1761370224975907600,5.645907470703125,-4.355282306671143,0.03116244077682495,-2.214799642562866
1761370224994517800,5.664517822265625,-3.3793301582336426,-0.474642813205719,-1.8696722984313965
1761370225013129700,5.683129638671875,-2.3090219497680664,-0.6691677570343018,-1.289074182510376
1761370225031740000,5.701739990234375,-1.2570734024047852,-1.653072476387024,0.11593890190124512
1761370225050351900,5.720351806640625,1.9076519012451172,-2.5110909938812256,0.533271312713623
1761370225068962000,5.738962158203125,4.329153060913086,-3.978473663330078,-0.8136518001556396
1761370225087574000,5.757573974609375,6.5488739013671875,-4.393398284912109,-0.952998161315918
1761370225106184200,5.77618408203125,6.938421249389648,-4.7437567710876465,-0.17319178581237793
1761370225124796200,5.794796142578125,7.982474327087402,-3.1250240802764893,-1.1146979331970215
1761370225143406300,5.81340625,8.801628112792969,-1.7061233520507812,1.0091681480407715
1761370225162018300,5.832018310546875,9.590344429016113,-0.04761099815368652,5.31935453414917
1761370225180628500,5.85062841796875,8.565595626831055,1.6915851831436157,7.147001266479492
1761370225199240400,5.869240478515625,5.64200496673584,2.7251665592193604,6.575109481811523
1761370225217850600,5.8878505859375,4.401176452636719,1.6883810758590698,5.147617340087891
1761370225236462600,5.906462646484375,4.251045227050781,0.35150831937789917,3.422226905822754
1761370225255072800,5.92507275390625,4.248088836669922,-0.028171777725219727,1.380350947380066
1761370225273684700,5.943684814453125,3.5655012130737305,1.0598645210266113,0.15697228908538818
1761370225292295000,5.962294921875,1.9784011840820312,1.832554817199707,0.2466803789138794
1761370225310907000,5.980906982421875,-0.18732833862304688,2.5716676712036133,0.09829795360565186
1761370225329517000,5.99951708984375,-2.123514175415039,3.068690776824951,-0.34837132692337036
1761370225348129000,6.01812890625,-4.282577037811279,3.0304322242736816,-1.5434458255767822
1761370225366739200,6.0367392578125,-5.250768661499023,2.9902288913726807,-2.175825834274292
1761370225385351200,6.05535107421875,-5.6073150634765625,2.0536179542541504,-2.3314404487609863
1761370225403961300,6.07396142578125,-6.293689727783203,1.290060043334961,-1.525789737701416
1761370225422573300,6.0925732421875,-7.046084403991699,0.7063990831375122,0.12474292516708374
1761370225441183500,6.11118359375,-7.314155578613281,0.03932607173919678,0.7690870761871338
1761370225459795500,6.12979541015625,-7.2954936027526855,-0.9683398008346558,0.430800199508667
1761370225478405600,6.148405517578125,-7.01054573059082,-1.7864664793014526,0.005257919430732727
1761370225497017600,6.167017578125,-6.213960647583008,-2.686870813369751,-0.295798122882843
1761370225515627800,6.185627685546875,-5.068778991699219,-3.2293522357940674,-0.20224735140800476
1761370225534239700,6.20423974609375,-3.636601448059082,-3.3834877014160156,0.8767327070236206
1761370225552850000,6.222849853515625,-1.8266792297363281,-3.555935859680176,2.9748330116271973
1761370225571462000,6.2414619140625,-0.5178437232971191,-2.258451461791992,3.9413905143737793
1761370225590072000,6.260072021484375,2.2443552017211914,1.9832653999328613,1.2183959484100342
1761370225608684000,6.27868408203125,4.986956596374512,2.9705615043640137,-0.4112381041049957
1761370225627294500,6.29729443359375,7.297619819641113,2.9111104011535645,-0.3139359951019287
1761370225645906200,6.31590625,6.185317516326904,4.2215681076049805,-3.3441267013549805
1761370225664516600,6.3345166015625,3.9773507118225098,4.779258728027344,-5.351716995239258
1761370225683128300,6.35312841796875,3.901336193084717,4.517331600189209,-3.288658618927002
1761370225701738500,6.371738525390625,5.349234580993652,4.107365131378174,-1.6840369701385498
1761370225720350500,6.3903505859375,6.389699935913086,1.8490710258483887,0.6778534054756165
1761370225738961000,6.4089609375,4.2976579666137695,-0.46028995513916016,1.332032322883606
1761370225757572600,6.427572509765625,1.3844499588012695,-1.471470832824707,1.0262271165847778
1761370225776183000,6.44618310546875,-0.6405315399169922,-1.3372464179992676,0.16808517277240753
1761370225794794800,6.464794677734375,-1.9016213417053223,-1.5917623043060303,-0.38184884190559387
1761370225813405200,6.4834052734375,-3.0423331260681152,-2.273240089416504,0.22049087285995483
1761370225832017000,6.502016845703125,-5.066070556640625,-3.0406570434570312,0.6191672086715698
1761370225850627300,6.52062744140625,-5.680462837219238,-3.446925401687622,1.3753474950790405
1761370225869239000,6.539239013671875,-4.1661505699157715,-1.4499189853668213,0.027283955365419388
1761370225887849500,6.557849365234375,-2.990382194519043,-0.850658655166626,-0.02642606571316719
1761370225906461200,6.576461181640625,-2.9300951957702637,-0.644270658493042,0.2336835265159607
1761370225925071600,6.595071533203125,-3.502157688140869,-0.587639570236206,0.8024296760559082
1761370225943683300,6.613683349609375,-4.18040657043457,-0.8844964504241943,0.8339880108833313
1761370225962293800,6.632293701171875,-4.866725921630859,-1.3804471492767334,0.6041131019592285
1761370225980905500,6.650905517578125,-5.404672145843506,-1.8376615047454834,0.4314936399459839
1761370225999516000,6.669515869140625,-4.47809362411499,-2.0368120670318604,0.27945947647094727
1761370226018127600,6.688127685546875,-2.7893447875976562,-1.4305872917175293,0.37462350726127625
1761370226036738000,6.706738037109375,-2.614560604095459,-1.124091625213623,1.3931764364242554
1761370226055349800,6.725349853515625,-2.1716432571411133,-0.7271237373352051,2.789112091064453
1761370226073960200,6.743960205078125,-0.35107898712158203,-0.1515192985534668,2.1080455780029297
1761370226092572200,6.762572265625,2.6038103103637695,0.2160320281982422,-0.12332415580749512
1761370226111182300,6.781182373046875,3.9791769981384277,0.4573960304260254,-0.5441138744354248
1761370226129794300,6.799794189453125,3.756561756134033,0.8841757774353027,-0.09178650379180908
1761370226148404500,6.818404541015625,4.421894550323486,2.6605000495910645,-0.8178447484970093
1761370226167016400,6.837016357421875,5.185242176055908,5.6767706871032715,-2.8212246894836426
1761370226185626600,6.855626708984375,5.426258563995361,8.172954559326172,-4.339852809906006
1761370226204238600,6.874238525390625,5.997947692871094,7.987975120544434,-3.481876850128174
1761370226222848800,6.892848876953125,8.62934398651123,6.115637302398682,-0.08151209354400635
1761370226241460700,6.911460693359375,10.818204879760742,3.5018153190612793,2.018794298171997
1761370226260071000,6.93007080078125,9.842007637023926,1.1074938774108887,1.9393353462219238
1761370226278683000,6.948682861328125,5.800783157348633,-0.04612445831298828,0.45818787813186646
1761370226297293000,6.96729296875,1.788482666015625,0.08690214157104492,-0.7086326479911804
1761370226315905000,6.985905029296875,-0.9201068878173828,0.09269952774047852,-0.6710323095321655
1761370226334515200,7.00451513671875,-3.24027156829834,-0.15885114669799805,-0.2116202712059021
1761370226353127200,7.023127197265625,-4.824543476104736,-0.12977313995361328,-0.3783407509326935
1761370226371737300,7.0417373046875,-5.258157730102539,0.05156517028808594,-0.44117066264152527
1761370226390349300,7.060349365234375,-5.581217288970947,0.3933067321777344,-0.19080348312854767
1761370226408959500,7.07895947265625,-6.298933029174805,0.07820844650268555,0.07921800017356873
1761370226427571500,7.097571533203125,-7.038602828979492,-0.6323349475860596,0.3007923364639282
1761370226446181600,7.116181640625,-7.498989105224609,-1.3656375408172607,0.3778502941131592
1761370226464793600,7.134793701171875,-7.450942039489746,-2.3436131477355957,-0.06773555278778076
1761370226483403800,7.15340380859375,-6.718758583068848,-3.3749921321868896,-0.3032524585723877
1761370226502015700,7.172015625,-5.505546569824219,-3.994781970977783,-0.7066618204116821
1761370226520626000,7.1906259765625,-4.234588146209717,-3.9259414672851562,-1.0334699153900146
1761370226539238000,7.20923779296875,-3.037656307220459,-3.8957481384277344,-0.0708826333284378
1761370226557848000,7.22784814453125,-1.5684666633605957,-3.488293409347534,1.096437931060791
1761370226576460000,7.2464599609375,-1.1705665588378906,-3.114030599594116,1.9465097188949585
1761370226595070500,7.265070556640625,-1.4840764999389648,-2.5995912551879883,1.174544095993042
1761370226613682200,7.28368212890625,-0.7993254661560059,-1.1026005744934082,-0.3517599105834961
1761370226632292400,7.302292236328125,1.6732220649719238,1.9716205596923828,-2.3034229278564453
1761370226650904300,7.320904296875,4.733265399932861,3.847860336303711,-1.9142963886260986
1761370226669514800,7.3395146484375,5.953238010406494,3.470487594604492,-0.5387561917304993
1761370226688126500,7.35812646484375,5.434996128082275,4.978187084197998,-2.186368465423584
1761370226706737000,7.37673681640625,4.872846603393555,6.691082000732422,-1.4187812805175781
1761370226725348600,7.3953486328125,4.6914448738098145,8.023374557495117,0.15956707298755646
1761370226743959000,7.413958984375,4.465855121612549,6.601931095123291,2.6545796394348145
1761370226762570800,7.43257080078125,3.64141845703125,2.899167537689209,3.9437789916992188
1761370226781181200,7.45118115234375,2.2328710556030273,-0.44306373596191406,2.9834678173065186
1761370226799793000,7.46979296875,1.8545503616333008,-1.0200331211090088,0.7705191969871521
1761370226818403300,7.4884033203125,2.7412166595458984,0.15352153778076172,-0.466592401266098
1761370226837015000,7.50701513671875,3.1555376052856445,0.8396055698394775,0.38604915142059326
1761370226855625500,7.52562548828125,1.724557876586914,0.6918487548828125,1.0779571533203125
1761370226874237400,7.544237548828125,-0.43706417083740234,0.32291531562805176,0.5857001543045044
1761370226892847600,7.56284765625,-1.9155378341674805,0.13632464408874512,-0.3916628062725067
1761370226911459300,7.581459228515625,-2.8888254165649414,-0.06998825073242188,-0.9173840284347534
1761370226930069800,7.60006982421875,-3.866969108581543,-0.7964339256286621,-0.6042159199714661
1761370226948681700,7.618681640625,-4.709325313568115,-1.4354021549224854,-0.13951998949050903
1761370226967292000,7.6372919921875,-5.291257858276367,-1.9655663967132568,0.13811302185058594
1761370226985903900,7.65590380859375,-5.357757568359375,-2.3110222816467285,0.18400156497955322
1761370227004514000,7.67451416015625,-5.587559700012207,-3.0120623111724854,-0.03448164463043213
1761370227023126000,7.6931259765625,-5.36323356628418,-3.9074716567993164,-0.15513023734092712
1761370227041736200,7.711736083984375,-4.837164402008057,-4.460750579833984,-0.6965977549552917
1761370227060348200,7.73034814453125,-3.728483200073242,-3.5627810955047607,-1.8852325677871704
1761370227078958300,7.748958251953125,-2.8410544395446777,-2.600390672683716,-0.7451544404029846
1761370227097570300,7.7675703125,-1.5975170135498047,-1.125227928161621,1.704815149307251
1761370227116180500,7.786180419921875,0.7019033432006836,0.19577646255493164,1.7032098770141602
1761370227134792400,7.80479248046875,2.949230670928955,1.0836596488952637,-0.7092512845993042
1761370227153402600,7.823402587890625,4.496179103851318,1.9655146598815918,-1.615050196647644
1761370227172014600,7.8420146484375,5.087090492248535,1.8385372161865234,0.05794870853424072
1761370227190624800,7.860624755859375,5.596424579620361,2.867252826690674,0.27626317739486694
1761370227209236700,7.87923681640625,5.063686370849609,4.0611162185668945,0.9109102487564087
1761370227227847000,7.897846923828125,3.027984142303467,4.098814487457275,2.341064453125
1761370227246459000,7.916458984375,0.9082098007202148,2.7782397270202637,2.9060628414154053
1761370227265069300,7.9350693359375,-0.5013670921325684,-0.2519397735595703,2.1563374996185303
1761370227283681000,7.953680908203125,0.17365550994873047,-1.3967652320861816,-0.3363248407840729
1761370227302291200,7.972291259765625,3.361151695251465,0.4988546371459961,-1.7049243450164795
1761370227320903200,7.990903076171875,4.3921613693237305,0.7216758728027344,1.132735252380371
1761370227339513600,8.009513671875,3.259593963623047,0.036620140075683594,3.6435837745666504
1761370227358125300,8.028125244140625,1.8915071487426758,-0.8376967906951904,4.200111389160156
1761370227376735700,8.04673583984375,0.3143043518066406,-1.7657616138458252,3.6127986907958984
1761370227395347500,8.065347412109375,-1.1819477081298828,-0.9141995906829834,0.48578667640686035
1761370227413958000,8.0839580078125,-2.601491928100586,-0.4577631950378418,-1.955089807510376
1761370227432569600,8.102569580078125,-3.4887614250183105,-0.11467599868774414,-2.7639551162719727
1761370227451180000,8.121179931640626,-3.903562068939209,-0.42377281188964844,-2.7940993309020996
1761370227469792000,8.1397919921875,-3.9682631492614746,-0.7236795425415039,-2.3881397247314453
1761370227488402200,8.158402099609376,-3.956378936767578,-0.7232775688171387,-1.4811800718307495
1761370227507014100,8.17701416015625,-3.773120403289795,-0.477541446685791,-0.7824063897132874
1761370227525624300,8.195624267578125,-3.3156747817993164,-0.7919950485229492,-0.13935083150863647
1761370227544236300,8.214236328125,-2.4912219047546387,-1.5331783294677734,0.2962374687194824
1761370227562846500,8.232846435546875,-1.9094796180725098,-2.2708563804626465,0.8284137845039368
1761370227581458400,8.25145849609375,-1.781224250793457,-2.3497257232666016,0.7146655321121216
1761370227600068600,8.270068603515625,-1.6778321266174316,-2.2503693103790283,0.6296402215957642
1761370227618680600,8.2886806640625,-0.7142496109008789,-2.2470953464508057,0.5815713405609131
1761370227637290800,8.307290771484375,1.6679115295410156,-2.2537918090820312,-0.1508055031299591
1761370227655902700,8.32590283203125,3.5695300102233887,-1.8195791244506836,-0.7386276721954346
1761370227674513000,8.344512939453125,3.987985610961914,-0.7339415550231934,-0.9167792797088623
1761370227693124900,8.363124755859374,3.8143696784973145,0.7273221015930176,-1.7388209104537964
1761370227711735000,8.381735107421875,3.1169943809509277,1.7121644020080566,-2.589266538619995
1761370227730347000,8.400346923828126,2.5828094482421875,4.064359188079834,-2.794257640838623
1761370227748957400,8.41895751953125,4.032477378845215,8.489601135253906,-2.464750289916992
1761370227767569200,8.437569091796876,5.560080051422119,5.600382328033447,-0.0735730528831482
1761370227786179300,8.456179443359375,5.4647345542907715,0.1283736228942871,2.7301864624023438
1761370227804791300,8.474791259765626,4.414599418640137,-1.666567325592041,1.2539103031158447
1761370227823401700,8.493401611328125,2.649735450744629,-1.6597862243652344,-0.04611104726791382
1761370227842013400,8.512013427734376,0.3087606430053711,-1.1005806922912598,-0.8601681590080261
1761370227860624000,8.530623779296874,-0.7237262725830078,0.04742693901062012,-1.1628520488739014
1761370227879235600,8.549235595703125,-0.09525203704833984,1.4110045433044434,0.041166529059410095
1761370227897846000,8.567845947265624,0.4771432876586914,1.6096060276031494,0.5391642451286316
1761370227916457700,8.586457763671875,-0.6794328689575195,1.0060396194458008,0.632361650466919
1761370227935068200,8.605068115234374,-2.753757953643799,0.42398858070373535,0.17308402061462402
1761370227953680100,8.62368017578125,-4.550329208374023,0.594977617263794,-0.7032225131988525
1761370227972290300,8.642290283203126,-5.626956939697266,0.9463150501251221,-0.6942057013511658
1761370227990902300,8.66090234375,-5.62935733795166,1.027928352355957,0.08480530977249146
1761370228009512400,8.679512451171876,-5.0054731369018555,0.6707656383514404,1.1485819816589355
1761370228028124400,8.69812451171875,-4.327113628387451,0.16678786277770996,1.4203165769577026
1761370228046734600,8.716734619140626,-3.672297954559326,-0.5642433166503906,1.138113260269165
1761370228065346600,8.7353466796875,-3.237456798553467,-1.0801997184753418,1.2162855863571167
1761370228083956700,8.753956787109376,-3.1651787757873535,-1.1187267303466797,1.983731985092163
1761370228102568700,8.772568603515625,-3.3315744400024414,-0.5611791610717773,2.0457704067230225
1761370228121179000,8.791178955078125,-2.2076148986816406,-0.4511899948120117,2.485692262649536
1761370228139790800,8.809790771484375,0.7453756332397461,-0.16327905654907227,1.398464322090149
1761370228158401000,8.828401123046875,4.286694526672363,0.5551724433898926,-0.2568945288658142
1761370228177013000,8.847012939453125,6.134486675262451,1.2001633644104004,0.26902303099632263
1761370228195623400,8.86562353515625,5.830759048461914,1.337052822113037,0.5203622579574585
1761370228214235100,8.884235107421874,3.8816123008728027,2.117750644683838,-2.9860897064208984
1761370228232845600,8.902845458984375,2.357482433319092,4.277585506439209,-6.2834086418151855
1761370228251457300,8.921457275390624,3.1963744163513184,4.470090866088867,-3.917447328567505
1761370228270067700,8.940067626953125,5.962060451507568,3.5182604789733887,0.13356658816337585
1761370228288679700,8.9586796875,6.744943618774414,1.6754627227783203,2.501818895339966
1761370228307289900,8.977289794921875,4.843232154846191,-0.004322052001953125,1.555420994758606
1761370228325901600,8.995901611328126,2.600027084350586,-0.4592862129211426,-0.3137120306491852
1761370228344512000,9.014511962890625,-0.021787643432617188,-1.121133804321289,0.046892762184143066
1761370228363124000,9.0331240234375,-1.586024284362793,-1.397108793258667,0.689866304397583
1761370228381734100,9.051734130859375,-2.1571884155273438,-0.9610681533813477,2.0889878273010254
1761370228400346000,9.07034619140625,-2.844266891479492,-1.16990327835083,2.183861255645752
1761370228418956300,9.088956298828125,-3.583559036254883,-1.1872410774230957,1.3606314659118652
1761370228437568300,9.107568359375,-3.393944263458252,-0.16213178634643555,-0.5502005815505981
1761370228456178400,9.126178466796874,-3.3278303146362305,-0.4503030776977539,-0.14047658443450928
1761370228474790400,9.144790283203125,-3.2921247482299805,-0.6516628265380859,0.44762998819351196
1761370228493400600,9.163400634765624,-3.373812198638916,-0.8995647430419922,1.1243813037872314
1761370228512012500,9.182012451171875,-3.848959445953369,-1.2918658256530762,1.400063157081604
1761370228530622700,9.200622802734374,-4.34027099609375,-2.177172899246216,1.4393559694290161
1761370228549234700,9.219234619140625,-4.374505043029785,-3.2142043113708496,1.3295127153396606
1761370228567845000,9.23784521484375,-4.021275997161865,-4.229643821716309,1.1932792663574219
1761370228586456800,9.256456787109375,-3.4572815895080566,-3.844072103500366,0.9822643995285034
1761370228605067300,9.2750673828125,-2.7832069396972656,-2.1269161701202393,0.37975621223449707
1761370228623679000,9.293678955078125,-1.178727149963379,-1.0231022834777832,0.1428298056125641
1761370228642289400,9.312289306640626,1.9942502975463867,0.30571794509887695,-1.1909406185150146
1761370228660901400,9.3309013671875,4.376555919647217,1.283231258392334,-1.7564212083816528
1761370228679511600,9.349511474609375,5.892333984375,2.826756477355957,-2.0454261302948
1761370228698123500,9.36812353515625,6.825162887573242,3.378262519836426,-1.347461223602295
1761370228716733700,9.386733642578125,6.33588171005249,3.8607726097106934,-1.8117833137512207
1761370228735345700,9.405345703125,5.6541523933410645,5.297276973724365,-2.9844658374786377
1761370228753955800,9.423955810546875,5.457821846008301,6.418850898742676,-3.8757922649383545
1761370228772567800,9.44256787109375,6.112490653991699,5.4812822341918945,-1.770761489868164
1761370228791178000,9.461177978515625,6.357593536376953,3.8858866691589355,1.5621509552001953
1761370228809790000,9.4797900390625,4.737598419189453,1.7042732238769531,3.6004638671875
1761370228828400000,9.498400146484375,2.0877084732055664,-0.6010026931762695,2.612177848815918
1761370228847012000,9.51701220703125,0.5966281890869141,-0.6392674446105957,-0.55872642993927
1761370228865622500,9.53562255859375,-0.3871917724609375,-0.6787924766540527,-1.5453321933746338
1761370228884234200,9.554234130859374,-1.3333234786987305,-0.6420712471008301,-0.9772505760192871
1761370228902844700,9.5728447265625,-2.0663719177246094,-0.7233133316040039,0.08286255598068237
1761370228921456400,9.591456298828126,-2.889859676361084,-0.9404597282409668,0.3837738633155823
1761370228940066800,9.61006689453125,-3.7562613487243652,-1.589893102645874,0.502407968044281
1761370228958678500,9.628678466796876,-4.355804920196533,-2.1671056747436523,0.32719528675079346
1761370228977289000,9.6472890625,-5.242315292358398,-2.8094635009765625,0.6428656578063965
1761370228995901000,9.66590087890625,-6.054266929626465,-3.4623425006866455,1.1002081632614136
1761370229014511000,9.684510986328124,-6.6732177734375,-3.694561004638672,1.0498414039611816
1761370229033123000,9.703123046875,-6.845424652099609,-3.8513925075531006,0.8449605703353882
1761370229051733200,9.721733154296874,-6.532677173614502,-4.238930702209473,0.6003557443618774
1761370229070345200,9.74034521484375,-5.6211652755737305,-4.482571125030518,0.5032832622528076
1761370229088955400,9.758955322265624,-4.523889541625977,-4.591991424560547,0.8199632167816162
1761370229107567400,9.7775673828125,-3.3945698738098145,-4.274998664855957,0.8855364918708801
1761370229126177500,9.796177490234374,-2.384024143218994,-3.114307403564453,0.25161904096603394
1761370229144789500,9.81478955078125,-2.2836694717407227,-1.7823724746704102,0.3204818367958069
1761370229163399700,9.833399658203126,-2.1451220512390137,0.47735118865966797,1.633086919784546
1761370229182011600,9.85201171875,0.026079654693603516,3.8855671882629395,0.6504680514335632
1761370229200622000,9.8706220703125,2.9607934951782227,5.263419151306152,-1.7571616172790527
1761370229219233800,9.88923388671875,4.711913108825684,3.8071980476379395,-1.9467167854309082
1761370229237844200,9.90784423828125,5.165235996246338,4.1728363037109375,-1.2366775274276733
1761370229256456200,9.926456298828125,4.201188564300537,6.393397331237793,-1.9046087265014648
1761370229275066400,9.94506640625,3.4318203926086426,8.864802360534668,-2.724423408508301
1761370229293678000,9.963677978515625,1.9126901626586914,7.894962787628174,-0.6039136052131653
1761370229312288500,9.98228857421875,0.7255849838256836,3.9372220039367676,2.8821961879730225
1761370229330900500,10.000900390625,0.1362600326538086,0.931032657623291,3.4345498085021973
1761370229349510700,10.0195107421875,0.13002920150756836,-0.16152381896972656,2.165462017059326
1761370229368122600,10.03812255859375,0.7131986618041992,0.5165829658508301,2.1456382274627686
1761370229386732800,10.05673291015625,1.7296180725097656,-0.006874561309814453,2.064934253692627
1761370229405344800,10.0753447265625,2.3150196075439453,-0.5840063095092773,0.04889547824859619
1761370229423955000,10.093954833984375,2.104146957397461,-1.1501338481903076,-1.6130149364471436
1761370229442567000,10.11256689453125,1.4320354461669922,-1.3700051307678223,-2.024033546447754
1761370229461177000,10.131177001953125,-0.07393074035644531,-1.7077298164367676,-1.4838547706604004
1761370229479789000,10.1497890625,-2.100372314453125,-1.8990859985351562,-0.9073540568351746
1761370229498399500,10.1683994140625,-3.667710781097412,-2.2127504348754883,-0.5877646207809448
1761370229517011200,10.18701123046875,-4.5121750831604,-2.549182415008545,-0.4202914834022522
1761370229535621600,10.20562158203125,-4.619937896728516,-2.7384212017059326,-0.44377103447914124
1761370229554233300,10.2242333984375,-4.614245414733887,-3.280599594116211,0.10414350032806396
1761370229572843800,10.24284375,-4.298961639404297,-3.683271884918213,0.7504798173904419
1761370229591455700,10.261455810546876,-3.8570785522460938,-3.821085214614868,1.0011589527130127
1761370229610066000,10.28006591796875,-3.2905941009521484,-2.860727548599243,0.6625280380249023
1761370229628678000,10.298677978515625,-2.671473503112793,-1.8105096817016602,1.2270832061767578
1761370229647288000,10.3172880859375,-1.82420015335083,-1.0058388710021973,1.2878074645996094
1761370229665900000,10.335900146484375,-0.7477812767028809,-0.1755380630493164,-0.5716500282287598
1761370229684510200,10.35451025390625,0.7291836738586426,1.6923637390136719,-2.391385555267334
1761370229712427500,10.382427490234376,3.777775764465332,4.512269020080566,-1.4676111936569214
1761370229731038000,10.401037841796875,5.492288589477539,5.309590816497803,-0.6852179765701294
1761370229749650000,10.41964990234375,6.222958564758301,7.013154029846191,-1.2226240634918213
1761370229768260000,10.438260009765624,5.633556365966797,7.599396705627441,-0.7652950286865234
1761370229786872000,10.4568720703125,4.219790458679199,7.65441370010376,0.45685672760009766
1761370229805482200,10.475482177734374,4.5490851402282715,7.777987957000732,0.4528842568397522
1761370229824094200,10.49409423828125,4.999755859375,4.70334529876709,1.9922785758972168
1761370229842704400,10.512704345703124,4.819266319274902,1.6623215675354004,2.084533214569092
1761370229861316400,10.53131640625,3.6899213790893555,0.051662445068359375,1.5013433694839478
1761370229879926800,10.5499267578125,1.7491264343261719,-0.47303009033203125,1.6468849182128906
1761370229898538500,10.56853857421875,-0.3276090621948242,-1.0513954162597656,1.0930365324020386
1761370229917149000,10.58714892578125,-2.3815131187438965,-1.784804105758667,-0.7745314240455627
1761370229935760600,10.6057607421875,-3.9635567665100098,-2.537456512451172,-2.2951974868774414
1761370229954371000,10.62437109375,-4.941292762756348,-2.875448703765869,-2.670081377029419
1761370229972982800,10.642982666015625,-5.157574653625488,-2.640657901763916,-2.1923751831054688
1761370229991593200,10.66159326171875,-5.046627521514893,-2.874934196472168,-0.7550516724586487
1761370230010205200,10.680205078125,-4.865653991699219,-3.0731163024902344,0.19621169567108154
1761370230028815400,10.6988154296875,-5.215399265289307,-3.5075018405914307,0.6538889408111572
1761370230047427300,10.71742724609375,-5.638099193572998,-3.9116971492767334,0.4917222857475281
1761370230066037500,10.73603759765625,-5.280662536621094,-4.633781433105469,0.30769920349121094
1761370230084649500,10.7546494140625,-4.28120231628418,-5.485851287841797,0.3487163186073303
1761370230103259600,10.773259765625,-2.369076728820801,-4.17305850982666,-0.946800708770752
1761370230121871600,10.79187158203125,-0.6704955101013184,-3.049325942993164,-0.9263036251068115
1761370230140482000,10.81048193359375,0.18988656997680664,-1.8407106399536133,-0.9603188037872314
1761370230159093800,10.82909375,0.9388103485107422,0.2335038185119629,-1.5417484045028687
1761370230177704200,10.8477041015625,1.7910866737365723,2.135910987854004,-0.49306219816207886
1761370230196316000,10.86631591796875,2.8662548065185547,3.613201141357422,0.9376229643821716
1761370230214926300,10.88492626953125,3.697495460510254,3.1545028686523438,1.5657225847244263
1761370230233538000,10.9035380859375,3.6214823722839355,3.2057552337646484,-0.3349190652370453
1761370230252148500,10.9221484375,3.245406150817871,5.767779350280762,-1.9672189950942993
1761370230270760400,10.940760498046876,2.157320976257324,7.536240100860596,-2.4060568809509277
1761370230289370600,10.95937060546875,1.4330048561096191,5.902527809143066,0.1410302221775055
1761370230307982600,10.977982666015626,1.2806224822998047,4.676573753356934,2.1248373985290527
1761370230326592800,10.9965927734375,0.038317203521728516,1.4381842613220215,3.900334119796753
1761370230345204700,11.015204833984376,-0.9331264495849609,-1.2031192779541016,2.691253900527954
1761370230363815000,11.03381494140625,0.16754817962646484,-1.6771149635314941,0.5185635685920715
