time,seconds_elapsed,z,y,x
1761370219513561900,0.183561767578125,-0.5961869359016418,3.205268383026123,-2.5357797145843506
1761370219532172000,0.202172119140625,-0.4960079789161682,3.5510077476501465,-2.4368224143981934
1761370219550783700,0.22078369140625,-0.26755109429359436,2.672609567642212,-1.764890432357788
1761370219569394200,0.239394287109375,0.17470231652259827,1.4325895309448242,-0.7478297352790833
1761370219588006000,0.258005859375,0.6109235882759094,-0.03840702027082443,0.2656421959400177
1761370219606616000,0.276615966796875,0.983540415763855,-2.0842108726501465,0.9455152153968811
1761370219625228000,0.29522802734375,0.979875385761261,-4.880745887756348,1.1458730697631836
1761370219643838200,0.313838134765625,0.5509842038154602,-6.145199775695801,0.8978691101074219
1761370219662450000,0.332449951171875,-0.10873081535100937,-5.130582332611084,0.6156576871871948
1761370219681060400,0.351060302734375,-0.34818294644355774,-2.9986491203308105,0.059175826609134674
1761370219699672000,0.369672119140625,-0.29259583353996277,-0.4372902810573578,-0.6140542030334473
1761370219718282200,0.3882822265625,-0.004275931045413017,1.8497982025146484,-1.0923476219177246
1761370219736894200,0.406894287109375,0.22662433981895447,3.0452263355255127,-1.0728005170822144
1761370219755504400,0.42550439453125,0.23945212364196777,2.6891024112701416,-0.9011524319648743
1761370219774116400,0.444116455078125,0.2522799074649811,1.3867759704589844,-0.9854493141174316
1761370219792726500,0.4627265625,0.27060532569885254,0.15156647562980652,-1.1742011308670044
1761370219811338200,0.481338134765625,0.13744063675403595,-1.426252007484436,-1.3739482164382935
1761370219829948700,0.49994873046875,0.09284878522157669,-3.3401129245758057,-1.5065020322799683
1761370219848560400,0.518560302734375,0.36162158846855164,-4.479419231414795,-0.8516737818717957
1761370219867170800,0.5371708984375,0.8570950627326965,-4.609529972076416,0.5753417611122131
1761370219885782500,0.555782470703125,1.2565891742706299,-1.8985133171081543,2.0914647579193115
1761370219904392700,0.574392822265625,0.9157363772392273,-1.2197855710983276,2.71094012260437
1761370219923004700,0.593004638671875,-0.8209787011146545,-3.4873270988464355,1.5856831073760986
1761370219941614800,0.61161474609375,-0.8936695456504822,-3.3022403717041016,1.1892433166503906
1761370219960226800,0.630226806640625,-0.5613686442375183,-2.724989652633667,0.8025769591331482
1761370219978837000,0.6488369140625,-0.5399889945983887,-2.0035789012908936,0.4195757210254669
1761370219997448700,0.66744873046875,-0.8179244995117188,-1.1727503538131714,-0.11438114941120148
1761370220016059100,0.68605908203125,-0.8356390595436096,-0.46783265471458435,-0.6513158679008484
1761370220034670800,0.7046708984375,-0.5882459282875061,-0.020692450925707817,-1.2774343490600586
1761370220053281000,0.723281005859375,-0.07269082218408585,-0.30962321162223816,-2.022057056427002
1761370220071893000,0.74189306640625,0.1979145109653473,-0.7842515110969543,-2.6757400035858154
1761370220090503200,0.760503173828125,-0.011606098152697086,-1.207568645477295,-3.035529136657715
1761370220109115100,0.779115234375,-0.30786702036857605,-1.3199645280838013,-3.1699154376983643
1761370220127725300,0.797725341796875,-0.4715740978717804,-1.4183109998703003,-3.811915874481201
1761370220146337000,0.8163369140625,-0.4874561131000519,-0.7451573014259338,-4.814316272735596
1761370220164947500,0.834947509765625,-0.34696123003959656,0.09109259396791458,-5.4344024658203125
1761370220183559200,0.85355908203125,-0.08002099394798279,0.4441623091697693,-5.017728328704834
1761370220202169600,0.872169677734375,0.19974705576896667,0.2877854108810425,-3.6616475582122803
1761370220220781300,0.89078125,0.3781144618988037,0.20287764072418213,-1.7606145143508911
1761370220239391500,0.9093916015625,0.3176405727863312,-0.09216158092021942,0.012751436792314053
1761370220258003500,0.92800341796875,0.11178504675626755,-0.6523085236549377,1.1727503538131714
1761370220276613600,0.946613525390625,-0.0390942245721817,-0.8838196396827698,1.8349088430404663
1761370220295225600,0.9652255859375,-0.1050657257437706,-0.782418966293335,1.92531418800354
1761370220313835800,0.983835693359375,-0.17714570462703705,-0.32367268204689026,1.6095061302185059
1761370220332447500,1.002447509765625,-0.11545012891292572,0.26212984323501587,1.2649883031845093
1761370220351058000,1.021057861328125,0.04581354558467865,0.8216659426689148,1.1721395254135132
1761370220369669600,1.039669677734375,0.1569877415895462,1.0177478790283203,1.2124555110931396
1761370220388280000,1.058280029296875,0.3011476993560791,0.8980218172073364,1.3737190961837769
1761370220406891800,1.076891845703125,0.4037700295448303,0.6145886778831482,1.7109068632125854
1761370220425502200,1.095502197265625,0.12339114397764206,0.4325562119483948,2.055424690246582
1761370220444114000,1.114114013671875,-0.46729815006256104,-0.021914144977927208,2.162933826446533
1761370220462724000,1.13272412109375,-0.8020424246788025,0.09659022092819214,2.2197425365448
1761370220481336000,1.151336181640625,-0.5638120174407959,0.775852382183075,2.365124225616455
1761370220499946200,1.1699462890625,0.182643324136734,1.017137050628662,2.095740556716919
1761370220518558200,1.18855810546875,0.6817818880081177,0.19004985690116882,1.1379320621490479
1761370220537168400,1.20716845703125,0.390942245721817,-1.4036506414413452,-0.5725166201591492
1761370220555780000,1.225780029296875,-0.20096874237060547,-1.5619364976882935,-1.9805195331573486
1761370220574390500,1.244390625,-0.1985253542661667,0.01046075951308012,-2.4258272647857666
1761370220593002200,1.263002197265625,0.1850867122411728,1.6695982217788696,-2.4869120121002197
1761370220611612700,1.28161279296875,0.12094775587320328,1.8583500385284424,-2.992158889770508
1761370220630224400,1.300224365234375,-0.24067382514476776,0.9273424744606018,-3.2798678874969482
1761370220648834800,1.318834716796875,-0.518609344959259,-0.20211409032344818,-2.969557523727417
1761370220667446500,1.337446533203125,-0.5845808386802673,-1.065852165222168,-2.4899661540985107
1761370220686056700,1.356056640625,-0.5326588153839111,-1.0151517391204834,-1.9707459211349487
1761370220704668700,1.374668701171875,-0.5137225389480591,-0.15446799993515015,-1.3531793355941772
1761370220723278800,1.39327880859375,-0.42392799258232117,0.6261947751045227,-0.672695517539978
1761370220741890800,1.411890869140625,-0.13744063675403595,0.8039513230323792,0.09765920788049698
1761370220760501000,1.4305009765625,0.23273280262947083,0.5302917957305908,0.8490013480186462
1761370220779113000,1.449113037109375,0.4850127100944519,0.23830679059028625,1.4024289846420288
1761370220797723100,1.46772314453125,0.5149442553520203,0.053830914199352264,1.6657041311264038
1761370220816334800,1.4863349609375,0.32130566239356995,0.014125842601060867,1.652876377105713
1761370220834945300,1.5049453125,0.01954711228609085,0.2969481348991394,1.5643035173416138
1761370220853557000,1.523556884765625,-0.20035789906978607,0.586489737033844,1.5905698537826538
1761370220872167400,1.54216748046875,-0.28343313932418823,0.6689541339874268,1.792149543762207
1761370220890779100,1.560779052734375,-0.258999228477478,0.5461738109588623,1.8672837018966675
1761370220909389600,1.5793896484375,-0.1985253542661667,0.05077667906880379,1.7463359832763672
1761370220928001300,1.598001220703125,-0.25533416867256165,-0.5020400881767273,1.4329713582992554
1761370220946611700,1.61661181640625,-0.6951441764831543,-0.7653152346611023,1.2949198484420776
1761370220965223400,1.635223388671875,-1.336533784866333,-1.2442195415496826,1.3676106929779053
1761370220983833600,1.65383349609375,-2.2443292140960693,-1.3999855518341064,1.3981530666351318
1761370221002445600,1.672445556640625,-3.0518691539764404,-1.4721418619155884,1.184967279434204
1761370221021055700,1.6910556640625,-3.119673252105713,-1.29736328125,0.8050203323364258
1761370221039667500,1.70966748046875,-2.1472043991088867,-1.0579110383987427,-0.004428642801940441
1761370221058278000,1.72827783203125,-0.32008397579193115,-1.142818808555603,-1.2114628553390503
1761370221076889600,1.7468896484375,1.0281323194503784,-0.6199336051940918,-2.4887444972991943
1761370221095500000,1.7655,1.2352094650268555,0.44843825697898865,-3.033085823059082
1761370221114111700,1.78411181640625,0.7153785228729248,1.0208021402359009,-2.7881360054016113
1761370221132722200,1.80272216796875,0.0390942245721817,0.8387696146965027,-1.9029419422149658
1761370221151334000,1.821333984375,-0.38788801431655884,0.29145050048828125,-0.7301151752471924
1761370221169944300,1.8399443359375,-0.4318690001964569,-0.4745519757270813,0.20272493362426758
1761370221188556000,1.85855615234375,-0.25655585527420044,-1.1562575101852417,0.6333722472190857
1761370221207166200,1.877166259765625,-0.08796200156211853,-1.2930872440338135,0.8691592812538147
1761370221225778200,1.895778076171875,0.03298575058579445,-0.9949938058853149,0.8728243708610535
1761370221244388400,1.914388427734375,0.2241809368133545,-0.5057051777839661,0.6480326056480408
1761370221263000300,1.933000244140625,0.4214846193790436,-0.37742725014686584,0.2919086217880249
1761370221281610500,1.951610595703125,0.5015056133270264,-0.23509983718395233,0.043293800204992294
1761370221300222500,1.970222412109375,0.4343124032020569,0.08498412370681763,0.019470756873488426
1761370221318832600,1.98883251953125,0.12094775587320328,0.42217180132865906,0.12881241738796234
1761370221337444600,2.007444580078125,-0.30969956517219543,0.6768951416015625,0.19234053790569305
1761370221356054800,2.0260546875,-0.6487197875976562,0.8204442262649536,0.13919681310653687
1761370221374666500,2.04466650390625,-0.7696675658226013,0.8577058911323547,0.08666395395994186
1761370221393277000,2.06327685546875,-0.7348492741584778,0.7605811953544617,0.20944425463676453
1761370221411888600,2.081888671875,-0.6493306159973145,0.586489737033844,0.4898231327533722
1761370221430499000,2.1004990234375,-0.6389462351799011,0.4398863911628723,0.8459470868110657
1761370221449110800,2.11911083984375,-0.6823163628578186,0.2841203212738037,1.0664629936218262
1761370221467721200,2.13772119140625,-0.7379034757614136,0.18577392399311066,1.1996276378631592
1761370221486333000,2.1563330078125,-0.5540384650230408,0.2731250822544098,1.4836716651916504
1761370221504943400,2.174943359375,-0.22723518311977386,0.4178958833217621,1.4335821866989136
1761370221523555000,2.19355517578125,-0.4349232614040375,0.540065348148346,0.6920135617256165
1761370221542165500,2.21216552734375,-1.0201148986816406,1.2749909162521362,-0.6012263894081116
1761370221560777200,2.230777099609375,-1.0897514820098877,1.7667230367660522,-2.1185710430145264
1761370221579387400,2.249387451171875,-0.6694886088371277,1.4515258073806763,-3.7929797172546387
1761370221597999400,2.267999267578125,0.19058434665203094,1.514443039894104,-5.391032695770264
1761370221616609500,2.286609619140625,1.0415709018707275,1.6366125345230103,-6.146650314331055
1761370221635221500,2.305221435546875,1.160075306892395,1.0501227378845215,-5.388588905334473
1761370221653831700,2.323831787109375,0.45508119463920593,0.6713975071907043,-3.5981194972991943
1761370221672443400,2.342443359375,-0.5668662786483765,0.004963133949786425,-1.8039846420288086
1761370221691053800,2.3610537109375,-1.3805148601531982,-1.0230927467346191,-0.5682406425476074
1761370221709665500,2.37966552734375,-1.5698775053024292,-1.73969304561615,0.27358320355415344
1761370221728276000,2.39827587890625,-1.152668833732605,-1.8704142570495605,0.6846834421157837
1761370221746887700,2.4168876953125,-0.4825693368911743,-1.329127311706543,0.7573742270469666
1761370221765498000,2.435498046875,0.3903313875198364,-0.6779640913009644,0.7598176598548889
1761370221784109800,2.45410986328125,1.4093009233474731,-0.2515927255153656,0.8557206392288208
1761370221802720300,2.47272021484375,2.014650583267212,-0.09093988686800003,1.194740891456604
1761370221821332000,2.49133203125,2.1698057651519775,0.009239064529538155,1.628442406654358
1761370221839942400,2.5099423828125,1.9505116939544678,0.2816769480705261,1.796425461769104
1761370221858554000,2.52855419921875,1.4618338346481323,0.6072585582733154,1.6479895114898682
1761370221877164500,2.54716455078125,0.9786536693572998,1.0855519771575928,1.2765944004058838
1761370221895776300,2.5657763671875,0.7850151062011719,1.2920947074890137,0.7561525702476501
1761370221914386400,2.584386474609375,0.8363262414932251,1.0678373575210571,0.16912832856178284
1761370221932998400,2.602998291015625,1.0098068714141846,1.0391275882720947,-0.435075968503952
1761370221951608600,2.621608642578125,1.2345986366271973,1.6072918176651,-0.6293253898620605
1761370221970220500,2.640220458984375,1.2260468006134033,2.103299856185913,-0.06734590977430344
1761370221988830700,2.658830810546875,1.0018658638000488,2.4869120121002197,1.3272947072982788
1761370222007442700,2.677442626953125,0.7068266272544861,1.3776133060455322,2.7201027870178223
1761370222026052900,2.696052978515625,0.14904673397541046,-0.15568970143795013,3.4812185764312744
1761370222044664800,2.714664794921875,-0.5100574493408203,-1.508792757987976,3.5478007793426514
1761370222063275000,2.73327490234375,-0.6927008032798767,-2.5649476051330566,2.4219329357147217
1761370222081886700,2.75188671875,-0.10201149433851242,-2.4861483573913574,0.06528430432081223
1761370222100497200,2.7704970703125,0.9035194516181946,-1.3303489685058594,-2.3048794269561768
1761370222119108900,2.78910888671875,1.520475149154663,-0.90336674451828,-3.637824535369873
1761370222137719300,2.80771923828125,1.4575579166412354,-0.7488223910331726,-4.128945827484131
1761370222156331000,2.8263310546875,0.747753381729126,-1.0866209268569946,-4.135054111480713
1761370222174941400,2.84494140625,-0.004275931045413017,-1.3224079608917236,-3.8467342853546143
1761370222193553200,2.86355322265625,-0.5399889945983887,-1.1678636074066162,-3.5083248615264893
1761370222212163600,2.88216357421875,-0.9700254201889038,-0.8978691101074219,-2.980552911758423
1761370222230775300,2.900775390625,-1.3383663892745972,-0.9693382382392883,-2.09780216217041
1761370222249385700,2.9193857421875,-1.5472761392593384,-1.4183109998703003,-0.9445225596427917
1761370222267997400,2.93799755859375,-1.4251066446304321,-2.0206828117370605,0.1605764776468277
1761370222286608000,2.95660791015625,-0.8264763355255127,-2.1538474559783936,0.8911498188972473
1761370222305219600,2.975219482421875,-0.007330167107284069,-1.6120258569717407,1.4091482162475586
1761370222323830000,2.993830078125,0.7581378221511841,-0.8606074452400208,2.0199954509735107
1761370222342441700,3.012441650390625,1.1655728816986084,-0.41407808661460876,2.544713258743286
1761370222361052000,3.031052001953125,1.2455939054489136,-0.09399411827325821,2.8074541091918945
1761370222379664000,3.049663818359375,1.1130400896072388,0.4295019805431366,2.823336124420166
1761370222398274000,3.068274169921875,1.0336298942565918,1.0892170667648315,2.6803977489471436
1761370222416886000,3.086885986328125,1.1985586881637573,1.5865230560302734,2.535550594329834
1761370222435496200,3.10549609375,1.4746615886688232,1.6708199977874756,2.408494472503662
1761370222454108200,3.124108154296875,1.5815598964691162,1.2560546398162842,2.338857889175415
1761370222472718300,3.14271826171875,1.2010021209716797,0.6158103942871094,2.3290841579437256
1761370222491330300,3.161330322265625,0.3274141252040863,-0.22288289666175842,2.472022533416748
1761370222509940500,3.1799404296875,-0.8197570443153381,-1.0939511060714722,2.532496452331543
1761370222528552200,3.19855224609375,-1.462368369102478,-1.3578370809555054,2.096351385116577
1761370222547162600,3.21716259765625,-1.45198392868042,-1.023703694343567,1.097616195678711
1761370222565774300,3.2357744140625,-0.735460102558136,-0.007253811229020357,-0.027029991149902344
1761370222584384800,3.254384765625,0.3823903799057007,0.5932090282440186,-0.8669449687004089
1761370222602996500,3.27299658203125,1.076389193534851,0.12163496017456055,-1.6702091693878174
1761370222621607000,3.29160693359375,0.7263737320899963,0.09781191498041153,-2.3396975994110107
1761370222640218600,3.310218505859375,0.5485408306121826,0.43744298815727234,-2.196148633956909
1761370222658829000,3.3288291015625,0.7966212034225464,0.8919133543968201,-1.8052064180374146
1761370222677440800,3.347440673828125,1.3524922132492065,1.4136532545089722,-1.3910518884658813
1761370222696051200,3.36605126953125,1.5986636877059937,1.5309358835220337,-1.1296093463897705
1761370222714663000,3.384662841796875,1.6194324493408203,1.5138322114944458,-0.9445225596427917
1761370222733273300,3.4032734375,1.3414969444274902,1.2817102670669556,-0.51998370885849
1761370222751885000,3.421885009765625,0.7837933897972107,0.9487221240997314,-0.08994726091623306
1761370222770495500,3.44049560546875,0.15271180868148804,0.5370110869407654,-0.1882936656475067
1761370222789107200,3.459107177734375,-0.19974705576896667,0.31710609793663025,-0.5804576277732849
1761370222807717600,3.477717529296875,-0.20341213047504425,0.29328304529190063,-0.7447755336761475
1761370222826329300,3.496329345703125,0.05619794875383377,0.431334525346756,-0.5309789776802063
1761370222844939800,3.514939697265625,0.5662553906440735,0.48997586965560913,0.05184566229581833
1761370222863551500,3.533551513671875,0.7960103154182434,0.2957264184951782,0.7115607261657715
1761370222882162000,3.552161865234375,0.45141613483428955,-0.05673243850469589,1.0884534120559692
1761370222900773600,3.570773681640625,0.03176405653357506,-0.4116346836090088,1.379827618598938
1761370222919383800,3.5893837890625,-0.06291726976633072,-0.7421030402183533,1.745725154876709
1761370222937995800,3.607995849609375,0.021990500390529633,-0.7921925187110901,2.20324969291687
1761370222956606000,3.62660595703125,0.025655584409832954,-0.43057096004486084,2.6271777153015137
1761370222975218000,3.645218017578125,-0.08551861345767975,0.21570543944835663,3.0126986503601074
1761370222993828000,3.663828125,-0.29565006494522095,0.8760313391685486,3.4964897632598877
1761370223012440000,3.682440185546875,-0.6126797795295715,1.1362522840499878,4.206294059753418
1761370223031050200,3.70105029296875,-0.261442631483078,1.0977689027786255,4.266767978668213
1761370223049662200,3.719662109375,0.6683432459831238,0.854040801525116,2.5899159908294678
1761370223068272400,3.7382724609375,1.3647091388702393,0.6775059700012207,0.6645254492759705
1761370223086884400,3.75688427734375,1.2272684574127197,-0.20272493362426758,-0.3080197274684906
1761370223105494500,3.77549462890625,0.6799493432044983,-1.0915076732635498,-0.9561286568641663
1761370223124106500,3.7941064453125,0.09895725548267365,-1.272929310798645,-2.074589967727661
1761370223142716700,3.812716552734375,-0.16065283119678497,-0.26991814374923706,-3.0471351146698
1761370223161328600,3.83132861328125,-0.2858765125274658,0.3763582706451416,-3.1735806465148926
1761370223179938800,3.849938720703125,-0.4092676639556885,0.1393495351076126,-2.730105400085449
1761370223198550500,3.868550537109375,-0.6639909744262695,-0.6345939636230469,-2.1100192070007324
1761370223217161000,3.887160888671875,-1.0506572723388672,-1.1953517198562622,-1.3458492755889893
1761370223235772700,3.905772705078125,-1.3072131872177124,-1.379827618598938,-0.6061131954193115
1761370223254383000,3.924383056640625,-1.4128897190093994,-1.2344459295272827,0.052456509321928024
1761370223272994800,3.942994873046875,-1.6217994689941406,-1.0084325075149536,0.6889593601226807
1761370223291605200,3.961605224609375,-1.9088976383209229,-1.0707389116287231,1.2778160572052002
1761370223310217000,3.980217041015625,-2.103834390640259,-1.032866358757019,1.771991491317749
1761370223328827400,3.998827392578125,-2.1178839206695557,-0.8532772660255432,2.133002281188965
1761370223347439000,4.017439208984375,-2.1239922046661377,-0.8129613399505615,2.2789947986602783
1761370223366049500,4.036049560546875,-2.197293996810913,-0.9070318341255188,2.109790086746216
1761370223384661200,4.0546611328125,-2.188742160797119,-0.8850412964820862,1.563692569732666
1761370223403271700,4.073271728515625,-2.048781633377075,-0.5600705742835999,0.7378271222114563
1761370223421883400,4.09188330078125,-1.9076759815216064,0.15828579664230347,0.11842801421880722
1761370223440493800,4.110493896484375,-1.8447587490081787,0.8021187782287598,-0.1498102843761444
1761370223459105500,4.12910546875,-1.8105512857437134,1.1704597473144531,-0.2279987335205078
1761370223477716000,4.147716064453125,-1.5607147216796875,1.2676607370376587,-0.12904147803783417
1761370223496327700,4.16632763671875,-1.2125318050384521,1.260941505432129,0.09338327497243881
1761370223514938000,4.184938232421875,-0.8270871639251709,1.0605071783065796,0.5276956558227539
1761370223533549800,4.2035498046875,-0.3805578351020813,0.20837527513504028,1.2381110191345215
1761370223552160300,4.22216015625,-0.29687178134918213,-0.8459470868110657,2.1262829303741455
1761370223570772000,4.24077197265625,-0.6988092660903931,-1.4213652610778809,2.7695815563201904
1761370223589382100,4.259382080078125,-1.0494356155395508,-1.4250303506851196,2.669326066970825
1761370223607994000,4.277994140625,-0.8002098798751831,-1.596754789352417,1.7261780500411987
1761370223626604300,4.296604248046875,-0.237008735537529,-2.4403347969055176,-0.3574983477592468
1761370223645216300,4.31521630859375,0.6341357827186584,-2.5814404487609863,-2.9390151500701904
1761370223663826400,4.333826416015625,1.201612949371338,-1.0536351203918457,-4.1454386711120605
1761370223682438400,4.3524384765625,1.502760648727417,0.3268796503543854,-4.181478500366211
1761370223701048600,4.371048583984375,1.7214438915252686,0.3885752260684967,-3.562690258026123
1761370223719660500,4.38966064453125,1.8955353498458862,-0.699954628944397,-2.6867353916168213
1761370223738270700,4.408270751953125,1.91386079788208,-1.4085373878479004,-1.8461331129074097
1761370223756882700,4.426882568359375,1.8240662813186646,-1.2234506607055664,-1.0868499279022217
1761370223775492900,4.445492919921875,1.7751984596252441,-0.6242095232009888,-0.5242596864700317
1761370223794104800,4.464104736328125,1.8656039237976074,-0.14469444751739502,-0.23471805453300476
1761370223812715000,4.482715087890625,1.9810540676116943,0.06788039952516556,0.019470756873488426
1761370223831326700,4.50132666015625,2.049468994140625,0.023288551717996597,0.30962321162223816
1761370223849937200,4.519937255859375,2.0800113677978516,0.12530004978179932,0.671855628490448
1761370223868548900,4.538548828125,2.150258779525757,0.29267218708992004,1.0847883224487305
1761370223887159300,4.5571591796875,2.1575889587402344,0.3409291207790375,1.476952314376831
1761370223905771000,4.57577099609375,1.9309645891189575,0.38307759165763855,1.6736451387405396
1761370223924381400,4.59438134765625,1.4844352006912231,0.2987806797027588,1.6583739519119263
1761370223942993200,4.6129931640625,0.8118923902511597,0.6066476702690125,1.5191007852554321
1761370223961603600,4.631603515625,0.3017585575580597,0.8045622110366821,1.125104308128357
1761370223980215300,4.65021533203125,0.11972606182098389,1.00797438621521,0.49287739396095276
1761370223998825700,4.66882568359375,0.1056765764951706,0.7892910242080688,-0.409420371055603
1761370224017437400,4.6874375,-0.013438640162348747,0.5736619234085083,-1.0306520462036133
1761370224036048000,4.7060478515625,-0.23823043704032898,0.4160633385181427,-1.108229637145996
1761370224054659600,4.72465966796875,-0.6505523324012756,0.39346200227737427,-0.69651859998703
1761370224073270000,4.74327001953125,-0.8741224408149719,0.586489737033844,-0.1626380831003189
1761370224091881700,4.7618818359375,-0.4844018816947937,0.46309858560562134,-0.05635065957903862
1761370224110492200,4.7804921875,-0.0024433890357613564,-0.20761170983314514,-0.6158867478370667
1761370224129104000,4.799103759765625,0.056808795779943466,-1.1031137704849243,-1.4948959350585938
1761370224147714300,4.81771435546875,-0.4330907166004181,-1.8826313018798828,-2.5681545734405518
1761370224166326000,4.836325927734375,-0.7592831254005432,-1.9070651531219482,-3.843679904937744
1761370224184936400,4.8549365234375,-0.2736595869064331,-1.2344459295272827,-4.604184627532959
1761370224203548200,4.873548095703125,0.5833591222763062,-0.3474957346916199,-4.810040473937988
1761370224222158300,4.892158447265625,1.4221287965774536,1.0049201250076294,-4.08679723739624
1761370224240770300,4.910770263671875,1.8045191764831543,1.9237107038497925,-2.7545392513275146
1761370224259380500,4.92938037109375,1.372650146484375,2.5638787746429443,-1.1375503540039062
1761370224277992400,4.947992431640625,0.6475744247436523,1.8552958965301514,0.2674747407436371
1761370224296602600,4.9666025390625,0.38483378291130066,0.6151995658874512,1.0175951719284058
1761370224315214600,4.985214599609375,0.01588202826678753,-0.35238251090049744,1.4629027843475342
1761370224333824800,5.00382470703125,-0.25594499707221985,-0.9387958645820618,1.8294111490249634
1761370224352436700,5.022436767578125,-0.3115321099758148,-0.9888853430747986,2.1226179599761963
1761370224371047000,5.041046875,-0.31031039357185364,-0.7647044062614441,2.197751998901367
1761370224389659000,5.059658935546875,-0.37506023049354553,-0.37925979495048523,1.8758355379104614
1761370224408269000,5.07826904296875,-0.45019441843032837,0.07398887723684311,1.166031002998352
1761370224426881000,5.096881103515625,-0.418430358171463,0.4160633385181427,0.3560476005077362
1761370224445491200,5.1154912109375,-0.28343313932418823,0.7147676348686218,-0.025197450071573257
1761370224464103200,5.134103271484375,-0.21257483959197998,1.2249014377593994,0.01885990984737873
1761370224482713300,5.15271337890625,-0.22479179501533508,1.5022261142730713,0.21677441895008087
1761370224501325300,5.1713251953125,-0.4587462842464447,0.669564962387085,0.15568970143795013
1761370224519935500,5.189935546875,-1.1086877584457397,-1.6853275299072266,-0.08689302206039429
1761370224538547500,5.20854736328125,-1.9247796535491943,-3.1495285034179688,-0.1656923145055771
1761370224557157600,5.22715771484375,-2.4850029945373535,-3.084167718887329,-0.2725905776023865
1761370224575769600,5.24576953125,-2.219895362854004,-0.9876636862754822,0.19295138120651245
1761370224594379800,5.2643798828125,-1.081810474395752,1.6799826622009277,1.4293062686920166
1761370224612991700,5.28299169921875,0.14171656966209412,3.2669639587402344,2.2362353801727295
1761370224631602000,5.301601806640625,0.5210527181625366,2.8204345703125,1.6931922435760498
1761370224650214000,5.3202138671875,-0.10873081535100937,0.6897228956222534,0.15691138803958893
1761370224668824000,5.338823974609375,-0.990183413028717,-0.3548259139060974,-0.6885775923728943
1761370224687436000,5.35743603515625,-1.4122788906097412,-1.1703070402145386,-0.35200074315071106
1761370224706046200,5.376046142578125,-1.132510781288147,-1.3578370809555054,0.04634803533554077
1761370224724658000,5.394657958984375,-0.7262973785400391,-1.1538140773773193,-0.1375933438539505
1761370224743268400,5.413268310546875,-0.420873761177063,-0.46661093831062317,-0.6696413159370422
1761370224761880000,5.431880126953125,-0.42576053738594055,0.15706409513950348,-1.2927055358886719
1761370224780490500,5.450490478515625,-0.4618005156517029,0.46126604080200195,-1.7404565811157227
1761370224799102200,5.469102294921875,-0.1954711228609085,0.5364002585411072,-1.8070389032363892
1761370224817712600,5.487712646484375,0.21562908589839935,0.5070796012878418,-1.5730843544006348
1761370224836324400,5.506324462890625,0.527161180973053,0.582213819026947,-1.2016892433166504
1761370224854934800,5.524934814453125,0.6536829471588135,0.6225296854972839,-0.6946860551834106
1761370224873546800,5.543546630859375,0.6726191639900208,0.49913856387138367,-0.06306997686624527
1761370224892157000,5.562156982421875,0.43919917941093445,0.17294612526893616,0.6724664568901062
1761370224910769000,5.580768798828125,-0.12827792763710022,-0.16790664196014404,1.142818808555603
1761370224929379000,5.599379150390625,-0.8148702383041382,-0.6144359707832336,1.3553937673568726
1761370224947990800,5.61799072265625,-1.2577345371246338,-1.0627979040145874,1.3761625289916992
1761370224966601200,5.636601318359375,-1.1874871253967285,-0.977890133857727,1.343787670135498
1761370224985213000,5.655212890625,-0.7476770281791687,-0.4385119676589966,1.3572262525558472
1761370225003823400,5.6738232421875,-0.3799470067024231,-0.2143310308456421,1.3779950141906738
1761370225022435000,5.69243505859375,-0.2596100866794586,0.22792237997055054,1.4830608367919922
1761370225041045500,5.71104541015625,-0.5070032477378845,0.24013933539390564,1.8116966485977173
1761370225059657200,5.7296572265625,-0.2229592502117157,-0.24976016581058502,2.110400915145874
1761370225078267600,5.748267578125,0.3573456406593323,0.19127154350280762,2.2276835441589355
1761370225096879400,5.76687939453125,0.8638143539428711,1.048901081085205,1.902101993560791
1761370225115489800,5.78548974609375,1.1625187397003174,1.1942827701568604,1.2735401391983032
1761370225134101800,5.804101806640625,1.2718603610992432,0.4252260625362396,0.6107708811759949
1761370225152712000,5.8227119140625,0.8234984874725342,-0.20822255313396454,-0.19256959855556488
1761370225171323600,5.84132373046875,-0.04337015375494957,0.2859528660774231,-0.9707890152931213
1761370225189934000,5.85993408203125,-0.7745543122291565,0.868701159954071,-2.0666489601135254
1761370225208545800,5.8785458984375,-1.4678659439086914,1.117926836013794,-3.0611846446990967
1761370225227156200,5.89715625,-1.925390601158142,1.1900068521499634,-3.4228062629699707
1761370225245768000,5.915767822265625,-1.9363858699798584,0.8515974283218384,-3.073401689529419
1761370225264378400,5.93437841796875,-1.4507622718811035,0.4942517876625061,-2.210198163986206
1761370225282990000,5.952989990234375,-0.9132166504859924,0.484478235244751,-1.1503781080245972
1761370225301600500,5.9716005859375,-0.45019441843032837,0.61397784948349,-0.16141638159751892
1761370225320212500,5.99021240234375,-0.2492256760597229,0.8485432267189026,0.7359945774078369
1761370225338822700,6.00882275390625,-0.21379654109477997,0.7343147397041321,1.4067049026489258
1761370225357434600,6.0274345703125,-0.13621893525123596,0.4301128387451172,1.8269678354263306
1761370225376044800,6.046044921875,0.007330167107284069,-0.0005344913806766272,2.2417330741882324
1761370225394656500,6.064656494140625,0.12033691257238388,0.3867426812648773,2.742704153060913
1761370225413267000,6.083266845703125,0.1447708010673523,0.983540415763855,3.179460048675537
1761370225431878700,6.101878662109375,0.0030542362947016954,1.1564102172851562,3.3223981857299805
1761370225450489000,6.120489013671875,-0.20219044387340546,1.1765681505203247,3.2765846252441406
1761370225469101000,6.13910107421875,-0.2864873707294464,1.3189719915390015,3.2100024223327637
1761370225487711200,6.157711181640625,-0.2101314514875412,1.330578088760376,3.202061414718628
1761370225506323200,6.1763232421875,0.07391251623630524,0.9969790577888489,3.312013864517212
1761370225524933400,6.194933349609375,0.5430431962013245,0.3390965759754181,3.4317398071289062
1761370225543545300,6.21354541015625,0.45141613483428955,-0.695067822933197,3.474499225616455
1761370225562155500,6.232155517578125,-0.5937435626983643,-1.152592420578003,3.3859262466430664
1761370225580767500,6.250767578125,-1.5796509981155396,-2.0200719833374023,3.0041468143463135
1761370225599377700,6.269377685546875,-1.961430549621582,-2.930845260620117,2.0572571754455566
1761370225617989600,6.28798974609375,-1.9724258184432983,-1.43480384349823,1.3865469694137573
1761370225636599800,6.306599853515625,-1.4635900259017944,0.8748096227645874,0.7482115626335144
1761370225655211800,6.325211669921875,-0.6462764143943787,1.7826050519943237,-0.256708562374115
1761370225673822000,6.343822021484375,-0.19180603325366974,1.0287431478500366,-1.4338111877441406
1761370225692434000,6.362433837890625,-0.05619794875383377,-0.8318976163864136,-2.461256265640259
1761370225711044000,6.381044189453125,-0.1582094430923462,-1.2069578170776367,-2.7600369453430176
1761370225729656000,6.399656005859375,-0.2748812735080719,-0.5234197378158569,-2.6634466648101807
1761370225748266200,6.418266357421875,-0.18997350335121155,-0.18317782878875732,-2.4740841388702393
1761370225766878200,6.436878173828125,0.021990500390529633,-0.2381540685892105,-2.183931589126587
1761370225785488400,6.45548828125,0.4068242609500885,-0.14530529081821442,-1.7410674095153809
1761370225804100400,6.474100341796875,0.618253767490387,-0.32428354024887085,-1.358066201210022
1761370225822710500,6.49271044921875,0.6915554404258728,-0.459280788898468,-1.1430479288101196
1761370225841322500,6.511322509765625,0.637190043926239,-0.18134528398513794,-1.1027320623397827
1761370225859932700,6.5299326171875,0.418430358171463,0.25357797741889954,-0.9280297160148621
1761370225878544600,6.548544677734375,0.3762819170951843,0.23830679059028625,-0.4802786707878113
1761370225897154800,6.56715478515625,0.2229592502117157,0.03245126083493233,0.1330883502960205
1761370225915766800,6.585766845703125,-0.004886778071522713,-0.13675342500209808,0.643756628036499
1761370225934377000,6.604376953125,-0.19302773475646973,-0.13797512650489807,0.8923714756965637
1761370225952989000,6.622989013671875,-0.26877278089523315,0.1814979910850525,0.9650623202323914
1761370225971599400,6.641599365234375,-0.20096874237060547,0.554114818572998,0.9106969237327576
1761370225990211000,6.660211181640625,-0.043981000781059265,0.8998543620109558,0.8868738412857056
1761370226008821500,6.678821533203125,0.183865025639534,0.6206972002983093,1.0524134635925293
1761370226027433200,6.69743310546875,0.2779355049133301,0.42095011472702026,1.3908228874206543
1761370226046043400,6.71604345703125,0.025655584409832954,0.4533250331878662,1.7200695276260376
1761370226064655400,6.7346552734375,-0.41354358196258545,0.2560213506221771,1.8966044187545776
1761370226083265800,6.753265869140625,-0.6462764143943787,-0.43057096004486084,2.0890212059020996
1761370226101877500,6.77187744140625,-0.7702783942222595,-0.621155321598053,2.286935806274414
1761370226120488000,6.790488037109375,-0.9321529269218445,0.7721872925758362,2.0358774662017822
1761370226139099600,6.809099609375,-0.8637380003929138,2.251124858856201,1.2240616083145142
1761370226157710000,6.8277099609375,-0.6823163628578186,2.155221939086914,0.2906869351863861
1761370226176321800,6.84632177734375,-0.5265503525733948,0.7673004865646362,-0.4760027229785919
1761370226194932200,6.86493212890625,-0.26938363909721375,-1.4012072086334229,-1.5394878387451172
1761370226213544000,6.8835439453125,-0.18569757044315338,-2.5032520294189453,-2.5528833866119385
1761370226232154400,6.902154296875,-0.18569757044315338,-1.9223363399505615,-2.790579319000244
1761370226250766000,6.92076611328125,-0.14782503247261047,-0.7048413753509521,-2.294495105743408
1761370226269376500,6.93937646484375,-0.11606097966432571,0.06849125027656555,-1.6103460788726807
1761370226287988200,6.95798828125,0.1325538605451584,-0.03901786729693413,-1.1882506608963013
1761370226306598700,6.9765986328125,0.416597843170166,-0.3835357129573822,-0.8290724158287048
1761370226325210400,6.99521044921875,0.5558710098266602,-0.40430453419685364,-0.42102646827697754
1761370226343820800,7.01382080078125,0.5815265774726868,-0.3291703164577484,-0.11926792562007904
1761370226362432500,7.0324326171875,0.6164212226867676,-0.3548259139060974,0.12942326068878174
1761370226381043000,7.05104296875,0.5632011890411377,-0.6101600527763367,0.3963635265827179
1761370226399654700,7.069654541015625,0.3762819170951843,-0.7879166007041931,0.6651363372802734
1761370226418265000,7.08826513671875,0.15271180868148804,-0.8233457207679749,0.888706386089325
1761370226436876800,7.106876708984375,-0.12461283802986145,-0.7451573014259338,0.9681165218353271
1761370226455487200,7.1254873046875,-0.3158080279827118,-0.39208757877349854,0.9412392973899841
1761370226474099200,7.14409912109375,-0.363454133272171,-0.18928629159927368,0.8453362584114075
1761370226492709400,7.16270947265625,-0.2852656841278076,-0.15568970143795013,0.7714237570762634
1761370226511321300,7.1813212890625,-0.0390942245721817,-0.027411770075559616,0.8819870948791504
1761370226529931500,7.199931640625,0.15087927877902985,-0.04146125912666321,1.1666419506072998
1761370226548543200,7.218543212890625,0.13682979345321655,-0.1587439328432083,1.6321074962615967
1761370226567153700,7.237153564453125,-0.12033691257238388,0.1424037665128708,2.1989738941192627
1761370226585765600,7.255765625,-0.39766156673431396,1.015304446220398,2.564260482788086
1761370226604375800,7.274375732421875,-0.4587462842464447,1.3269129991531372,2.3522963523864746
1761370226622987800,7.29298779296875,-0.288930743932724,0.530902624130249,1.699300765991211
1761370226641598000,7.311597900390625,-0.02748812735080719,-0.7482115626335144,0.9705599546432495
1761370226660210000,7.3302099609375,-0.12400199472904205,-0.8483904600143433,0.4330143630504608
1761370226678820000,7.348820068359375,0.10323318839073181,0.6035934686660767,0.11964970827102661
1761370226697432000,7.36743212890625,0.3921639323234558,0.8803072571754456,-0.4143071472644806
1761370226716042200,7.386042236328125,0.38849884271621704,-0.43057096004486084,-1.3256912231445312
1761370226734654200,7.404654296875,0.017714571207761765,-1.5601038932800293,-2.3849003314971924
1761370226753264400,7.423264404296875,-0.4349232614040375,-0.9223030209541321,-3.238330364227295
1761370226771876400,7.44187646484375,-0.5839699506759644,0.46432027220726013,-3.831463098526001
1761370226790486500,7.460486572265625,-0.3567348122596741,1.3489034175872803,-4.022658348083496
1761370226809098500,7.479098388671875,0.12644538283348083,1.1362522840499878,-3.597508668899536
1761370226827709000,7.497708984375,0.4575245976448059,0.2450261116027832,-2.438654899597168
1761370226846320600,7.516320556640625,0.4312581717967987,-0.6425349712371826,-0.9628480076789856
1761370226864931000,7.53493115234375,0.3536805510520935,-1.1678636074066162,0.2143310308456421
1761370226883542800,7.553542724609375,0.3970507085323334,-1.3517286777496338,0.8789328336715698
1761370226902153200,7.5721533203125,0.5485408306121826,-1.1470948457717896,1.2112337350845337
1761370226920765000,7.590764892578125,0.6567371487617493,-0.6126034259796143,1.4042614698410034
1761370226939375400,7.609375244140625,0.578472375869751,-0.061619218438863754,1.5520864725112915
1761370226957987000,7.627987060546875,0.3524588644504547,0.2969481348991394,1.6229448318481445
1761370226976597500,7.646597412109375,0.09651386737823486,0.33298811316490173,1.6205013990402222
1761370226995209200,7.665209228515625,-0.13866232335567474,0.35436776280403137,1.6033977270126343
1761370227013819600,7.683819580078125,-0.2999260127544403,0.4398863911628723,1.5942349433898926
1761370227032431400,7.702431396484375,-0.33535513281822205,0.428891122341156,1.6192797422409058
1761370227051041800,7.721041748046875,-0.043981000781059265,0.2560213506221771,1.7047983407974243
1761370227069653500,7.739653564453125,0.3542914092540741,0.049554985016584396,1.81413996219635
1761370227088264000,7.758263916015625,0.3683409094810486,-0.006032116711139679,1.7842085361480713
1761370227106875600,7.776875732421875,0.01038440316915512,-0.08910734206438065,1.6321074962615967
1761370227125486000,7.795486083984375,-0.3390202224254608,-0.5105919241905212,1.476952314376831
1761370227144097800,7.814097900390625,-0.2492256760597229,-0.9449043273925781,1.2790378332138062
1761370227162708200,7.832708251953125,-0.07024743407964706,-0.8917606472969055,0.8874847292900085
1761370227181320200,7.8513203125,0.0036650835536420345,0.11063970625400543,0.5454102754592896
1761370227199930400,7.869930419921875,0.10384403169155121,0.9102387428283691,0.2399866133928299
1761370227218542300,7.888542236328125,-0.0922379344701767,0.36902809143066406,-0.5193728804588318
1761370227237152500,7.907152587890625,-0.5925218462944031,-0.3688753843307495,-1.7856591939926147
1761370227255764500,7.925764404296875,-0.9743013978004456,-0.24181915819644928,-3.1265454292297363
1761370227274374700,7.944374755859375,-0.7928797602653503,-0.07261446863412857,-3.946913242340088
1761370227292986600,7.962986572265625,0.05619794875383377,-1.1037245988845825,-3.822911262512207
1761370227311596800,7.9815966796875,0.6206972002983093,-2.3670332431793213,-2.868767738342285
1761370227330208800,8.000208740234376,0.53143709897995,-2.857543468475342,-1.747175931930542
1761370227348819000,8.01881884765625,0.10934165865182877,-2.522799253463745,-0.8687775135040283
1761370227367431000,8.037430908203126,-0.4715740978717804,-1.6071391105651855,-0.3703261613845825
1761370227386041300,8.056041259765625,-0.9132166504859924,-0.3664320111274719,-0.17424418032169342
1761370227404653000,8.074653076171876,-0.9028322696685791,0.454546719789505,-0.30374380946159363
1761370227423263200,8.09326318359375,-0.6713211536407471,0.8399913311004639,-0.5706840753555298
1761370227441875200,8.111875244140625,-0.4593571424484253,1.3507360219955444,-0.6415423154830933
1761370227460485600,8.130485595703124,-0.20280128717422485,1.751451849937439,-0.4515688419342041
1761370227479097300,8.149097412109375,-0.03237490355968475,1.6970864534378052,-0.10094250738620758
1761370227497707800,8.167707763671874,-0.046424392610788345,1.1851199865341187,0.3310028612613678
1761370227516319500,8.186319580078125,-0.22540263831615448,0.46065518260002136,0.7854732275009155
1761370227534930000,8.204929931640624,-0.4159869849681854,-0.05062396824359894,1.2710968255996704
1761370227553541600,8.223541748046875,-0.5583143830299377,-0.07994463294744492,1.7726024389266968
1761370227572152000,8.242152099609376,-0.6444438695907593,0.17172443866729736,2.161712169647217
1761370227590763800,8.260763671875,-0.6872031688690186,0.29206135869026184,2.274718761444092
1761370227609374200,8.279374267578126,-0.7574505805969238,0.05138752609491348,2.1372783184051514
1761370227627986000,8.29798583984375,-0.8124268651008606,-0.5319716334342957,1.9644083976745605
1761370227646596400,8.316596435546876,-0.6908682584762573,-0.6174902319908142,2.073139190673828
1761370227665208300,8.335208251953125,-0.4856235682964325,0.053830914199352264,2.316256523132324
1761370227683818500,8.353818603515625,-0.31947311758995056,0.6506286859512329,2.1892001628875732
1761370227702430500,8.372430419921875,-0.2602209448814392,0.7795174717903137,1.6681475639343262
1761370227721040600,8.39104052734375,-0.23028941452503204,-0.3053472638130188,0.6975111961364746
1761370227739652600,8.409652587890625,-0.47768256068229675,-2.5246317386627197,-0.6867450475692749
1761370227758262800,8.4282626953125,-0.469741553068161,-3.9411864280700684,-2.010451078414917
1761370227776874800,8.446874755859374,-0.32069480419158936,-3.3767635822296143,-3.1393730640411377
1761370227795485000,8.46548486328125,0.23945212364196777,-0.542356014251709,-3.887050151824951
1761370227814097000,8.484096923828124,0.8112815022468567,2.1356747150421143,-4.399550914764404
1761370227832707000,8.50270703125,0.974988579750061,2.9933042526245117,-4.618844985961914
1761370227851319000,8.521319091796874,1.039738416671753,2.0587079524993896,-4.3274712562561035
1761370227869929500,8.539929443359375,0.9377269148826599,0.14667969942092896,-3.42952561378479
1761370227888541200,8.558541259765626,0.6084802150726318,-1.2045143842697144,-2.022057056427002
1761370227907151600,8.577151611328125,0.312142938375473,-1.2698750495910645,-0.673306405544281
1761370227925763300,8.595763427734376,0.14904673397541046,-0.3163425326347351,0.2137201875448227
1761370227944373800,8.614373779296875,0.2644968628883362,0.6573479771614075,0.5747309327125549
1761370227962985500,8.6329853515625,0.49356457591056824,1.0983797311782837,0.5967214107513428
1761370227981596000,8.651595947265625,0.5974085927009583,1.0831085443496704,0.5735092163085938
1761370228000207600,8.67020751953125,0.4679090082645416,0.7953994870185852,0.6706339120864868
1761370228018818000,8.688818115234374,0.23090025782585144,0.5846571922302246,0.9271897673606873
1761370228037429800,8.7074296875,0.10323318839073181,0.4203392565250397,1.253993034362793
1761370228056040200,8.726040283203124,0.16431790590286255,0.3079433739185333,1.5911808013916016
1761370228074652000,8.74465185546875,0.19119518995285034,0.26457321643829346,1.8947718143463135
1761370228093262300,8.763262451171874,0.04337015375494957,0.2755684554576874,2.0419859886169434
1761370228111874300,8.781874267578125,-0.15271180868148804,0.06971294432878494,1.9363094568252563
1761370228130484500,8.800484375,-0.49051034450531006,-0.4085804522037506,1.7897061109542847
1761370228149096400,8.819096435546875,-0.5534276366233826,-0.6608603596687317,1.9967833757400513
1761370228167706600,8.83770654296875,-0.5705313682556152,-0.5539621114730835,2.477520227432251
1761370228186318600,8.856318603515625,-0.9168817400932312,-0.4531722962856293,2.6834518909454346
1761370228204928800,8.8749287109375,-1.0811996459960938,-0.010308047756552696,2.20324969291687
1761370228223540700,8.893540771484375,-0.42392799258232117,0.14484715461730957,0.9284114837646484
1761370228242151000,8.91215087890625,0.2779355049133301,-0.8673267364501953,-0.8663341403007507
1761370228260763000,8.930762939453125,0.6280273199081421,-1.018206000328064,-2.0214462280273438
1761370228279373300,8.949373291015625,0.6781167984008789,-0.5026509165763855,-2.2175283432006836
1761370228297985000,8.967985107421875,0.7056049108505249,0.02695363573729992,-1.806428074836731
1761370228316595500,8.986595458984375,1.1386955976486206,-0.45378315448760986,-1.1888614892959595
1761370228335207200,9.005207275390624,1.5186426639556885,-0.9155836701393127,-0.6989619731903076
1761370228353817600,9.023817626953125,1.6579158306121826,-0.6064949631690979,-0.4674508571624756
1761370228372429300,9.04242919921875,1.5754514932632446,-0.012140588834881783,-0.3953709006309509
1761370228391039700,9.061039794921875,1.1692379713058472,0.5137988924980164,-0.439351886510849
1761370228409651500,9.0796513671875,0.72026526927948,1.0183587074279785,-0.5260922312736511
1761370228428262000,9.098261962890625,0.5815265774726868,1.1936719417572021,-0.5095993280410767
1761370228446873600,9.11687353515625,0.6286382079124451,1.0049201250076294,-0.3312319219112396
1761370228465484000,9.135484130859375,0.5436540842056274,0.8082273006439209,0.034131091088056564
1761370228484096000,9.154095947265626,0.3567348122596741,0.6830036044120789,0.4983749985694885
1761370228502706200,9.1727060546875,0.0910162404179573,0.5186856985092163,0.8538880944252014
1761370228521318100,9.191318115234376,-0.21379654109477997,0.49180838465690613,1.0145409107208252
1761370228539928300,9.20992822265625,-0.47829338908195496,0.5144097208976746,1.0120975971221924
1761370228558540300,9.228540283203126,-0.5821374654769897,0.5437304377555847,0.9754467010498047
1761370228577150500,9.247150390625,-0.6065713167190552,0.6634564995765686,0.9888853430747986
1761370228595762400,9.265762451171875,-0.5265503525733948,1.061728835105896,1.0817341804504395
1761370228614372600,9.28437255859375,-0.5485408306121826,0.9737668633460999,0.9760575890541077
1761370228632984600,9.302984619140625,-0.6163448691368103,0.1656159609556198,0.8416711688041687
1761370228651595000,9.321594970703124,-0.6016845703125,-0.5246414542198181,0.8874847292900085
1761370228670206700,9.340206787109375,-0.5448757410049438,-0.45683738589286804,0.990717887878418
1761370228688817200,9.358817138671874,-0.42698222398757935,-0.22410458326339722,1.0035456418991089
1761370228707428900,9.377428955078125,-0.3561239540576935,0.2578538954257965,0.8111287951469421
1761370228726039300,9.396039306640626,-0.1459924876689911,0.6439093947410583,0.3566584289073944
1761370228744651000,9.414651123046875,0.19913621246814728,-0.20639002323150635,-0.3086305856704712
1761370228763261400,9.433261474609376,0.5577035546302795,-1.7775654792785645,-0.8706100583076477
1761370228781873200,9.451873046875,0.3695625960826874,-2.646801233291626,-1.168703556060791
1761370228800483600,9.470483642578126,-0.10262233763933182,-1.9876970052719116,-1.3849434852600098
1761370228819095600,9.489095458984375,-0.3298575282096863,-0.357269287109375,-1.6757067441940308
1761370228837705700,9.507705810546875,0.0018325417768210173,0.8118923902511597,-1.8986660242080688
1761370228856317700,9.526317626953125,0.6396334171295166,1.1582427024841309,-1.8131474256515503
1761370228874927900,9.544927978515625,1.0476794242858887,1.0916603803634644,-1.4008255004882812
1761370228893539800,9.563539794921875,1.071502447128296,0.6628456115722656,-0.8388460278511047
1761370228912150000,9.58214990234375,0.901076078414917,0.12285665422677994,-0.18768282234668732
1761370228930762000,9.600761962890624,0.6787276864051819,-0.018249060958623886,0.40369367599487305
1761370228949372200,9.6193720703125,0.5479300022125244,0.1265217363834381,0.9742250442504883
1761370228967984000,9.637984130859374,0.4196520745754242,0.5962632894515991,1.430527925491333
1761370228986594600,9.656594482421875,0.2223484069108963,1.0525661706924438,1.6889163255691528
1761370229005206300,9.675206298828124,-0.007941014133393764,1.297592282295227,1.7286213636398315
1761370229023816700,9.693816650390625,-0.17225892841815948,1.270104169845581,1.5911808013916016
1761370229042428400,9.712428466796876,-0.28160059452056885,1.0409600734710693,1.3633347749710083
1761370229061038800,9.731038818359375,-0.22723518311977386,0.8503757119178772,1.2087904214859009
1761370229079650600,9.749650634765626,-0.1435490995645523,0.7935669422149658,1.1825239658355713
1761370229098261000,9.768260986328125,-0.10140064358711243,0.8076164126396179,1.291865587234497
1761370229116873000,9.786873046875,0.0018325417768210173,0.6701757907867432,1.4732872247695923
1761370229135483100,9.805483154296875,0.10750912129878998,0.7135459780693054,1.634550929069519
1761370229154095000,9.82409521484375,-0.08063183724880219,0.7593594789505005,1.5288742780685425
1761370229172705300,9.842705322265624,-0.739736020565033,-0.24304085969924927,0.9259681105613708
1761370229191317200,9.861317138671875,-1.3053805828094482,-1.8850746154785156,0.13980767130851746
1761370229209927400,9.879927490234374,-1.1691616773605347,-1.9577654600143433,-0.24998924136161804
1761370229228539400,9.898539306640625,-0.660936713218689,-0.5710658431053162,-0.31229567527770996
1761370229247149800,9.91714990234375,-0.10689827054738998,0.3372640311717987,-0.28725093603134155
1761370229265761500,9.935761474609375,0.17897824943065643,-1.4097591638565063,-0.6513158679008484
1761370229284372000,9.9543720703125,0.3903313875198364,-3.280860662460327,-1.3660072088241577
1761370229302983700,9.972983642578125,0.38727715611457825,-2.982156276702881,-2.1888184547424316
1761370229321594000,9.991593994140626,0.37689274549484253,-1.2875896692276,-2.69711971282959
1761370229340205800,10.010205810546875,0.4037700295448303,-0.18928629159927368,-2.868767738342285
1761370229358816300,10.028816162109376,0.39643988013267517,-0.44278791546821594,-2.8950343132019043
1761370229377428000,10.047427978515625,0.03237490355968475,-0.7854732275009155,-2.6713876724243164
1761370229396038400,10.066038330078126,-0.21685077250003815,-0.5417451858520508,-2.1216251850128174
1761370229414650000,10.084650146484375,-0.12278030067682266,-0.17706935107707977,-1.4417521953582764
1761370229433260500,10.103260498046875,0.17653486132621765,0.16378341615200043,-0.6641436815261841
1761370229451872500,10.12187255859375,0.4178195297718048,0.4307236671447754,0.10926530510187149
1761370229470482700,10.140482666015625,0.46485477685928345,0.5736619234085083,0.6352047920227051
1761370229489094700,10.1590947265625,0.3897205591201782,0.5345677137374878,0.8783220052719116
1761370229507704800,10.177704833984375,0.3023693859577179,0.41056570410728455,0.907642662525177
1761370229526316800,10.19631689453125,0.26877278089523315,0.35681116580963135,0.880154550075531
1761370229544927200,10.21492724609375,0.29442837834358215,0.4948626458644867,0.8978691101074219
1761370229563539000,10.2335390625,0.24494975805282593,0.7294279932975769,1.0383639335632324
1761370229582149400,10.2521494140625,0.11178504675626755,0.8589276075363159,1.2912547588348389
1761370229600761000,10.270760986328124,0.004275931045413017,0.7886801958084106,1.6162254810333252
1761370229619371500,10.28937158203125,-0.130721315741539,0.3500918447971344,1.8446823358535767
1761370229637983200,10.307983154296876,-0.47768256068229675,-0.14530529081821442,1.878889799118042
1761370229656593700,10.32659375,-0.7091936469078064,-0.3542150557041168,1.7408382892608643
1761370229675205400,10.345205322265626,-0.47890424728393555,-0.2931303381919861,1.3053042888641357
1761370229693815800,10.36381591796875,-0.09529217332601547,-0.3145099878311157,0.648643434047699
1761370229712427500,10.382427490234376,0.12522368133068085,-0.37315133213996887,0.04818057641386986
1761370229731038000,10.401037841796875,0.20524467527866364,0.16439427435398102,-0.18340688943862915
1761370229749650000,10.41964990234375,0.29442837834358215,0.3342097997665405,-0.15469707548618317
1761370229768260000,10.438260009765624,0.2987042963504791,-0.4098021686077118,-0.284196674823761
1761370229786872000,10.4568720703125,0.182643324136734,-1.4085373878479004,-0.9701781868934631
1761370229805482200,10.475482177734374,0.27121618390083313,-1.9999139308929443,-1.8174233436584473
1761370229824094200,10.49409423828125,0.2877090573310852,-1.4647353887557983,-2.1570544242858887
1761370229842704400,10.512704345703124,0.4227063059806824,-0.5264739990234375,-1.9066070318222046
1761370229861316400,10.53131640625,0.6200863122940063,0.12285665422677994,-1.2548329830169678
1761370229879926800,10.5499267578125,0.46546560525894165,0.2340308576822281,-0.5016583204269409
1761370229898538500,10.56853857421875,0.10689827054738998,0.07704310864210129,0.14897038042545319
1761370229917149000,10.58714892578125,0.0012216945178806782,-0.006032116711139679,0.5674007534980774
1761370229935760600,10.6057607421875,0.16798299551010132,-0.043293800204992294,0.7763105034828186
1761370229954371000,10.62437109375,0.395218163728714,-0.09643751382827759,0.8300650715827942
1761370229972982800,10.642982666015625,0.49356457591056824,0.011682453565299511,0.8856521844863892
1761370229991593200,10.66159326171875,0.31886225938796997,0.1918824017047882,0.9956046938896179
1761370230010205200,10.680205078125,0.016492875292897224,0.35558944940567017,1.125104308128357
1761370230028815400,10.6988154296875,-0.3530697226524353,0.6561263203620911,1.1696960926055908
1761370230047427300,10.71742724609375,-0.624285876750946,1.136863112449646,1.0799015760421753
1761370230066037500,10.73603759765625,-0.7146912813186646,1.1716814041137695,0.8899281024932861
1761370230084649500,10.7546494140625,-0.7464553713798523,0.7520293593406677,0.7396596670150757
1761370230103259600,10.773259765625,-0.49173203110694885,0.6775059700012207,0.9149728417396545
1761370230121871600,10.79187158203125,-0.24128466844558716,0.6762842535972595,1.2436087131500244
1761370230140482000,10.81048193359375,-0.11422843486070633,0.4411080777645111,1.4567943811416626
1761370230159093800,10.82909375,-0.020157959312200546,0.028786176815629005,1.4213652610778809
1761370230177704200,10.8477041015625,-0.15087927877902985,-0.15263545513153076,1.167252779006958
1761370230196316000,10.86631591796875,-0.4960079789161682,-0.15202461183071136,0.6804074645042419
1761370230214926300,10.88492626953125,-0.7220214605331421,0.711713433265686,0.14408360421657562
1761370230233538000,10.9035380859375,-0.3384093940258026,2.2150847911834717,-0.35261157155036926
1761370230252148500,10.9221484375,0.1698155403137207,1.9695242643356323,-1.0129374265670776
1761370230270760400,10.940760498046876,0.5705313682556152,0.47348299622535706,-1.7111358642578125
1761370230289370600,10.95937060546875,0.43736663460731506,-0.833730161190033,-1.9756327867507935
1761370230307982600,10.977982666015626,-0.05741964280605316,-1.7745113372802734,-2.273726224899292
1761370230326592800,10.9965927734375,-0.5479300022125244,-1.171528697013855,-2.824786901473999
1761370230345204700,11.015204833984376,-0.6969767212867737,-0.07627955079078674,-3.2804789543151855
1761370230363815000,11.03381494140625,-0.4080459773540497,0.428891122341156,-3.035529136657715
