time,seconds_elapsed,z,y,x
1761370054830153700,0.19915380859375,-0.0006108472589403391,0.0025197449140250683,-0.00015271181473508477
1761370054848764200,0.21776416015625,-0.0012216945178806782,0.00129805039614439,-0.00015271181473508477
1761370054867376000,0.236376220703125,-0.0012216945178806782,0.0019088976550847292,0.0005344913806766272
1761370054885986600,0.254986572265625,-0.0012216945178806782,0.0019088976550847292,-0.0007635590736754239
1761370054904598500,0.2735986328125,-0.0012216945178806782,0.0019088976550847292,-0.0007635590736754239
1761370054923209000,0.292208984375,-0.0006108472589403391,0.0019088976550847292,-0.00015271181473508477
1761370054941821000,0.310821044921875,-0.0012216945178806782,0.0019088976550847292,-0.00015271181473508477
1761370054960431600,0.329431640625,0,0.0025197449140250683,0.0005344913806766272
1761370054979043600,0.348043701171875,-0.0012216945178806782,0.00129805039614439,-0.00015271181473508477
1761370054997654000,0.366654052734375,-0.0006108472589403391,0.0019088976550847292,-0.0007635590736754239
1761370055016266000,0.385265869140625,-0.0012216945178806782,0.00129805039614439,0.0005344913806766272
1761370055034876400,0.40387646484375,-0.0006108472589403391,0.0019088976550847292,-0.00015271181473508477
1761370055053488400,0.42248828125,-0.0012216945178806782,0.0019088976550847292,-0.00015271181473508477
1761370055072098800,0.441098876953125,-0.0012216945178806782,0.0019088976550847292,-0.00015271181473508477
1761370055090710800,0.459710693359375,-0.0012216945178806782,0.00129805039614439,-0.0007635590736754239
1761370055118627600,0.487627685546875,-0.0012216945178806782,0.0019088976550847292,-0.00015271181473508477
1761370055137238300,0.50623828125,-0.0006108472589403391,0.00129805039614439,0.0005344913806766272
1761370055155850200,0.524850341796875,-0.0012216945178806782,0.00129805039614439,-0.00015271181473508477
1761370055174460700,0.543460693359375,-0.0006108472589403391,0.00129805039614439,-0.00015271181473508477
1761370055193072600,0.56207275390625,-0.0018325417768210173,0.0019088976550847292,-0.0007635590736754239
1761370055211683000,0.58068310546875,-0.0018325417768210173,0.00129805039614439,-0.0007635590736754239
1761370055230295000,0.599294921875,-0.0012216945178806782,0.00129805039614439,0.0005344913806766272
1761370055248905500,0.617905517578125,-0.0006108472589403391,0.0019088976550847292,-0.00015271181473508477
1761370055267517400,0.636517333984375,-0.0012216945178806782,0.00129805039614439,-0.00015271181473508477
1761370055286128000,0.655128173828125,-0.0006108472589403391,0.00129805039614439,-0.00015271181473508477
1761370055304740000,0.673739990234375,-0.0012216945178806782,0.0019088976550847292,-0.00015271181473508477
1761370055323350500,0.6923505859375,-0.0006108472589403391,0.0019088976550847292,-0.00015271181473508477
1761370055341962500,0.71096240234375,-0.0006108472589403391,0.000687203137204051,-0.0007635590736754239
1761370055360573000,0.729572998046875,-0.0006108472589403391,0.0025197449140250683,-0.00015271181473508477
1761370055379185000,0.748184814453125,-0.0006108472589403391,0.0019088976550847292,-0.00015271181473508477
1761370055397795300,0.76679541015625,-0.0006108472589403391,0.0025197449140250683,-0.00015271181473508477
1761370055416407300,0.7854072265625,-0.0006108472589403391,0.00129805039614439,0.0005344913806766272
1761370055435017700,0.804017822265625,-0.0006108472589403391,0.0019088976550847292,-0.00015271181473508477
1761370055453630000,0.8226298828125,-0.0012216945178806782,0.00129805039614439,-0.00015271181473508477
1761370055472240400,0.841240478515625,-0.0006108472589403391,0.00129805039614439,-0.0007635590736754239
1761370055490852400,0.859852294921875,-0.0012216945178806782,0.00129805039614439,-0.00015271181473508477
1761370055509462800,0.878462890625,-0.0006108472589403391,0.000687203137204051,-0.0007635590736754239
1761370055528074800,0.89707470703125,-0.0006108472589403391,0.00129805039614439,-0.00015271181473508477
1761370055546685200,0.915685302734375,-0.0006108472589403391,0.00129805039614439,-0.0007635590736754239
1761370055565297200,0.934297119140625,-0.0012216945178806782,0.0019088976550847292,0.0005344913806766272
1761370055583907600,0.952907470703125,-0.0012216945178806782,0.0019088976550847292,-0.00015271181473508477
1761370055602519600,0.97151953125,-0.0012216945178806782,0.0019088976550847292,-0.0007635590736754239
1761370055621130200,0.990130126953125,-0.0012216945178806782,0.00129805039614439,-0.0007635590736754239
1761370055639742200,1.0087421875,-0.0006108472589403391,0.0019088976550847292,-0.0007635590736754239
1761370055658352600,1.0273525390625,-0.0012216945178806782,0.00129805039614439,-0.00015271181473508477
1761370055676964600,1.045964599609375,-0.0006108472589403391,0.00129805039614439,-0.00015271181473508477
1761370055695575000,1.064574951171875,-0.0006108472589403391,0.0019088976550847292,-0.00015271181473508477
1761370055714187000,1.08318701171875,-0.0012216945178806782,0.00129805039614439,-0.00015271181473508477
1761370055732797700,1.101797607421875,-0.0006108472589403391,0.0019088976550847292,-0.00015271181473508477
1761370055751409700,1.12040966796875,-0.0006108472589403391,0.00129805039614439,-0.00015271181473508477
1761370055770020000,1.13902001953125,-0.0012216945178806782,0.0019088976550847292,0.0005344913806766272
1761370055788632000,1.157632080078125,-0.0012216945178806782,0.00129805039614439,-0.00015271181473508477
1761370055807242500,1.176242431640625,-0.0012216945178806782,0.00129805039614439,0.0005344913806766272
1761370055825854500,1.1948544921875,-0.0006108472589403391,0.00129805039614439,0.0005344913806766272
1761370055844465000,1.21346484375,-0.0012216945178806782,0.0019088976550847292,-0.00015271181473508477
1761370055863077000,1.2320771484375,-0.0012216945178806782,0.00129805039614439,-0.00015271181473508477
1761370055881687600,1.2506875,-0.0012216945178806782,0.0019088976550847292,-0.00015271181473508477
1761370055900299500,1.269299560546875,-0.0006108472589403391,0.0019088976550847292,-0.00015271181473508477
1761370055918910000,1.287909912109375,-0.0012216945178806782,0.0019088976550847292,-0.00015271181473508477
1761370055937522000,1.30652197265625,-0.0018325417768210173,0.0019088976550847292,-0.00015271181473508477
1761370055956132400,1.32513232421875,-0.0012216945178806782,0.0019088976550847292,0.0005344913806766272
1761370055974744300,1.343744384765625,-0.0006108472589403391,0.0019088976550847292,-0.0007635590736754239
1761370055993354800,1.362354736328125,-0.0012216945178806782,0.0019088976550847292,-0.00015271181473508477
1761370056011967000,1.380967041015625,-0.0006108472589403391,0.0019088976550847292,-0.00015271181473508477
1761370056030577400,1.399577392578125,-0.0006108472589403391,0.00129805039614439,-0.00015271181473508477
1761370056049189400,1.418189453125,-0.0012216945178806782,0.0019088976550847292,-0.00015271181473508477
1761370056067799800,1.4367998046875,-0.0012216945178806782,0.0019088976550847292,-0.00015271181473508477
1761370056086411800,1.455411865234375,-0.0006108472589403391,0.00129805039614439,0.0005344913806766272
1761370056105022200,1.474022216796875,-0.0012216945178806782,0.00129805039614439,-0.0007635590736754239
1761370056123634200,1.49263427734375,-0.0006108472589403391,0.0019088976550847292,-0.00015271181473508477
1761370056142244600,1.51124462890625,-0.0006108472589403391,0.0019088976550847292,0.0005344913806766272
1761370056160856800,1.52985693359375,-0.0006108472589403391,0.00129805039614439,0.0005344913806766272
1761370056179467300,1.54846728515625,-0.0012216945178806782,0.0025197449140250683,-0.0007635590736754239
1761370056198079200,1.567079345703125,-0.0006108472589403391,0.00129805039614439,-0.00015271181473508477
1761370056216689700,1.585689697265625,-0.0006108472589403391,0.0025197449140250683,-0.00015271181473508477
1761370056235301600,1.604301513671875,-0.0006108472589403391,0.0019088976550847292,-0.00015271181473508477
1761370056253912000,1.622912109375,-0.0018325417768210173,0.00129805039614439,-0.00015271181473508477
1761370056272524000,1.64152392578125,-0.0006108472589403391,0.0019088976550847292,0.0005344913806766272
1761370056291134500,1.660134521484375,0,0.0025197449140250683,-0.00015271181473508477
1761370056309746700,1.67874658203125,-0.0006108472589403391,0.0019088976550847292,-0.00015271181473508477
1761370056328357000,1.697357177734375,-0.0012216945178806782,0.0019088976550847292,-0.00015271181473508477
1761370056346969000,1.715968994140625,-0.0012216945178806782,0.00129805039614439,-0.00015271181473508477
1761370056365579500,1.73457958984375,-0.0012216945178806782,0.0019088976550847292,-0.00015271181473508477
1761370056384191500,1.75319140625,-0.0006108472589403391,0.00129805039614439,-0.0007635590736754239
1761370056402802000,1.771802001953125,-0.0006108472589403391,0.0025197449140250683,0.0005344913806766272
1761370056421414000,1.790413818359375,-0.0006108472589403391,0.0019088976550847292,0.0005344913806766272
1761370056440024600,1.809024658203125,-0.0006108472589403391,0.0019088976550847292,-0.00015271181473508477
1761370056458636500,1.827636474609375,-0.0012216945178806782,0.0019088976550847292,0.0005344913806766272
1761370056477247000,1.8462470703125,0,0.00129805039614439,-0.0007635590736754239
1761370056495859000,1.86485888671875,-0.0012216945178806782,0.0025197449140250683,-0.00015271181473508477
1761370056514469400,1.883469482421875,-0.0006108472589403391,0.0019088976550847292,-0.001374406274408102
1761370056533081300,1.902081298828125,-0.0006108472589403391,0.0019088976550847292,-0.00015271181473508477
1761370056551691800,1.92069189453125,-0.0012216945178806782,0.000687203137204051,-0.00015271181473508477
1761370056570304000,1.939303955078125,-0.0006108472589403391,0.0019088976550847292,-0.0007635590736754239
1761370056588914400,1.95791455078125,-0.0018325417768210173,0.00129805039614439,-0.00015271181473508477
1761370056607526400,1.9765263671875,-0.0012216945178806782,0.000687203137204051,0.0005344913806766272
1761370056626136800,1.99513671875,-0.0018325417768210173,0.00129805039614439,-0.00015271181473508477
1761370056644748800,2.013748779296875,-0.0006108472589403391,0.00129805039614439,-0.0007635590736754239
1761370056663359200,2.032359130859375,-0.0006108472589403391,0.00129805039614439,0.0005344913806766272
1761370056681971200,2.05097119140625,-0.0006108472589403391,0.00129805039614439,-0.00015271181473508477
1761370056700581600,2.06958154296875,-0.0006108472589403391,0.0019088976550847292,-0.0007635590736754239
1761370056719193900,2.08819384765625,-0.0006108472589403391,0.0025197449140250683,-0.00015271181473508477
1761370056737804300,2.10680419921875,-0.0006108472589403391,0.0019088976550847292,0.0005344913806766272
1761370056756416300,2.125416259765625,-0.0006108472589403391,0.0019088976550847292,0.0005344913806766272
1761370056775026700,2.144026611328125,-0.0006108472589403391,0.0019088976550847292,-0.00015271181473508477
1761370056793638700,2.162638671875,-0.0012216945178806782,0.0019088976550847292,-0.00015271181473508477
1761370056812249000,2.1812490234375,-0.0006108472589403391,0.00129805039614439,0.0005344913806766272
1761370056830861300,2.199861328125,-0.0006108472589403391,0.0019088976550847292,-0.00015271181473508477
1761370056849471500,2.218471435546875,-0.0006108472589403391,0.0019088976550847292,-0.001374406274408102
1761370056868083700,2.237083740234375,-0.0006108472589403391,0.0025197449140250683,-0.00015271181473508477
1761370056886694100,2.255694091796875,-0.0012216945178806782,0.00129805039614439,-0.00015271181473508477
1761370056905306000,2.27430615234375,-0.0018325417768210173,0.0019088976550847292,-0.00015271181473508477
1761370056923916500,2.29291650390625,-0.0006108472589403391,0.00129805039614439,0.0005344913806766272
1761370056942528500,2.311528564453125,-0.0006108472589403391,0.0019088976550847292,-0.00015271181473508477
1761370056961139000,2.330138916015625,-0.0006108472589403391,0.0025197449140250683,-0.001374406274408102
1761370056979751000,2.3487509765625,-0.0012216945178806782,0.0019088976550847292,-0.00015271181473508477
1761370056998361300,2.367361328125,-0.0012216945178806782,0.00129805039614439,-0.0007635590736754239
1761370057016973600,2.3859736328125,-0.0012216945178806782,0.0025197449140250683,-0.0007635590736754239
1761370057035584000,2.404583984375,-0.0006108472589403391,0.0019088976550847292,0.0005344913806766272
1761370057054196000,2.423196044921875,-0.0018325417768210173,0.00129805039614439,-0.00015271181473508477
1761370057072806400,2.441806396484375,-0.0006108472589403391,0.00129805039614439,-0.0007635590736754239
1761370057091418400,2.46041845703125,-0.0018325417768210173,0.0019088976550847292,-0.0007635590736754239
1761370057110028800,2.47902880859375,-0.0006108472589403391,0.0019088976550847292,-0.00015271181473508477
1761370057128640800,2.497640869140625,-0.0012216945178806782,0.0019088976550847292,-0.00015271181473508477
1761370057147251500,2.51625146484375,-0.0006108472589403391,0.0019088976550847292,-0.0007635590736754239
1761370057165863400,2.534863525390625,-0.0006108472589403391,0.00129805039614439,-0.0007635590736754239
1761370057184473900,2.553473876953125,-0.0012216945178806782,0.00129805039614439,-0.00015271181473508477
1761370057203085800,2.5720859375,-0.0006108472589403391,0.0019088976550847292,0.0005344913806766272
1761370057221696300,2.5906962890625,-0.0006108472589403391,0.0019088976550847292,0.0005344913806766272
1761370057240308200,2.60930810546875,-0.0012216945178806782,0.0019088976550847292,-0.00015271181473508477
1761370057258918700,2.627918701171875,-0.0012216945178806782,0.0019088976550847292,0.0005344913806766272
1761370057277531000,2.64653076171875,-0.0006108472589403391,0.0019088976550847292,0.0005344913806766272
1761370057296141300,2.665141357421875,-0.0006108472589403391,0.00129805039614439,-0.00015271181473508477
1761370057314753300,2.683753173828125,-0.0012216945178806782,0.0019088976550847292,-0.00015271181473508477
1761370057333363700,2.70236376953125,-0.0018325417768210173,0.00129805039614439,0.0005344913806766272
1761370057351975700,2.7209755859375,-0.0012216945178806782,0.00129805039614439,-0.00015271181473508477
1761370057370586000,2.739586181640625,-0.0012216945178806782,0.0019088976550847292,0.0005344913806766272
1761370057389198000,2.758197998046875,-0.0012216945178806782,0.0019088976550847292,-0.0007635590736754239
1761370057407808500,2.77680859375,-0.0012216945178806782,0.00129805039614439,0.0005344913806766272
1761370057426420700,2.795420654296875,-0.0012216945178806782,0.0019088976550847292,-0.00015271181473508477
1761370057445031000,2.814031005859375,-0.0018325417768210173,0.0019088976550847292,0.0005344913806766272
1761370057463643100,2.83264306640625,-0.0012216945178806782,0.00129805039614439,-0.00015271181473508477
1761370057482253600,2.851253662109375,-0.0018325417768210173,0.0019088976550847292,0.0005344913806766272
1761370057500865500,2.869865478515625,-0.0018325417768210173,0.0019088976550847292,0.0005344913806766272
1761370057519476000,2.88847607421875,-0.0012216945178806782,0.00129805039614439,-0.0007635590736754239
1761370057538088000,2.907087890625,-0.0012216945178806782,0.0019088976550847292,-0.00015271181473508477
1761370057556698400,2.925698486328125,-0.0006108472589403391,0.00129805039614439,0.0005344913806766272
1761370057575310600,2.944310546875,-0.0012216945178806782,0.00129805039614439,-0.00015271181473508477
1761370057593921000,2.962921142578125,-0.0012216945178806782,0.00129805039614439,0.0005344913806766272
1761370057612533000,2.981532958984375,-0.0012216945178806782,0.0019088976550847292,0.0005344913806766272
1761370057631143400,3.000143310546875,-0.0012216945178806782,0.0019088976550847292,-0.00015271181473508477
1761370057649755400,3.01875537109375,-0.0006108472589403391,0.0019088976550847292,-0.00015271181473508477
1761370057668365800,3.03736572265625,-0.0012216945178806782,0.0019088976550847292,-0.00015271181473508477
1761370057686977800,3.055977783203125,-0.0012216945178806782,0.0019088976550847292,-0.00015271181473508477
1761370057705588200,3.074588134765625,-0.0012216945178806782,0.00129805039614439,0.0005344913806766272
1761370057724200400,3.093200439453125,-0.0012216945178806782,0.0025197449140250683,0.0005344913806766272
1761370057742811000,3.111810791015625,-0.0012216945178806782,0.0019088976550847292,-0.00015271181473508477
1761370057761422800,3.1304228515625,-0.0006108472589403391,0.00129805039614439,-0.00015271181473508477
1761370057780033300,3.149033203125,-0.0018325417768210173,0.00129805039614439,-0.00015271181473508477
1761370057798645200,3.167645263671875,-0.0024433890357613564,0.000687203137204051,0.0005344913806766272
1761370057817255700,3.186255615234375,-0.0012216945178806782,0.0019088976550847292,-0.00015271181473508477
1761370057835867600,3.20486767578125,-0.0012216945178806782,0.0019088976550847292,-0.0007635590736754239
1761370057854478000,3.22347802734375,-0.0012216945178806782,0.00129805039614439,-0.00015271181473508477
1761370057873090300,3.24209033203125,-0.0012216945178806782,0.00129805039614439,-0.00015271181473508477
1761370057891700700,3.26070068359375,-0.0018325417768210173,0.0019088976550847292,0.0005344913806766272
1761370057910312700,3.279312744140625,-0.0012216945178806782,0.0019088976550847292,-0.00015271181473508477
1761370057928923100,3.297923095703125,-0.0006108472589403391,0.00129805039614439,-0.0007635590736754239
1761370057947535000,3.31653515625,-0.0018325417768210173,0.00129805039614439,-0.0007635590736754239
1761370057966145500,3.3351455078125,-0.0012216945178806782,0.0019088976550847292,-0.00015271181473508477
1761370057984757500,3.353757568359375,-0.0012216945178806782,0.00129805039614439,-0.00015271181473508477
1761370058003368000,3.372367919921875,-0.0012216945178806782,0.0025197449140250683,-0.0007635590736754239
1761370058021980200,3.390980224609375,-0.0006108472589403391,0.0019088976550847292,-0.00015271181473508477
1761370058040590600,3.409590576171875,-0.0012216945178806782,0.00129805039614439,-0.00015271181473508477
1761370058059202600,3.42820263671875,-0.0006108472589403391,0.0019088976550847292,-0.00015271181473508477
1761370058077813000,3.44681298828125,-0.0012216945178806782,0.0019088976550847292,0.0005344913806766272
1761370058096425000,3.465425048828125,-0.0006108472589403391,0.0025197449140250683,-0.00015271181473508477
1761370058115035400,3.484035400390625,-0.0006108472589403391,0.0025197449140250683,-0.0007635590736754239
1761370058133647600,3.502647705078125,-0.0006108472589403391,0.00129805039614439,-0.00015271181473508477
1761370058152257800,3.5212578125,-0.0006108472589403391,0.0025197449140250683,-0.0007635590736754239
1761370058170870000,3.5398701171875,-0.0012216945178806782,0.0025197449140250683,-0.00015271181473508477
1761370058189480400,3.55848046875,-0.0012216945178806782,0.00129805039614439,0.0005344913806766272
1761370058208092400,3.577092529296875,-0.0006108472589403391,0.00129805039614439,0.0005344913806766272
1761370058226702800,3.595702880859375,-0.0018325417768210173,0.0019088976550847292,-0.0007635590736754239
1761370058245314800,3.614314697265625,-0.0012216945178806782,0.00129805039614439,-0.0007635590736754239
1761370058263925200,3.63292529296875,-0.0006108472589403391,0.00129805039614439,0.0005344913806766272
1761370058282537200,3.651537109375,-0.0012216945178806782,0.0019088976550847292,-0.00015271181473508477
1761370058301147600,3.670147705078125,-0.0018325417768210173,0.00129805039614439,0.0005344913806766272
1761370058319760000,3.688759765625,-0.0012216945178806782,0.0019088976550847292,-0.00015271181473508477
1761370058338370300,3.707370361328125,-0.0012216945178806782,0.00129805039614439,-0.001374406274408102
1761370058356982300,3.725982177734375,-0.0018325417768210173,0.000687203137204051,0.0005344913806766272
1761370058375592700,3.7445927734375,-0.0012216945178806782,0.00129805039614439,-0.00015271181473508477
1761370058394204700,3.76320458984375,-0.0006108472589403391,0.0019088976550847292,0.0005344913806766272
1761370058412815000,3.781815185546875,-0.0012216945178806782,0.00129805039614439,-0.00015271181473508477
1761370058431427000,3.800427001953125,-0.0012216945178806782,0.0019088976550847292,-0.00015271181473508477
1761370058450037500,3.81903759765625,-0.0012216945178806782,0.00129805039614439,-0.00015271181473508477
1761370058468649700,3.837649658203125,-0.0012216945178806782,0.000687203137204051,0.0005344913806766272
1761370058487260200,3.85626025390625,-0.0006108472589403391,0.00129805039614439,-0.00015271181473508477
1761370058505872100,3.8748720703125,-0.0018325417768210173,0.00129805039614439,-0.00015271181473508477
1761370058524482600,3.893482666015625,-0.0012216945178806782,0.0019088976550847292,-0.00015271181473508477
1761370058543094500,3.912094482421875,-0.0006108472589403391,0.000687203137204051,0.0005344913806766272
1761370058561705000,3.930705078125,-0.0006108472589403391,0.0019088976550847292,-0.0007635590736754239
1761370058580317200,3.949317138671875,-0.0012216945178806782,0.00129805039614439,-0.00015271181473508477
1761370058598927600,3.967927734375,-0.0012216945178806782,0.0019088976550847292,0.0005344913806766272
1761370058617539600,3.98653955078125,-0.0012216945178806782,0.0019088976550847292,-0.00015271181473508477
1761370058636150000,4.00514990234375,-0.0012216945178806782,0.000687203137204051,0.0005344913806766272
1761370058654762000,4.023761962890625,-0.0006108472589403391,0.0019088976550847292,-0.00015271181473508477
1761370058673372400,4.042372314453125,-0.0012216945178806782,0.00129805039614439,-0.00015271181473508477
1761370058691984400,4.060984375,-0.0012216945178806782,0.0019088976550847292,0.0005344913806766272
1761370058710594800,4.0795947265625,-0.0012216945178806782,0.00129805039614439,-0.0007635590736754239
1761370058729207000,4.09820703125,-0.0006108472589403391,0.00129805039614439,0.0005344913806766272
1761370058747817500,4.1168173828125,-0.0012216945178806782,0.0019088976550847292,-0.00015271181473508477
1761370058766429400,4.135429443359375,-0.0012216945178806782,0.0025197449140250683,0.0005344913806766272
1761370058785040000,4.154039794921875,-0.0012216945178806782,0.00129805039614439,0.0005344913806766272
1761370058803651800,4.17265185546875,-0.0012216945178806782,0.0019088976550847292,-0.0007635590736754239
1761370058822262300,4.19126220703125,-0.0012216945178806782,0.00129805039614439,0.0005344913806766272
1761370058840874200,4.209874267578125,-0.0012216945178806782,0.0019088976550847292,-0.00015271181473508477
1761370058859484700,4.228484619140625,-0.0012216945178806782,0.000687203137204051,-0.00015271181473508477
1761370058878097000,4.247096923828125,-0.0006108472589403391,0.0019088976550847292,0.0011453386396169662
1761370058896707300,4.265707275390625,-0.0012216945178806782,0.00129805039614439,0.0005344913806766272
1761370058915319300,4.2843193359375,-0.0012216945178806782,0.00129805039614439,-0.00015271181473508477
1761370058933929700,4.3029296875,-0.0012216945178806782,0.0019088976550847292,-0.0007635590736754239
1761370058952541700,4.321541748046875,-0.0006108472589403391,0.0019088976550847292,0.0005344913806766272
1761370058971152100,4.340152099609375,-0.0006108472589403391,0.0019088976550847292,0.0005344913806766272
1761370058989764400,4.358764404296875,-0.0006108472589403391,0.0019088976550847292,-0.00015271181473508477
1761370059008374800,4.377374755859375,-0.0012216945178806782,0.0025197449140250683,-0.00015271181473508477
1761370059026986800,4.39598681640625,-0.0012216945178806782,0.00129805039614439,-0.00015271181473508477
1761370059045597200,4.41459716796875,-0.0012216945178806782,0.000687203137204051,0.0005344913806766272
1761370059064209200,4.433209228515625,-0.0012216945178806782,0.00129805039614439,-0.0007635590736754239
1761370059082819600,4.451819580078125,-0.0012216945178806782,0.0019088976550847292,0.0005344913806766272
1761370059101431600,4.470431640625,-0.0006108472589403391,0.00129805039614439,-0.00015271181473508477
1761370059120042200,4.489042236328125,-0.0012216945178806782,0.00129805039614439,-0.00015271181473508477
1761370059138654200,4.507654296875,-0.0006108472589403391,0.0025197449140250683,-0.00015271181473508477
1761370059157264600,4.5262646484375,-0.0006108472589403391,0.0019088976550847292,-0.00015271181473508477
1761370059175876600,4.544876708984375,0,0.00129805039614439,0.0005344913806766272
1761370059194487000,4.563487060546875,-0.0006108472589403391,0.00129805039614439,-0.00015271181473508477
1761370059213099000,4.58209912109375,-0.0012216945178806782,0.00129805039614439,-0.00015271181473508477
1761370059231709400,4.60070947265625,-0.0018325417768210173,0.00129805039614439,0.0005344913806766272
1761370059250321700,4.61932177734375,-0.0018325417768210173,0.0019088976550847292,-0.00015271181473508477
1761370059268932000,4.63793212890625,-0.0012216945178806782,0.0019088976550847292,-0.00015271181473508477
1761370059287544000,4.6565439453125,-0.0012216945178806782,0.00129805039614439,-0.00015271181473508477
1761370059306154500,4.675154541015625,-0.0012216945178806782,0.00129805039614439,-0.0007635590736754239
1761370059324766500,4.693766357421875,-0.0006108472589403391,0.0019088976550847292,-0.00015271181473508477
1761370059343377000,4.712376953125,-0.0012216945178806782,0.0019088976550847292,-0.00015271181473508477
1761370059361989000,4.730989013671875,-0.0012216945178806782,0.0019088976550847292,0.0005344913806766272
1761370059380599300,4.749599365234375,-0.0018325417768210173,0.00129805039614439,-0.0007635590736754239
1761370059399211500,4.76821142578125,-0.0006108472589403391,0.0025197449140250683,0.0005344913806766272
1761370059417822000,4.786822021484375,-0.0006108472589403391,0.00129805039614439,-0.00015271181473508477
1761370059436434000,4.805433837890625,-0.0018325417768210173,0.0019088976550847292,-0.00015271181473508477
1761370059455044400,4.82404443359375,-0.0006108472589403391,0.00129805039614439,0.0005344913806766272
1761370059473656300,4.84265625,-0.0012216945178806782,0.0019088976550847292,-0.0007635590736754239
1761370059492266800,4.861266845703125,-0.0012216945178806782,0.0019088976550847292,-0.00015271181473508477
1761370059510879000,4.87987890625,-0.0012216945178806782,0.0019088976550847292,0.0005344913806766272
1761370059529489400,4.898489501953125,-0.0006108472589403391,0.0019088976550847292,0.0005344913806766272
1761370059548101400,4.917101318359375,-0.0006108472589403391,0.00129805039614439,0.0005344913806766272
1761370059566711800,4.9357119140625,-0.0006108472589403391,0.00129805039614439,-0.00015271181473508477
1761370059585323800,4.95432373046875,-0.0006108472589403391,0.0019088976550847292,-0.00015271181473508477
1761370059603934200,4.972934326171875,-0.0012216945178806782,0.0019088976550847292,0.0005344913806766272
1761370059622546400,4.99154638671875,-0.0012216945178806782,0.0025197449140250683,-0.00015271181473508477
1761370059641156900,5.010156982421875,-0.0012216945178806782,0.00129805039614439,-0.00015271181473508477
1761370059659768800,5.028768798828125,-0.0006108472589403391,0.00129805039614439,-0.00015271181473508477
1761370059678379300,5.047379150390625,-0.0012216945178806782,0.0019088976550847292,-0.00015271181473508477
1761370059696991200,5.0659912109375,-0.0006108472589403391,0.00129805039614439,-0.0007635590736754239
1761370059715601700,5.0846015625,-0.0006108472589403391,0.00129805039614439,-0.00015271181473508477
1761370059734213600,5.103213623046875,-0.0012216945178806782,0.000687203137204051,-0.0007635590736754239
1761370059752824300,5.12182421875,-0.0006108472589403391,0.00129805039614439,0.0005344913806766272
1761370059771436300,5.140436279296875,-0.0006108472589403391,0.00129805039614439,-0.00015271181473508477
1761370059790046700,5.159046630859375,-0.0012216945178806782,0.0019088976550847292,-0.00015271181473508477
1761370059808658700,5.17765869140625,-0.0012216945178806782,0.00129805039614439,-0.0007635590736754239
1761370059827269000,5.19626904296875,-0.0018325417768210173,0.00129805039614439,0.0005344913806766272
1761370059845881000,5.214881103515625,-0.0006108472589403391,0.00129805039614439,-0.00015271181473508477
1761370059864491500,5.233491455078125,-0.0006108472589403391,0.00129805039614439,0.0005344913806766272
1761370059883103700,5.252103759765625,-0.0006108472589403391,0.0019088976550847292,0.0005344913806766272
1761370059901714200,5.270714111328125,-0.0006108472589403391,0.00129805039614439,-0.00015271181473508477
1761370059920326100,5.289326171875,-0.0012216945178806782,0.00129805039614439,-0.00015271181473508477
1761370059938936600,5.3079365234375,-0.0012216945178806782,0.00129805039614439,0.0005344913806766272
1761370059957548500,5.326548583984375,-0.0006108472589403391,0.0019088976550847292,0.0005344913806766272
1761370059976159000,5.345158935546875,-0.0006108472589403391,0.0019088976550847292,-0.0007635590736754239
1761370059994771200,5.363771240234375,-0.0006108472589403391,0.0019088976550847292,-0.00015271181473508477
1761370060013381600,5.382381591796875,-0.0018325417768210173,0.00129805039614439,-0.00015271181473508477
1761370060031993600,5.40099365234375,-0.0012216945178806782,0.0019088976550847292,-0.00015271181473508477
1761370060050604000,5.41960400390625,-0.0012216945178806782,0.00129805039614439,-0.00015271181473508477
1761370060069216000,5.438216064453125,-0.0012216945178806782,0.0019088976550847292,-0.00015271181473508477
1761370060087826400,5.456826416015625,-0.0006108472589403391,0.0019088976550847292,-0.001374406274408102
1761370060106438700,5.475438720703125,-0.0006108472589403391,0.00129805039614439,-0.00015271181473508477
1761370060125049000,5.494049072265625,-0.0012216945178806782,0.0019088976550847292,0.0005344913806766272
1761370060143661000,5.5126611328125,-0.0006108472589403391,0.0019088976550847292,0.0005344913806766272
1761370060162271500,5.531271484375,-0.0012216945178806782,0.0019088976550847292,-0.00015271181473508477
1761370060180883500,5.549883544921875,-0.0006108472589403391,0.0019088976550847292,-0.0007635590736754239
1761370060199494000,5.568493896484375,-0.0006108472589403391,0.0019088976550847292,-0.00015271181473508477
1761370060218105900,5.58710595703125,-0.0012216945178806782,0.0019088976550847292,0.0005344913806766272
1761370060236716300,5.60571630859375,-0.0012216945178806782,0.0019088976550847292,-0.00015271181473508477
1761370060255328500,5.62432861328125,-0.0012216945178806782,0.0019088976550847292,-0.00015271181473508477
1761370060273939000,5.64293896484375,-0.0012216945178806782,0.0019088976550847292,0.0005344913806766272
1761370060292551000,5.661551025390625,-0.0006108472589403391,0.0025197449140250683,-0.0007635590736754239
1761370060311161300,5.680161376953125,-0.0012216945178806782,0.0019088976550847292,0.0005344913806766272
1761370060329773300,5.698773193359375,-0.0012216945178806782,0.0019088976550847292,-0.0007635590736754239
1761370060348383700,5.7173837890625,-0.0018325417768210173,0.00129805039614439,-0.00015271181473508477
1761370060366996000,5.735995849609375,-0.0012216945178806782,0.0019088976550847292,0.0005344913806766272
1761370060385606400,5.7546064453125,-0.0012216945178806782,0.00129805039614439,-0.00015271181473508477
1761370060404218400,5.77321826171875,-0.0012216945178806782,0.0019088976550847292,-0.0007635590736754239
1761370060422828800,5.791828857421875,-0.0006108472589403391,0.00129805039614439,-0.00015271181473508477
1761370060441440800,5.810440673828125,-0.0006108472589403391,0.00129805039614439,0.0005344913806766272
1761370060460051200,5.82905126953125,-0.0018325417768210173,0.0019088976550847292,-0.00015271181473508477
1761370060478663400,5.847663330078125,-0.0012216945178806782,0.0019088976550847292,-0.00015271181473508477
1761370060497273900,5.86627392578125,-0.0006108472589403391,0.00129805039614439,0.0005344913806766272
1761370060515885800,5.8848857421875,-0.0006108472589403391,0.00129805039614439,0.0005344913806766272
1761370060534496300,5.903496337890625,-0.0012216945178806782,0.00129805039614439,-0.00015271181473508477
1761370060553108200,5.922108154296875,-0.0006108472589403391,0.0019088976550847292,0.0005344913806766272
1761370060571718700,5.94071875,-0.0012216945178806782,0.0019088976550847292,-0.00015271181473508477
1761370060590331000,5.959330810546875,-0.0012216945178806782,0.00129805039614439,-0.0007635590736754239
1761370060608941300,5.97794140625,-0.0012216945178806782,0.0025197449140250683,-0.0007635590736754239
1761370060627553300,5.99655322265625,-0.0012216945178806782,0.00129805039614439,-0.00015271181473508477
1761370060646163700,6.015163818359375,-0.0018325417768210173,0.00129805039614439,-0.00015271181473508477
1761370060664775700,6.033775634765625,-0.0012216945178806782,0.00129805039614439,-0.00015271181473508477
1761370060683386000,6.05238623046875,-0.0012216945178806782,0.0019088976550847292,-0.0007635590736754239
1761370060701998300,6.070998291015625,-0.0018325417768210173,0.000687203137204051,-0.00015271181473508477
1761370060720608500,6.0896083984375,-0.0012216945178806782,0.0019088976550847292,-0.00015271181473508477
1761370060739220700,6.108220703125,-0.0012216945178806782,0.0019088976550847292,-0.00015271181473508477
1761370060757831200,6.1268310546875,-0.0012216945178806782,0.0019088976550847292,0.0005344913806766272
1761370060776443100,6.145443115234375,-0.0012216945178806782,0.00129805039614439,-0.00015271181473508477
1761370060795053600,6.164053466796875,-0.0006108472589403391,0.00129805039614439,-0.00015271181473508477
1761370060813665800,6.182665771484375,-0.0012216945178806782,0.00129805039614439,-0.00015271181473508477
1761370060832276000,6.20127587890625,-0.0012216945178806782,0.0019088976550847292,-0.00015271181473508477
1761370060850888200,6.21988818359375,-0.0012216945178806782,0.0019088976550847292,-0.0007635590736754239
1761370060869498600,6.23849853515625,-0.0018325417768210173,0.0025197449140250683,-0.0007635590736754239
1761370060888110600,6.257110595703125,-0.0006108472589403391,0.0019088976550847292,-0.0007635590736754239
1761370060906721000,6.275720947265625,-0.0006108472589403391,0.0019088976550847292,-0.00015271181473508477
1761370060925333000,6.2943330078125,-0.0012216945178806782,0.00129805039614439,-0.00015271181473508477
1761370060943943400,6.312943359375,-0.0006108472589403391,0.00129805039614439,-0.00015271181473508477
1761370060962555600,6.3315556640625,-0.0006108472589403391,0.00129805039614439,0.0005344913806766272
1761370060981166000,6.350166015625,-0.0012216945178806782,0.0019088976550847292,0.0005344913806766272
1761370060999778000,6.368778076171875,-0.0012216945178806782,0.0019088976550847292,-0.00015271181473508477
1761370061018388500,6.387388427734375,-0.0006108472589403391,0.0019088976550847292,-0.00015271181473508477
1761370061037000400,6.40600048828125,-0.0006108472589403391,0.00129805039614439,0.0005344913806766272
1761370061055611000,6.42461083984375,-0.0012216945178806782,0.000687203137204051,-0.0007635590736754239
1761370061074223000,6.44322314453125,-0.0006108472589403391,0.00129805039614439,0.0005344913806766272
1761370061092833500,6.46183349609375,0,0.0019088976550847292,-0.00015271181473508477
1761370061111445500,6.480445556640625,-0.0012216945178806782,0.00129805039614439,0.0005344913806766272
1761370061130056000,6.499055908203125,-0.0012216945178806782,0.00129805039614439,0.0005344913806766272
1761370061148668000,6.51766796875,-0.0012216945178806782,0.00129805039614439,-0.0007635590736754239
1761370061167278300,6.5362783203125,-0.0006108472589403391,0.0019088976550847292,0.0011453386396169662
1761370061185890600,6.554890625,-0.0018325417768210173,0.0019088976550847292,-0.00015271181473508477
1761370061204501000,6.5735009765625,-0.0012216945178806782,0.0019088976550847292,0.0005344913806766272
1761370061223113000,6.592113037109375,-0.0012216945178806782,0.0019088976550847292,-0.00015271181473508477
1761370061241723400,6.610723388671875,-0.0012216945178806782,0.00129805039614439,-0.00015271181473508477
1761370061260335400,6.62933544921875,-0.0012216945178806782,0.00129805039614439,0.0005344913806766272
1761370061278945800,6.64794580078125,-0.0012216945178806782,0.00129805039614439,-0.00015271181473508477
1761370061297557800,6.666557861328125,-0.0012216945178806782,0.0019088976550847292,-0.00015271181473508477
1761370061316168400,6.68516845703125,-0.0018325417768210173,0.00129805039614439,0.0005344913806766272
1761370061334780400,6.703780517578125,-0.0018325417768210173,0.00129805039614439,-0.00015271181473508477
1761370061353390800,6.722390869140625,-0.0006108472589403391,0.0019088976550847292,-0.00015271181473508477
1761370061372002800,6.7410029296875,-0.0012216945178806782,0.000687203137204051,0.0005344913806766272
1761370061390613200,6.75961328125,-0.0012216945178806782,0.00129805039614439,0.0011453386396169662
1761370061409225200,6.77822509765625,-0.0012216945178806782,0.00129805039614439,0.0005344913806766272
1761370061427835600,6.796835693359375,-0.0018325417768210173,0.0019088976550847292,0.0005344913806766272
1761370061446447900,6.81544775390625,-0.0012216945178806782,0.00129805039614439,0.0005344913806766272
1761370061465058300,6.834058349609375,-0.0012216945178806782,0.0019088976550847292,-0.0007635590736754239
1761370061483670300,6.852670166015625,-0.0012216945178806782,0.00129805039614439,-0.00015271181473508477
1761370061502280700,6.87128076171875,-0.0012216945178806782,0.00129805039614439,-0.00015271181473508477
1761370061520892700,6.889892578125,-0.0012216945178806782,0.0019088976550847292,-0.00015271181473508477
1761370061539503000,6.908503173828125,-0.0012216945178806782,0.0019088976550847292,-0.00015271181473508477
1761370061558115000,6.927114990234375,-0.0012216945178806782,0.00129805039614439,0.0005344913806766272
1761370061576725800,6.945725830078125,-0.0006108472589403391,0.00129805039614439,-0.00015271181473508477
1761370061595337700,6.964337646484375,-0.0012216945178806782,0.0025197449140250683,0.0005344913806766272
1761370061613948200,6.9829482421875,-0.0012216945178806782,0.00129805039614439,-0.0007635590736754239
1761370061632560000,7.00156005859375,-0.0006108472589403391,0.00129805039614439,-0.00015271181473508477
1761370061651170600,7.020170654296875,-0.0006108472589403391,0.0019088976550847292,-0.00015271181473508477
1761370061669782500,7.038782470703125,-0.0018325417768210173,0.00129805039614439,-0.00015271181473508477
1761370061688393000,7.05739306640625,-0.0012216945178806782,0.00129805039614439,-0.0007635590736754239
1761370061707005200,7.076005126953125,-0.0012216945178806782,0.0019088976550847292,0.0005344913806766272
1761370061725615600,7.09461572265625,-0.0006108472589403391,0.0025197449140250683,0.0011453386396169662
1761370061744227600,7.1132275390625,-0.0018325417768210173,0.0019088976550847292,-0.00015271181473508477
1761370061762838000,7.131838134765625,-0.0012216945178806782,0.00129805039614439,-0.00015271181473508477
1761370061781450000,7.150449951171875,-0.0006108472589403391,0.0019088976550847292,-0.0007635590736754239
1761370061800060400,7.169060302734375,-0.0012216945178806782,0.0019088976550847292,-0.00015271181473508477
1761370061818672600,7.187672607421875,-0.0006108472589403391,0.00129805039614439,-0.00015271181473508477
1761370061837283000,7.206282958984375,-0.0006108472589403391,0.0019088976550847292,0.0005344913806766272
1761370061855895000,7.22489501953125,-0.0006108472589403391,0.0019088976550847292,-0.00015271181473508477
1761370061874505500,7.24350537109375,-0.0006108472589403391,0.0019088976550847292,-0.0007635590736754239
1761370061893117400,7.262117431640625,-0.0006108472589403391,0.0019088976550847292,-0.00015271181473508477
1761370061911727900,7.280727783203125,-0.0006108472589403391,0.00129805039614439,0.0011453386396169662
1761370061930340000,7.299340087890625,-0.0018325417768210173,0.00129805039614439,-0.00015271181473508477
1761370061948950500,7.317950439453125,-0.0018325417768210173,0.00129805039614439,-0.0007635590736754239
1761370061967562500,7.3365625,-0.0006108472589403391,0.00129805039614439,-0.00015271181473508477
1761370061986173000,7.3551728515625,-0.0006108472589403391,0.0019088976550847292,-0.00015271181473508477
1761370062004785000,7.373784912109375,-0.0006108472589403391,0.0019088976550847292,-0.00015271181473508477
1761370062023395300,7.392395263671875,-0.0006108472589403391,0.0025197449140250683,-0.00015271181473508477
1761370062042007300,7.41100732421875,-0.0012216945178806782,0.0019088976550847292,-0.00015271181473508477
1761370062060617700,7.42961767578125,-0.0012216945178806782,0.0019088976550847292,-0.00015271181473508477
1761370062079230000,7.44822998046875,-0.0012216945178806782,0.0019088976550847292,-0.0007635590736754239
1761370062097840400,7.46684033203125,-0.0012216945178806782,0.00129805039614439,0.0005344913806766272
1761370062116452400,7.485452392578125,-0.0012216945178806782,0.0025197449140250683,-0.00015271181473508477
1761370062135062800,7.504062744140625,-0.0006108472589403391,0.0019088976550847292,-0.0007635590736754239
1761370062153674800,7.5226748046875,-0.0006108472589403391,0.00129805039614439,-0.00015271181473508477
1761370062172285200,7.54128515625,-0.0006108472589403391,0.00129805039614439,-0.00015271181473508477
1761370062190897400,7.5598974609375,-0.0018325417768210173,0.000687203137204051,-0.00015271181473508477
1761370062209507800,7.5785078125,-0.0012216945178806782,0.00129805039614439,-0.0007635590736754239
1761370062228119800,7.597119873046875,-0.0006108472589403391,0.00129805039614439,0.0005344913806766272
1761370062246730200,7.615730224609375,-0.0006108472589403391,0.00129805039614439,-0.00015271181473508477
1761370062265342200,7.63434228515625,-0.0012216945178806782,0.0019088976550847292,0.0005344913806766272
1761370062283952600,7.65295263671875,-0.0012216945178806782,0.0019088976550847292,-0.0007635590736754239
1761370062302564600,7.671564697265625,0,0.00129805039614439,0.0005344913806766272
1761370062321175000,7.690175048828125,-0.0018325417768210173,0.0025197449140250683,-0.00015271181473508477
1761370062339787300,7.708787353515625,-0.0012216945178806782,0.00129805039614439,0.0005344913806766272
1761370062358397700,7.727397705078125,-0.0012216945178806782,0.0025197449140250683,0.0005344913806766272
1761370062377009700,7.746009765625,-0.0012216945178806782,0.0019088976550847292,0.0005344913806766272
1761370062395620000,7.7646201171875,-0.0012216945178806782,0.0019088976550847292,-0.0007635590736754239
1761370062414232000,7.783232177734375,-0.0018325417768210173,0.00129805039614439,-0.00015271181473508477
1761370062432842500,7.801842529296875,-0.0012216945178806782,0.00129805039614439,0.0005344913806766272
1761370062451454700,7.820454833984375,-0.0012216945178806782,0.00129805039614439,-0.00015271181473508477
1761370062470065200,7.839065185546875,-0.0018325417768210173,0.000687203137204051,0.0005344913806766272
1761370062488677000,7.857677001953125,-0.0012216945178806782,0.00129805039614439,0.0005344913806766272
1761370062507287600,7.87628759765625,-0.0012216945178806782,0.00129805039614439,0.0005344913806766272
1761370062525899500,7.8948994140625,-0.0012216945178806782,0.0019088976550847292,0.0005344913806766272
1761370062544510000,7.913510009765625,-0.0012216945178806782,0.00129805039614439,0.0005344913806766272
1761370062563122000,7.932121826171875,-0.0012216945178806782,0.00129805039614439,-0.0007635590736754239
1761370062581732400,7.950732421875,-0.0018325417768210173,0.00129805039614439,-0.00015271181473508477
1761370062600344600,7.969344482421875,-0.0012216945178806782,0.0019088976550847292,-0.00015271181473508477
1761370062618955000,7.987955078125,-0.0018325417768210173,0.00129805039614439,-0.00015271181473508477
1761370062637567000,8.00656689453125,-0.0012216945178806782,0.00129805039614439,-0.00015271181473508477
1761370062656177400,8.025177490234375,-0.0006108472589403391,0.00129805039614439,-0.00015271181473508477
1761370062674789400,8.043789306640624,-0.0012216945178806782,0.00129805039614439,0.0005344913806766272
1761370062693399800,8.06239990234375,-0.0006108472589403391,0.0025197449140250683,0.0005344913806766272
1761370062712012000,8.081011962890624,-0.0012216945178806782,0.00129805039614439,-0.00015271181473508477
1761370062730622200,8.099622314453125,-0.0006108472589403391,0.00129805039614439,-0.00015271181473508477
1761370062749234400,8.118234375,-0.0012216945178806782,0.0019088976550847292,-0.00015271181473508477
1761370062767844900,8.136844970703125,-0.0012216945178806782,0.00129805039614439,-0.00015271181473508477
1761370062786456800,8.155456787109374,-0.0018325417768210173,0.00129805039614439,-0.00015271181473508477
1761370062805067300,8.1740673828125,-0.0006108472589403391,0.0025197449140250683,-0.00015271181473508477
1761370062823679200,8.19267919921875,-0.0012216945178806782,0.00129805039614439,-0.00015271181473508477
1761370062842289700,8.21128955078125,-0.0012216945178806782,0.00129805039614439,-0.00015271181473508477
1761370062860902000,8.22990185546875,-0.0012216945178806782,0.00129805039614439,-0.00015271181473508477
1761370062879512000,8.248511962890625,-0.0006108472589403391,0.0019088976550847292,0.0005344913806766272
1761370062898124300,8.267124267578126,-0.0012216945178806782,0.00129805039614439,0.0005344913806766272
1761370062916734700,8.285734619140625,-0.0012216945178806782,0.00129805039614439,-0.00015271181473508477
1761370062935346700,8.3043466796875,-0.0012216945178806782,0.0025197449140250683,-0.00015271181473508477
1761370062953957000,8.32295703125,-0.0018325417768210173,0.00129805039614439,-0.00015271181473508477
1761370062972569000,8.341569091796876,0,0.0019088976550847292,-0.00015271181473508477
1761370062991179500,8.360179443359375,-0.0012216945178806782,0.00129805039614439,-0.00015271181473508477
1761370063009791700,8.378791748046876,-0.0012216945178806782,0.00129805039614439,0.0005344913806766272
1761370063028402200,8.397402099609375,-0.0018325417768210173,0.00129805039614439,0.0005344913806766272
1761370063047014100,8.41601416015625,-0.0012216945178806782,0.00129805039614439,-0.0007635590736754239
1761370063065624600,8.43462451171875,-0.0012216945178806782,0.0019088976550847292,0.0005344913806766272
1761370063084236500,8.453236572265626,-0.0012216945178806782,0.0019088976550847292,0.0005344913806766272
1761370063102847000,8.471846923828124,-0.0024433890357613564,0.00129805039614439,-0.0007635590736754239
1761370063121459000,8.490458984375,-0.0006108472589403391,0.00129805039614439,-0.0007635590736754239
1761370063140069400,8.5090693359375,-0.0006108472589403391,0.0019088976550847292,-0.00015271181473508477
1761370063158681600,8.527681640625,-0.0012216945178806782,0.0019088976550847292,-0.0007635590736754239
1761370063177292000,8.5462919921875,-0.0012216945178806782,0.0019088976550847292,0.0005344913806766272
1761370063195904000,8.564904052734375,-0.0012216945178806782,0.0025197449140250683,-0.00015271181473508477
1761370063214514400,8.583514404296874,-0.0006108472589403391,0.0019088976550847292,0.0005344913806766272
1761370063233126400,8.60212646484375,-0.0006108472589403391,0.00129805039614439,-0.00015271181473508477
1761370063251736800,8.62073681640625,0,0.0019088976550847292,-0.00015271181473508477
1761370063270348800,8.639348876953125,-0.0012216945178806782,0.0019088976550847292,0.0005344913806766272
1761370063288959200,8.657959228515624,-0.0012216945178806782,0.0019088976550847292,-0.0007635590736754239
1761370063307571500,8.676571533203125,-0.0012216945178806782,0.00129805039614439,-0.00015271181473508477
1761370063326182000,8.695181884765624,-0.0012216945178806782,0.0019088976550847292,0.0005344913806766272
1761370063344793900,8.7137939453125,-0.0006108472589403391,0.000687203137204051,-0.0007635590736754239
1761370063363404300,8.732404296875,-0.0006108472589403391,0.0019088976550847292,-0.0007635590736754239
1761370063382016300,8.751016357421875,-0.0012216945178806782,0.0019088976550847292,-0.0007635590736754239
1761370063400626700,8.769626708984376,-0.0018325417768210173,0.00129805039614439,-0.00015271181473508477
1761370063419239000,8.788239013671875,0,0.00129805039614439,-0.0007635590736754239
1761370063437849000,8.80684912109375,-0.0012216945178806782,0.0019088976550847292,0.0005344913806766272
1761370063456461300,8.82546142578125,-0.0012216945178806782,0.000687203137204051,-0.00015271181473508477
1761370063475071700,8.84407177734375,-0.0006108472589403391,0.0019088976550847292,0.0005344913806766272
1761370063493683700,8.86268359375,-0.0012216945178806782,0.000687203137204051,-0.00015271181473508477
1761370063512294100,8.881294189453126,-0.0018325417768210173,0.0019088976550847292,-0.00015271181473508477
1761370063530906000,8.899906005859375,-0.0012216945178806782,0.0019088976550847292,-0.00015271181473508477
1761370063549516500,8.9185166015625,-0.0012216945178806782,0.0019088976550847292,-0.00015271181473508477
1761370063568128500,8.93712841796875,-0.0006108472589403391,0.00129805039614439,-0.00015271181473508477
1761370063586739000,8.955739013671876,-0.0012216945178806782,0.000687203137204051,-0.00015271181473508477
1761370063605351200,8.97435107421875,-0.0012216945178806782,0.00129805039614439,-0.0007635590736754239
1761370063623961600,8.992961669921876,-0.0012216945178806782,0.0019088976550847292,-0.00015271181473508477
1761370063642573600,9.011573486328125,-0.0012216945178806782,0.000687203137204051,0.0005344913806766272
1761370063661184000,9.03018408203125,-0.0012216945178806782,0.00129805039614439,0.0005344913806766272
1761370063679796000,9.0487958984375,-0.0012216945178806782,0.00129805039614439,0.0005344913806766272
1761370063698406400,9.067406494140625,-0.0018325417768210173,0.00129805039614439,-0.0007635590736754239
1761370063717018400,9.086018310546875,-0.0018325417768210173,0.00129805039614439,-0.00015271181473508477
1761370063735628800,9.10462890625,-0.0012216945178806782,0.00129805039614439,-0.00015271181473508477
1761370063754241000,9.123240966796875,-0.0012216945178806782,0.0019088976550847292,0.0005344913806766272
1761370063772851500,9.1418515625,-0.0012216945178806782,0.00129805039614439,0.0005344913806766272
1761370063791463400,9.16046337890625,-0.0006108472589403391,0.00129805039614439,-0.0007635590736754239
1761370063810073900,9.179073974609375,-0.0018325417768210173,0.00129805039614439,-0.0007635590736754239
1761370063828685800,9.197685791015624,-0.0012216945178806782,0.00129805039614439,-0.0007635590736754239
1761370063847296300,9.216296142578125,-0.0006108472589403391,0.00129805039614439,-0.00015271181473508477
1761370063865908200,9.234908203125,-0.0012216945178806782,0.0019088976550847292,0.0005344913806766272
1761370063884518700,9.2535185546875,-0.0012216945178806782,0.00129805039614439,-0.00015271181473508477
1761370063903131000,9.272130859375,-0.0012216945178806782,0.0019088976550847292,-0.00015271181473508477
1761370063921741300,9.2907412109375,-0.0012216945178806782,0.00129805039614439,0.0005344913806766272
1761370063940353300,9.309353271484374,-0.0006108472589403391,0.00129805039614439,-0.00015271181473508477
1761370063958963700,9.327963623046875,-0.0012216945178806782,0.000687203137204051,0.0005344913806766272
1761370063977575700,9.34657568359375,-0.0006108472589403391,0.0019088976550847292,-0.00015271181473508477
1761370063996186000,9.36518603515625,-0.0012216945178806782,0.0019088976550847292,-0.00015271181473508477
1761370064014798000,9.383798095703124,-0.0012216945178806782,0.0019088976550847292,-0.00015271181473508477
1761370064033408500,9.402408447265625,-0.0012216945178806782,0.0019088976550847292,-0.0007635590736754239
1761370064052020700,9.421020751953124,-0.0012216945178806782,0.0019088976550847292,-0.0007635590736754239
1761370064070631200,9.439631103515625,-0.0006108472589403391,0.0019088976550847292,0.0005344913806766272
1761370064089243100,9.4582431640625,-0.0006108472589403391,0.00129805039614439,-0.00015271181473508477
1761370064107853600,9.476853515625,-0.0012216945178806782,0.00129805039614439,0.0005344913806766272
1761370064126465500,9.495465576171876,-0.0006108472589403391,0.0025197449140250683,0.0005344913806766272
1761370064145076000,9.514075927734375,-0.0018325417768210173,0.0019088976550847292,-0.00015271181473508477
1761370064163688000,9.53268798828125,-0.0012216945178806782,0.00129805039614439,-0.0007635590736754239
1761370064182298400,9.55129833984375,-0.0012216945178806782,0.0019088976550847292,0.0005344913806766272
1761370064200910600,9.56991064453125,-0.0012216945178806782,0.00129805039614439,-0.00015271181473508477
1761370064219521000,9.58852099609375,-0.0012216945178806782,0.00129805039614439,-0.00015271181473508477
1761370064238133000,9.607133056640626,-0.0012216945178806782,0.0019088976550847292,-0.00015271181473508477
1761370064256743400,9.625743408203125,-0.0012216945178806782,0.0019088976550847292,0.0005344913806766272
1761370064275355400,9.64435546875,-0.0012216945178806782,0.0019088976550847292,0.0005344913806766272
1761370064293965800,9.6629658203125,-0.0012216945178806782,0.0019088976550847292,-0.00015271181473508477
1761370064312577800,9.681577880859376,-0.0006108472589403391,0.0019088976550847292,-0.00015271181473508477
1761370064331188200,9.700188232421874,-0.0006108472589403391,0.000687203137204051,0.0005344913806766272
1761370064349800400,9.718800537109376,-0.0012216945178806782,0.0019088976550847292,-0.00015271181473508477
1761370064368411000,9.737410888671874,-0.0012216945178806782,0.00129805039614439,-0.001374406274408102
1761370064387022800,9.75602294921875,-0.0018325417768210173,0.0019088976550847292,-0.0007635590736754239
1761370064405633300,9.77463330078125,-0.0012216945178806782,0.000687203137204051,-0.00015271181473508477
1761370064424245200,9.793245361328125,-0.0006108472589403391,0.00129805039614439,0.0005344913806766272
1761370064442855700,9.811855712890624,-0.0012216945178806782,0.0019088976550847292,0.0011453386396169662
1761370064461467600,9.830467529296875,-0.0012216945178806782,0.0019088976550847292,-0.00015271181473508477
1761370064480078000,9.849078125,-0.0006108472589403391,0.0019088976550847292,-0.00015271181473508477
1761370064498690300,9.867690185546875,-0.0006108472589403391,0.0019088976550847292,-0.0007635590736754239
1761370064517300700,9.88630078125,-0.0012216945178806782,0.0019088976550847292,-0.00015271181473508477
1761370064535912700,9.90491259765625,-0.0012216945178806782,0.000687203137204051,-0.00015271181473508477
1761370064554523100,9.923523193359374,-0.0018325417768210173,0.0019088976550847292,0.0005344913806766272
1761370064573135000,9.942135009765625,-0.0012216945178806782,0.0019088976550847292,-0.00015271181473508477
1761370064591745500,9.96074560546875,-0.0012216945178806782,0.00129805039614439,-0.00015271181473508477
1761370064610357800,9.979357666015625,-0.0006108472589403391,0.0019088976550847292,-0.00015271181473508477
1761370064628968000,9.997968017578126,-0.0012216945178806782,0.00129805039614439,-0.00015271181473508477
1761370064647580200,10.016580078125,-0.0018325417768210173,0.00129805039614439,0.0005344913806766272
1761370064666190600,10.035190673828126,-0.0006108472589403391,0.00129805039614439,-0.00015271181473508477
1761370064684802600,10.053802490234375,-0.0012216945178806782,0.00129805039614439,0.0005344913806766272
1761370064703413000,10.0724130859375,-0.0012216945178806782,0.00129805039614439,-0.00015271181473508477
1761370064722025000,10.09102490234375,-0.0012216945178806782,0.0019088976550847292,0.0005344913806766272
1761370064740635400,10.109635498046876,-0.0006108472589403391,0.0019088976550847292,-0.00015271181473508477
1761370064759247600,10.12824755859375,-0.0006108472589403391,0.0019088976550847292,0.0005344913806766272
1761370064777858000,10.146858154296876,-0.0006108472589403391,0.00129805039614439,0.0005344913806766272
1761370064796470000,10.165469970703125,-0.0012216945178806782,0.0025197449140250683,-0.00015271181473508477
1761370064815080400,10.18408056640625,-0.0012216945178806782,0.000687203137204051,-0.00015271181473508477
1761370064833692400,10.2026923828125,-0.0012216945178806782,0.00129805039614439,-0.001374406274408102
1761370064852302800,10.221302734375,-0.0018325417768210173,0.0019088976550847292,0.0005344913806766272
1761370064870914800,10.239914794921875,-0.0012216945178806782,0.0019088976550847292,-0.00015271181473508477
1761370064889525200,10.258525146484375,-0.0006108472589403391,0.0019088976550847292,-0.00015271181473508477
1761370064908137500,10.277137451171875,-0.0006108472589403391,0.000687203137204051,-0.00015271181473508477
1761370064926748000,10.295747802734375,-0.0006108472589403391,0.0019088976550847292,0.0005344913806766272
1761370064945360000,10.31435986328125,-0.0012216945178806782,0.0019088976550847292,-0.0007635590736754239
1761370064963970300,10.33297021484375,-0.0012216945178806782,0.0019088976550847292,-0.00015271181473508477
1761370064982582300,10.351582275390625,-0.0018325417768210173,0.0019088976550847292,0.0005344913806766272
1761370065001192700,10.370192626953125,-0.0012216945178806782,0.0019088976550847292,-0.00015271181473508477
1761370065019804700,10.3888046875,-0.0012216945178806782,0.00129805039614439,0.0005344913806766272
1761370065038415000,10.4074150390625,-0.0006108472589403391,0.0019088976550847292,-0.00015271181473508477
1761370065057027300,10.42602734375,-0.0012216945178806782,0.00129805039614439,-0.00015271181473508477
1761370065075637800,10.4446376953125,-0.0012216945178806782,0.0025197449140250683,-0.00015271181473508477
1761370065094249700,10.463249755859374,-0.0006108472589403391,0.00129805039614439,-0.0007635590736754239
1761370065112860200,10.481860107421875,-0.0006108472589403391,0.0025197449140250683,-0.00015271181473508477
1761370065131472100,10.50047216796875,-0.0012216945178806782,0.00129805039614439,-0.0007635590736754239
1761370065150082600,10.51908251953125,-0.0006108472589403391,0.00129805039614439,-0.00015271181473508477
1761370065168694800,10.53769482421875,-0.0012216945178806782,0.0019088976550847292,-0.0007635590736754239
1761370065187305200,10.55630517578125,-0.0006108472589403391,0.00129805039614439,-0.00015271181473508477
1761370065205917200,10.574917236328124,-0.0006108472589403391,0.00129805039614439,0.0005344913806766272
1761370065224527600,10.593527587890625,-0.0012216945178806782,0.00129805039614439,-0.00015271181473508477
1761370065243139600,10.6121396484375,-0.0012216945178806782,0.00129805039614439,-0.00015271181473508477
1761370065261750000,10.63075,-0.0018325417768210173,0.00129805039614439,-0.00015271181473508477
1761370065280362000,10.649362060546874,-0.0012216945178806782,0.00129805039614439,-0.00015271181473508477
1761370065298972400,10.667972412109375,-0.0012216945178806782,0.00129805039614439,-0.0007635590736754239
1761370065317584600,10.686584716796874,-0.0012216945178806782,0.0019088976550847292,-0.00015271181473508477
1761370065336194800,10.70519482421875,-0.0012216945178806782,0.00129805039614439,-0.00015271181473508477
1761370065354807000,10.72380712890625,-0.0006108472589403391,0.000687203137204051,0.0005344913806766272
1761370065373417500,10.74241748046875,-0.0006108472589403391,0.00007635590736754239,-0.00015271181473508477
1761370065392029400,10.761029541015626,-0.0018325417768210173,0.0019088976550847292,-0.0007635590736754239
1761370065410640000,10.779639892578125,-0.0012216945178806782,0.0025197449140250683,-0.00015271181473508477
1761370065429251800,10.798251953125,-0.0006108472589403391,0.00129805039614439,-0.00015271181473508477
1761370065447862300,10.8168623046875,-0.0006108472589403391,0.0019088976550847292,0.0005344913806766272
1761370065466474500,10.835474609375,-0.0018325417768210173,0.00129805039614439,-0.0007635590736754239
1761370065485085000,10.8540849609375,-0.0012216945178806782,0.0019088976550847292,-0.0007635590736754239
1761370065503697000,10.87269677734375,-0.0006108472589403391,0.0019088976550847292,-0.00015271181473508477
1761370065522307300,10.891307373046875,-0.0012216945178806782,0.00129805039614439,-0.00015271181473508477
1761370065540919300,10.909919189453126,-0.0012216945178806782,0.00129805039614439,0.0005344913806766272
1761370065559529700,10.92852978515625,-0.0012216945178806782,0.0019088976550847292,0.0005344913806766272
1761370065578141700,10.9471416015625,-0.0012216945178806782,0.0019088976550847292,-0.00015271181473508477
1761370065596752100,10.965752197265624,-0.0012216945178806782,0.0019088976550847292,-0.00015271181473508477
1761370065615364400,10.9843642578125,-0.0012216945178806782,0.00129805039614439,-0.0007635590736754239
1761370065633974800,11.002974853515624,-0.0012216945178806782,0.00129805039614439,0.0005344913806766272
1761370065652586800,11.021586669921875,-0.0012216945178806782,0.00129805039614439,-0.00015271181473508477
1761370065671197200,11.040197265625,-0.0012216945178806782,0.00129805039614439,-0.0007635590736754239
1761370065689809200,11.05880908203125,-0.0012216945178806782,0.00129805039614439,0.0005344913806766272
1761370065708419600,11.077419677734374,-0.0012216945178806782,0.0019088976550847292,-0.00015271181473508477
1761370065727031600,11.096031494140625,-0.0012216945178806782,0.00129805039614439,0.0005344913806766272
1761370065745642000,11.11464208984375,-0.0012216945178806782,0.0019088976550847292,0.0005344913806766272
1761370065764254200,11.133254150390625,-0.0006108472589403391,0.00129805039614439,0.0005344913806766272
1761370065782864600,11.15186474609375,-0.0012216945178806782,0.000687203137204051,0.0005344913806766272
1761370065801476600,11.1704765625,-0.0006108472589403391,0.00129805039614439,-0.00015271181473508477
1761370065820087000,11.189087158203124,-0.0012216945178806782,0.0019088976550847292,-0.00015271181473508477
1761370065838699000,11.207698974609375,-0.0012216945178806782,0.00129805039614439,0.0005344913806766272
1761370065857309400,11.226309326171876,-0.0006108472589403391,0.0019088976550847292,-0.00015271181473508477
1761370065875921400,11.24492138671875,-0.0018325417768210173,0.00129805039614439,-0.00015271181473508477
1761370065894532000,11.263531982421876,-0.0012216945178806782,0.00129805039614439,-0.00015271181473508477
1761370065913144000,11.28214404296875,-0.0012216945178806782,0.00129805039614439,0.0005344913806766272
1761370065931754500,11.30075439453125,-0.0006108472589403391,0.0019088976550847292,-0.0007635590736754239
1761370065950366500,11.319366455078125,-0.0006108472589403391,0.00129805039614439,-0.00015271181473508477
1761370065968977000,11.337976806640626,-0.0006108472589403391,0.00129805039614439,-0.00015271181473508477
1761370065987588900,11.3565888671875,-0.0012216945178806782,0.00129805039614439,0.0005344913806766272
1761370066006199300,11.37519921875,-0.0018325417768210173,0.008017370477318764,0.0011453386396169662
1761370066024811500,11.3938115234375,-0.0018325417768210173,0.0037414394319057465,0.0005344913806766272
1761370066043421700,11.412421630859376,-0.0012216945178806782,0.0019088976550847292,-0.00015271181473508477
1761370066062034000,11.431033935546875,-0.0012216945178806782,0.000687203137204051,-0.00015271181473508477
1761370066080644400,11.449644287109376,-0.0006108472589403391,-0.0029778804164379835,-0.001374406274408102
1761370066099256300,11.46825634765625,-0.0012216945178806782,0.00129805039614439,-0.00015271181473508477
