time,seconds_elapsed,z,y,x
1761371233009232000,0.20023193359375,0.02660989761352539,-0.11728668212890625,0.0063041746616363525
1761371233027842800,0.2188427734375,0.04142475128173828,-0.09151363372802734,0.0934312641620636
1761371233046455300,0.237455322265625,0.11593437194824219,-0.0940408706665039,0.016371026635169983
1761371233065066200,0.256066162109375,0.09227895736694336,-0.03983783721923828,-0.00031591951847076416
1761371233083678700,0.2746787109375,0.254544734954834,-0.04546642303466797,-0.15534277260303497
1761371233102289700,0.29328955078125,0.23499679565429688,-0.030364036560058594,-0.19362621009349823
1761371233120902100,0.311902099609375,-0.0543665885925293,-0.07536792755126953,-0.1511000096797943
1761371233139513000,0.33051318359375,0.037072181701660156,0.09003067016601562,-0.19996684789657593
1761371233158125300,0.349125244140625,0.019809722900390625,0.05354785919189453,-0.06929746270179749
1761371233176736300,0.367736328125,0.43648815155029297,0.0012454986572265625,0.028049059212207794
1761371233195348700,0.3863486328125,0.3025507926940918,-0.15551090240478516,0.011967785656452179
1761371233213959700,0.404959716796875,-0.18114662170410156,0.0735321044921875,-0.07957442849874496
1761371233232572200,0.423572265625,-0.697054386138916,0.12662601470947266,-0.13136473298072815
1761371233251183000,0.44218310546875,-0.6055545806884766,0.12313556671142578,0.24234579503536224
1761371233269795600,0.460795654296875,-0.07832098007202148,-0.03481578826904297,0.2594376802444458
1761371233288406500,0.479406494140625,0.07132816314697266,-0.02304840087890625,0.22179338335990906
1761371233307019000,0.49801904296875,-0.12465667724609375,-0.006575584411621094,0.34314021468162537
1761371233325630000,0.5166298828125,-0.29367589950561523,-0.06021881103515625,0.3462355136871338
1761371233344242400,0.535242431640625,-0.3243136405944824,-0.06977367401123047,0.32298743724823
1761371233362853400,0.553853271484375,-0.2217082977294922,-0.039671897888183594,0.2677486538887024
1761371233381465900,0.5724658203125,-0.005618572235107422,-0.10840034484863281,0.20884092152118683
1761371233400076800,0.591076904296875,0.21690607070922852,-0.058609962463378906,0.1603699028491974
1761371233418689300,0.609689208984375,0.2727222442626953,-0.030422210693359375,0.031766608357429504
1761371233437300200,0.62830029296875,0.23381710052490234,0.025971412658691406,0.13539527356624603
1761371233455912400,0.646912353515625,0.28090858459472656,-0.032858848571777344,0.08206526935100555
1761371233474523400,0.6655234375,0.047434329986572266,0.047393798828125,-0.005862891674041748
1761371233493136000,0.684135986328125,0.01998138427734375,0.12165451049804688,-0.06221114844083786
1761371233511746800,0.702746826171875,0.023455142974853516,0.013709068298339844,-0.140130877494812
1761371233530359300,0.721359375,0.04604005813598633,-0.02769947052001953,-0.16442620754241943
1761371233548970200,0.73997021484375,-0.0842738151550293,-0.04635143280029297,-0.09800978004932404
1761371233567582700,0.758582763671875,-0.16807937622070312,-0.11211490631103516,-0.048315033316612244
1761371233586193700,0.777193603515625,-0.34216737747192383,-0.10536766052246094,0.11429011821746826
1761371233604806100,0.79580615234375,-0.3833894729614258,-0.07418251037597656,0.10045713186264038
1761371233623417000,0.8144169921875,-0.3661627769470215,-0.06644916534423828,0.17120803892612457
1761371233642029600,0.833029541015625,-0.28612375259399414,-0.044648170471191406,0.17219014465808868
1761371233660640500,0.851640625,-0.15569114685058594,-0.021963119506835938,0.08396270871162415
1761371233679253000,0.8702529296875,0.06055593490600586,0.01003265380859375,0.01901860535144806
1761371233697864000,0.888864013671875,0.2464313507080078,0.06238079071044922,-0.05621172487735748
1761371233716476400,0.907476318359375,0.2974090576171875,0.09218120574951172,-0.09474104642868042
1761371233735087400,0.92608740234375,0.31094789505004883,0.0436553955078125,-0.0679301917552948
1761371233753699800,0.944699951171875,0.3717665672302246,0.012483596801757812,-0.14647161960601807
1761371233772310800,0.963310791015625,0.41100215911865234,-0.00041484832763671875,-0.1180892288684845
1761371233790923300,0.98192333984375,0.15117931365966797,-0.006076812744140625,-0.13769441843032837
1761371233809534200,1.0005341796875,-0.0793452262878418,-0.034867286682128906,-0.010934963822364807
1761371233828146700,1.019146728515625,0.04347562789916992,-0.08691596984863281,-0.17936334013938904
1761371233846757600,1.037757568359375,-0.3002772331237793,0.027919769287109375,0.05835515260696411
1761371233865370000,1.0563701171875,-0.3489055633544922,0.009769439697265625,0.06711086630821228
1761371233883981000,1.07498095703125,-0.32421016693115234,0.007679939270019531,0.11522343754768372
1761371233902593300,1.09359326171875,-0.2611236572265625,-0.0028476715087890625,0.05426385998725891
1761371233921204500,1.11220458984375,-0.07888031005859375,-0.041778564453125,0.02564084529876709
1761371233939816700,1.130816650390625,0.09559106826782227,-0.01938915252685547,0.01772579550743103
1761371233958427600,1.149427734375,0.17584705352783203,0.047333717346191406,-0.016104519367218018
1761371233977040100,1.1680400390625,0.263671875,0.10582637786865234,-0.06045426428318024
1761371233995651000,1.186651123046875,0.270784854888916,0.08891773223876953,0.0005707442760467529
1761371234014263600,1.205263671875,0.19536590576171875,0.008402824401855469,-0.014369308948516846
1761371234032874500,1.22387451171875,0.14371776580810547,-0.04350471496582031,0.0067822933197021484
1761371234051487000,1.242487060546875,-0.0029087066650390625,-0.06175518035888672,-0.003360569477081299
1761371234070098000,1.261097900390625,-0.08101224899291992,-0.05440044403076172,-0.00932842493057251
1761371234088710400,1.27971044921875,-0.0957341194152832,-0.04230213165283203,-0.07009711861610413
1761371234107321300,1.2983212890625,-0.14234113693237305,-0.02167987823486328,-0.07206225395202637
1761371234125933800,1.316933837890625,-0.18670892715454102,0.00023365020751953125,0.014374077320098877
1761371234144544800,1.335544677734375,-0.1278095245361328,0.028043746948242188,0.09323292970657349
1761371234163157200,1.3541572265625,0.08582115173339844,0.014719009399414062,0.12025183439254761
1761371234181768200,1.372768310546875,0.1711406707763672,-0.05111408233642578,0.12140363454818726
1761371234200380700,1.391380615234375,0.07284402847290039,-0.050060272216796875,0.14436295628547668
1761371234218991600,1.40999169921875,-0.047568321228027344,0.012806892395019531,0.06846323609352112
1761371234237604000,1.42860400390625,0.04533529281616211,0.04625129699707031,-0.05939763784408569
1761371234256215000,1.447215087890625,0.25423526763916016,0.04184436798095703,-0.1465730518102646
1761371234274827500,1.46582763671875,0.07180118560791016,0.061519622802734375,0.011783719062805176
1761371234293438500,1.4844384765625,-0.031992435455322266,0.034140586853027344,0.054114967584609985
1761371234312051000,1.503051025390625,-0.09445810317993164,-0.014827728271484375,0.06337115168571472
1761371234330662000,1.521661865234375,-0.11921501159667969,-0.051672935485839844,0.016260594129562378
1761371234349274400,1.5402744140625,-0.0651249885559082,-0.1078023910522461,0.02454128861427307
1761371234367885300,1.55888525390625,-0.019130229949951172,-0.10839653015136719,0.07993090152740479
1761371234386497800,1.577497802734375,-0.058704376220703125,-0.04166221618652344,0.06214401125907898
1761371234405108700,1.596108642578125,-0.057736873626708984,0.02073383331298828,0.05844321846961975
1761371234423721200,1.61472119140625,0.022867679595947266,-0.017281532287597656,0.015380769968032837
1761371234442332200,1.633332275390625,-0.013288021087646484,-0.03522968292236328,-0.022254854440689087
1761371234460944600,1.651944580078125,-0.07064247131347656,0.015811920166015625,-0.005339264869689941
1761371234479555600,1.6705556640625,-0.0339508056640625,0.031002044677734375,-0.013829082250595093
1761371234498168000,1.68916796875,0.07435083389282227,0.05237007141113281,-0.018445700407028198
1761371234516779000,1.707779052734375,0.1221613883972168,0.039582252502441406,-0.012795954942703247
1761371234535391500,1.7263916015625,0.10996341705322266,0.013955116271972656,0.010827034711837769
1761371234554002400,1.74500244140625,0.03933525085449219,-0.016204833984375,0.0437542200088501
1761371234572615000,1.763614990234375,-0.0028829574584960938,-0.02706432342529297,0.05866721272468567
1761371234591225900,1.782225830078125,-0.027285099029541016,-0.0212249755859375,0.020357131958007812
1761371234609838300,1.80083837890625,-0.0752415657043457,-0.005878448486328125,-0.009725093841552734
1761371234628449300,1.81944921875,-0.14964914321899414,-0.0057888031005859375,-0.022861629724502563
1761371234647061800,1.838061767578125,-0.19963598251342773,-0.010640144348144531,0.011337637901306152
1761371234665672700,1.856672607421875,-0.10581541061401367,-0.018247604370117188,-0.04470762610435486
1761371234684285200,1.87528515625,0.09740686416625977,-0.007456779479980469,-0.10767994821071625
1761371234702896000,1.893896240234375,0.0968179702758789,0.018468856811523438,-0.07064631581306458
1761371234721508600,1.912508544921875,0.0597686767578125,0.0013952255249023438,-0.021812140941619873
1761371234740119600,1.93111962890625,0.15134334564208984,-0.04856681823730469,-0.01173362135887146
1761371234758732000,1.94973193359375,0.15356731414794922,-0.037841796875,-0.011508524417877197
1761371234777343000,1.968343017578125,0.04947805404663086,0.00228118896484375,-0.011990934610366821
1761371234795955200,1.986955078125,-0.02811908721923828,0.018209457397460938,-0.029127120971679688
1761371234814566400,2.00556640625,-0.03674507141113281,0.017986297607421875,-0.005117565393447876
1761371234833178600,2.0241787109375,0.01861286163330078,0.02648639678955078,0.011759698390960693
1761371234851789600,2.04278955078125,0.009973526000976562,0.057572364807128906,0.010603994131088257
1761371234870402000,2.061402099609375,0.01843404769897461,0.03343486785888672,-0.006605356931686401
1761371234889013200,2.08001318359375,-0.013538837432861328,0.0013446807861328125,0.01886606216430664
1761371234907625500,2.09862548828125,-0.0025916099548339844,-0.03207969665527344,0.06756511330604553
1761371234926236400,2.117236328125,-0.020279407501220703,-0.047863006591796875,0.03153136372566223
1761371234944849000,2.135848876953125,-0.04676628112792969,-0.039748191833496094,0.0012229681015014648
1761371234963459800,2.1544599609375,-0.028869152069091797,0.006047248840332031,-0.002271711826324463
1761371234982072300,2.173072265625,0.034708499908447266,0.03388214111328125,-0.022123992443084717
1761371235000683300,2.191683349609375,0.08027982711791992,0.03736400604248047,0.002937614917755127
1761371235019295700,2.210295654296875,0.10933589935302734,0.014323234558105469,-0.0011230111122131348
1761371235037906700,2.22890673828125,0.10434770584106445,-0.0021409988403320312,0.02107447385787964
1761371235056519200,2.247519287109375,0.0021185874938964844,-0.025603294372558594,0.02220696210861206
1761371235075130000,2.266130126953125,-0.0534062385559082,-0.028713226318359375,-0.0021844804286956787
1761371235093742600,2.28474267578125,-0.047017574310302734,-0.01729106903076172,-0.01999664306640625
1761371235112353500,2.303353515625,-0.03711652755737305,-0.02455615997314453,-0.01565653085708618
1761371235130966000,2.321966064453125,-0.0868382453918457,0.0018110275268554688,0.044436126947402954
1761371235149577000,2.340576904296875,-0.00014066696166992188,-0.019140243530273438,0.03771963715553284
1761371235168189400,2.359189453125,-0.0548853874206543,0.0031824111938476562,0.06411939859390259
1761371235186800400,2.37780029296875,-0.09297037124633789,-0.004786491394042969,0.05403199791908264
1761371235205412900,2.396412841796875,-0.06131601333618164,-0.02319622039794922,0.05336177349090576
1761371235224023800,2.41502392578125,-0.024623394012451172,0.010883331298828125,0.06081327795982361
1761371235242636300,2.43363623046875,0.06705904006958008,0.01796722412109375,0.016436249017715454
1761371235261247200,2.452247314453125,0.1507120132446289,0.03762626647949219,-0.029211193323135376
1761371235279859700,2.470859619140625,0.12425994873046875,0.02724456787109375,0.0012295246124267578
1761371235298470700,2.489470703125,0.10999584197998047,-0.0024471282958984375,-0.03916120529174805
1761371235317083100,2.508083251953125,0.026484012603759766,-0.02456378936767578,-0.014765918254852295
1761371235335694000,2.526694091796875,-0.06457996368408203,-0.028801918029785156,-0.058620378375053406
1761371235354306600,2.545306640625,-0.08205127716064453,-0.05064868927001953,-0.04984365403652191
1761371235372917500,2.56391748046875,-0.09568405151367188,-0.026373863220214844,-0.021434426307678223
1761371235391530000,2.582530029296875,-0.02578449249267578,-0.014128684997558594,-0.031729429960250854
1761371235410141000,2.601140869140625,0.023398399353027344,0.015960693359375,0.018613338470458984
1761371235428753400,2.61975341796875,-0.0011501312255859375,0.045177459716796875,0.03222343325614929
1761371235447364400,2.6383642578125,0.02009296417236328,0.06607341766357422,0.03189626336097717
1761371235465976800,2.656976806640625,0.07812213897705078,0.02067089080810547,-0.024570167064666748
1761371235484587800,2.675587890625,0.0773458480834961,0.018067359924316406,-0.02328929305076599
1761371235503200300,2.6942001953125,0.0850367546081543,-0.011014938354492188,-0.026127636432647705
1761371235521811200,2.712811279296875,0.05858659744262695,-0.021299362182617188,-0.016239017248153687
1761371235540423700,2.731423583984375,-0.02094411849975586,-0.009960174560546875,-0.043977200984954834
1761371235559034600,2.75003466796875,-0.020583629608154297,0.0011262893676757812,-0.06173419952392578
1761371235577647000,2.768647216796875,0.019942760467529297,-0.012350082397460938,-0.0676412284374237
1761371235596258000,2.787258056640625,-0.10510587692260742,-0.024507522583007812,-0.021918773651123047
1761371235614870500,2.80587060546875,-0.10146331787109375,-0.007184028625488281,-0.026425182819366455
1761371235633481500,2.8244814453125,-0.00540924072265625,-0.004120826721191406,-0.012393832206726074
1761371235652094000,2.843093994140625,-0.011233329772949219,0.015421867370605469,0.010850667953491211
1761371235670705000,2.861704833984375,0.030583858489990234,0.012885093688964844,0.015186399221420288
1761371235689317400,2.8803173828125,0.038435935974121094,-0.015448570251464844,-0.0020786821842193604
1761371235707928300,2.89892822265625,-0.005347251892089844,-0.0214080810546875,-0.024974197149276733
1761371235726540800,2.917540771484375,-0.03492593765258789,0.013082504272460938,0.003643721342086792
1761371235745151700,2.93615185546875,-0.007605075836181641,0.006608009338378906,0.05864685773849487
1761371235763764200,2.95476416015625,0.0358881950378418,-0.011598587036132812,0.10742580890655518
1761371235782375200,2.973375244140625,0.0007762908935546875,0.005726814270019531,0.10803326964378357
1761371235800987600,2.991987548828125,0.027939796447753906,0.00811767578125,0.05524146556854248
1761371235819598600,3.0105986328125,-0.02814960479736328,0.008493423461914062,0.052318841218948364
1761371235838210800,3.0292109375,-0.04378509521484375,0.014448165893554688,0.07752108573913574
1761371235856821800,3.04782177734375,0.022541046142578125,0.02013397216796875,0.052803993225097656
1761371235875434500,3.0664345703125,0.08807516098022461,-0.0033111572265625,0.06459656357765198
1761371235894045400,3.08504541015625,0.0905451774597168,-0.013071060180664062,-0.010931521654129028
1761371235912657700,3.10365771484375,0.05956125259399414,0.00008296966552734375,-0.057915255427360535
1761371235931268900,3.122268798828125,0.04152059555053711,-0.0016222000122070312,-0.06090596318244934
1761371235949881000,3.140881103515625,-0.017803668975830078,-0.01258087158203125,-0.0625782161951065
1761371235968492000,3.159491943359375,-0.04574775695800781,-0.034122467041015625,-0.07622630894184113
1761371235987104500,3.1781044921875,-0.034221649169921875,-0.021387100219726562,-0.06695380806922913
1761371236005715500,3.196715576171875,-0.05204296112060547,0.012272834777832031,-0.003742218017578125
1761371236024328000,3.215327880859375,0.05082893371582031,0.020682334899902344,0.01362350583076477
1761371236042939000,3.23393896484375,0.04872608184814453,-0.006966590881347656,0.04799151420593262
1761371236061551400,3.25255126953125,0.009717941284179688,-0.022045135498046875,0.027767181396484375
1761371236080162300,3.271162353515625,-0.004971981048583984,-0.012959480285644531,0.017154037952423096
1761371236098774800,3.28977490234375,-0.031810760498046875,0.000865936279296875,0.006601184606552124
1761371236117385700,3.3083857421875,-0.0419011116027832,-0.011180877685546875,-0.006199061870574951
1761371236135998200,3.326998291015625,-0.09309768676757812,-0.0031442642211914062,0.004518270492553711
1761371236154609200,3.345609130859375,-0.1400160789489746,-0.022040367126464844,0.01973816752433777
1761371236173221600,3.3642216796875,-0.15577316284179688,-0.02680206298828125,0.00708654522895813
1761371236191832600,3.38283251953125,-0.08164215087890625,-0.0048885345458984375,-0.08271604776382446
1761371236210445000,3.401445068359375,-0.07930612564086914,0.019855499267578125,-0.08497250080108643
1761371236229056000,3.420055908203125,0.13200759887695312,0.040589332580566406,-0.03168413043022156
1761371236247668500,3.43866845703125,0.20838594436645508,0.05423164367675781,-0.02607056498527527
1761371236266279400,3.457279541015625,0.22982454299926758,0.06294918060302734,-0.04540449380874634
1761371236284892000,3.475891845703125,0.14983701705932617,0.051479339599609375,-0.031203776597976685
1761371236303502800,3.4945029296875,0.07606935501098633,-0.004332542419433594,0.007807672023773193
1761371236322115300,3.513115234375,-0.021270275115966797,-0.03951835632324219,0.06569448113441467
1761371236340726300,3.531726318359375,-0.009211063385009766,-0.06943225860595703,0.06572529673576355
1761371236359338800,3.5503388671875,0.010228633880615234,-0.05953693389892578,0.02228507399559021
1761371236377949700,3.56894970703125,-0.16566085815429688,0.023285865783691406,0.015545308589935303
1761371236396562200,3.587562255859375,-0.16613388061523438,0.042006492614746094,-0.015026062726974487
1761371236415173000,3.606173095703125,-0.11994743347167969,0.031276702880859375,0.022065073251724243
1761371236433785600,3.62478564453125,-0.034232139587402344,0.014263153076171875,0.0774010717868805
1761371236452396500,3.643396484375,0.05017280578613281,0.0019006729125976562,0.1310945749282837
1761371236471009000,3.662009033203125,0.16264915466308594,-0.024170875549316406,0.09415361285209656
1761371236489620000,3.680619873046875,0.05913972854614258,-0.024770736694335938,0.05258747935295105
1761371236508232400,3.699232421875,0.008328437805175781,0.007309913635253906,-0.013485491275787354
1761371236526843400,3.717843505859375,0.042795658111572266,0.031325340270996094,-0.045544207096099854
1761371236545455900,3.736455810546875,0.023048877716064453,0.058951377868652344,-0.01665174961090088
1761371236564066800,3.75506689453125,0.04698371887207031,0.05703258514404297,-0.014687776565551758
1761371236582679300,3.77367919921875,0.04360675811767578,-0.0064487457275390625,-0.04320576786994934
1761371236601290200,3.792290283203125,-0.08844327926635742,-0.04870891571044922,-0.0670236349105835
1761371236619902700,3.81090283203125,-0.1126704216003418,-0.04154014587402344,-0.04969111084938049
1761371236638513700,3.829513671875,0.0036377906799316406,-0.05106544494628906,-0.02868989109992981
1761371236657126100,3.848126220703125,0.0469202995300293,-0.004795074462890625,-0.10414831340312958
1761371236675737000,3.866737060546875,-0.00950765609741211,0.03765678405761719,-0.024299651384353638
1761371236694349300,3.885349365234375,-0.08471441268920898,0.014684677124023438,0.027602165937423706
1761371236712960500,3.90396044921875,-0.14636993408203125,-0.010396003723144531,0.07385236024856567
1761371236731573000,3.922572998046875,-0.04648447036743164,-0.005751609802246094,0.09517505764961243
1761371236750183700,3.94118359375,0.0644373893737793,-0.013301849365234375,0.06585365533828735
1761371236768796200,3.959796142578125,0.05179786682128906,0.011147499084472656,0.048423200845718384
1761371236787407400,3.978407470703125,0.053929805755615234,0.01110076904296875,0.02536618709564209
1761371236806019600,3.99701953125,0.0684351921081543,-0.017465591430664062,0.028586387634277344
1761371236824630500,4.015630615234375,0.06497573852539062,-0.0384521484375,0.028816312551498413
1761371236843243000,4.034242919921875,0.029407024383544922,-0.007928848266601562,0.0032485127449035645
1761371236861854000,4.05285400390625,0.011658191680908203,0.009935379028320312,0.011190325021743774
1761371236880466400,4.071466552734375,-0.017907142639160156,-0.016831398010253906,0.014055728912353516
1761371236899077400,4.090077392578125,-0.021240711212158203,-0.016742706298828125,-0.002075284719467163
1761371236917689900,4.10868994140625,-0.005841732025146484,-0.0025014877319335938,-0.010603874921798706
1761371236936300800,4.12730078125,0.02073812484741211,0.03230762481689453,-0.006692320108413696
1761371236954913300,4.145913330078125,0.06339740753173828,0.04432201385498047,-0.03798702359199524
1761371236973524200,4.164524169921875,0.016384601593017578,0.006636619567871094,-0.039370208978652954
1761371236992136700,4.18313671875,-0.053330421447753906,-0.04314613342285156,-0.02057310938835144
1761371237010747600,4.20174755859375,-0.07247495651245117,-0.08121204376220703,0.007193416357040405
1761371237029360000,4.220360107421875,-0.035411834716796875,-0.06425952911376953,-0.04524660110473633
1761371237047971000,4.23897119140625,-0.0899653434753418,-0.047008514404296875,-0.0872952938079834
1761371237066583600,4.25758349609375,-0.14033222198486328,-0.06612396240234375,-0.11999115347862244
1761371237085194500,4.276194580078125,-0.17164373397827148,-0.02633380889892578,-0.1467188000679016
1761371237103807000,4.294806884765625,-0.10388517379760742,0.009160995483398438,-0.14252817630767822
1761371237122418000,4.31341796875,0.04223012924194336,0.06522560119628906,-0.11414821445941925
1761371237141030400,4.332030517578125,0.14970827102661133,0.0644083023071289,0.09944283962249756
1761371237159641300,4.350641357421875,0.18927955627441406,0.019832611083984375,0.188807874917984
1761371237178253800,4.36925390625,0.13458538055419922,0.007735252380371094,0.20487046241760254
1761371237196864800,4.38786474609375,0.1959538459777832,0.026154518127441406,0.09487849473953247
1761371237215477200,4.406477294921875,0.11310338973999023,0.027869224548339844,0.04837873578071594
1761371237234088200,4.425088134765625,-0.059929847717285156,0.05312156677246094,0.037917524576187134
1761371237252700700,4.44370068359375,-0.06732702255249023,0.036235809326171875,0.01227620244026184
1761371237271311600,4.4623115234375,-0.10155296325683594,0.020696640014648438,0.10869228839874268
1761371237289924000,4.480924072265625,-0.07449054718017578,0.013063430786132812,0.1406840682029724
1761371237308535000,4.49953515625,0.06980371475219727,0.02775096893310547,0.10887306928634644
1761371237327147500,4.5181474609375,0.06594181060791016,0.0013942718505859375,0.08922165632247925
1761371237345758500,4.536758544921875,-0.0053615570068359375,0.008622169494628906,0.019083082675933838
1761371237364371000,4.555370849609375,0.026707172393798828,-0.03368377685546875,-0.02070915699005127
1761371237382982000,4.57398193359375,0.07451963424682617,-0.032906532287597656,-0.04623648524284363
1761371237401594400,4.592594482421875,-0.026287555694580078,0.0030298233032226562,-0.07379049062728882
1761371237420205300,4.611205322265625,-0.06867170333862305,0.02885723114013672,-0.08741024136543274
1761371237438817800,4.62981787109375,-0.028885364532470703,0.014769554138183594,-0.0663892924785614
1761371237457428700,4.6484287109375,0.00012636184692382812,-0.0034627914428710938,-0.02825179696083069
1761371237476041200,4.667041259765625,-0.016108036041259766,-0.032889366149902344,0.02505543828010559
1761371237494652200,4.685652099609375,-0.048310279846191406,-0.04235363006591797,0.056544601917266846
1761371237513264600,4.7042646484375,-0.09004545211791992,-0.03211784362792969,0.09723314642906189
1761371237531875600,4.72287548828125,-0.11574316024780273,-0.00035572052001953125,0.09476783871650696
1761371237550488000,4.741488037109375,-0.06910896301269531,0.016989707946777344,0.09061864018440247
1761371237569099000,4.76009912109375,0.02058267593383789,0.00057220458984375,0.06682118773460388
1761371237587711500,4.77871142578125,0.007973670959472656,-0.006618499755859375,0.05907285213470459
1761371237606322400,4.797322509765625,-0.0629873275756836,-0.0061931610107421875,0.037759631872177124
1761371237624935000,4.815934814453125,-0.10098409652709961,0.00014400482177734375,0.0005074441432952881
1761371237643545900,4.8345458984375,-0.01751565933227539,0.0071258544921875,-0.067291259765625
1761371237662158300,4.853158447265625,0.13945674896240234,0.012915611267089844,-0.07125645875930786
1761371237680769300,4.871769287109375,0.17305469512939453,0.028120994567871094,-0.04795992374420166
1761371237699381800,4.8903818359375,0.07474136352539062,0.020607948303222656,-0.007139652967453003
1761371237717992700,4.90899267578125,-0.029273033142089844,-0.01006317138671875,0.004209280014038086
1761371237736605000,4.92760498046875,-0.034711360931396484,-0.018262863159179688,-0.012980729341506958
1761371237755216100,4.946216064453125,-0.054477691650390625,-0.02132129669189453,0.03165331482887268
1761371237773828600,4.96482861328125,-0.036353111267089844,0.0036764144897460938,0.025805890560150146
1761371237792439600,4.983439453125,-0.07574701309204102,0.0073070526123046875,0.053292304277420044
1761371237811052000,5.002052001953125,-0.11770868301391602,0.011740684509277344,0.057031869888305664
1761371237829663000,5.0206630859375,-0.10165023803710938,0.021863937377929688,0.06360659003257751
1761371237848275500,5.039275390625,-0.041898250579833984,0.01748371124267578,0.013996809720993042
1761371237866886400,5.057886474609375,-0.014422416687011719,-0.010135650634765625,0.031767308712005615
1761371237885498600,5.07649853515625,-0.016201019287109375,0.007838249206542969,0.010302513837814331
1761371237904109800,5.09510986328125,0.019433975219726562,0.02028656005859375,-0.012334465980529785
1761371237922722300,5.113722412109375,0.00038814544677734375,0.02770709991455078,-0.04134067893028259
1761371237941333200,5.132333251953125,0.0005626678466796875,0.009296417236328125,-0.0750630795955658
1761371237959945700,5.15094580078125,0.034407615661621094,0.007267951965332031,-0.07509565353393555
1761371237978556700,5.169556640625,0.10672903060913086,0.015644073486328125,-0.08515051007270813
1761371237997169200,5.188169189453125,0.052579402923583984,0.0202789306640625,-0.08197242021560669
1761371238015780000,5.206780029296875,-0.009416580200195312,-0.0076885223388671875,-0.08091852068901062
1761371238034392600,5.225392578125,-0.0665445327758789,-0.017145156860351562,-0.07401847839355469
1761371238053003500,5.24400341796875,-0.05794191360473633,-0.039005279541015625,0.007673472166061401
1761371238071616000,5.262615966796875,-0.01007843017578125,-0.01584911346435547,0.08460026979446411
1761371238090227000,5.28122705078125,0.06748628616333008,0.019683837890625,0.11149796843528748
1761371238108839400,5.29983935546875,0.10732889175415039,0.0644683837890625,0.07262244820594788
1761371238127450400,5.318450439453125,0.014131546020507812,0.08600616455078125,0.056348443031311035
1761371238146062800,5.337062744140625,-0.05982637405395508,0.04152870178222656,0.04362782835960388
1761371238164673800,5.355673828125,-0.06230735778808594,0.010815620422363281,0.003908514976501465
1761371238183286300,5.374286376953125,-0.09939718246459961,-0.01074981689453125,0.03167298436164856
1761371238201897200,5.392897216796875,-0.10946893692016602,-0.0045833587646484375,0.026538193225860596
1761371238220509700,5.411509765625,-0.03377342224121094,-0.012087821960449219,-0.025357991456985474
1761371238239120600,5.43012060546875,0.060735225677490234,-0.026510238647460938,-0.025180846452713013
1761371238257733000,5.448733154296875,0.2072310447692871,-0.021883010864257812,-0.0872642993927002
1761371238276344000,5.467343994140625,0.17458868026733398,-0.0077533721923828125,-0.09538501501083374
1761371238294956500,5.48595654296875,0.08617591857910156,-0.036716461181640625,-0.10624238848686218
1761371238313567500,5.5045673828125,0.021146774291992188,-0.045501708984375,-0.11793100833892822
1761371238332180000,5.523179931640625,-0.05297708511352539,-0.04843902587890625,-0.08623316884040833
1761371238350791000,5.541791015625,-0.10086202621459961,-0.0029811859130859375,-0.04347991943359375
1761371238369403400,5.5604033203125,-0.06235933303833008,0.02529144287109375,0.027771472930908203
1761371238388014300,5.579014404296875,-0.02275228500366211,0.040866851806640625,0.09727704524993896
1761371238406626800,5.597626708984375,0.00912618637084961,0.022731781005859375,0.11211457848548889
1761371238425237800,5.61623779296875,-0.0489192008972168,0.007588386535644531,0.11167463660240173
1761371238443850200,5.634850341796875,-0.05694723129272461,-0.03438282012939453,0.08132675290107727
1761371238462461200,5.653461181640625,-0.0756998062133789,-0.05304241180419922,0.06831774115562439
1761371238481073700,5.67207373046875,-0.13091516494750977,-0.03246498107910156,0.1160007119178772
1761371238499684600,5.6906845703125,-0.012507438659667969,-0.0076236724853515625,0.0547938346862793
1761371238518297000,5.709297119140625,0.04927539825439453,0.02507305145263672,0.020435750484466553
1761371238536908000,5.727907958984375,0.12456035614013672,0.02989482879638672,-0.03878641128540039
1761371238555520500,5.7465205078125,0.006312847137451172,0.02032947540283203,0.009069949388504028
1761371238574131500,5.76513134765625,-0.024730682373046875,-0.016142845153808594,-0.003646761178970337
1761371238592744000,5.783743896484375,0.08790397644042969,-0.04004669189453125,-0.08385005593299866
1761371238611355000,5.80235498046875,0.08832550048828125,-0.0055522918701171875,-0.10991662740707397
1761371238629967400,5.82096728515625,0.0455632209777832,0.024964332580566406,-0.07420870661735535
1761371238648578300,5.839578369140625,-0.0024919509887695312,0.012281417846679688,-0.01906833052635193
1761371238667190800,5.858190673828125,-0.016002178192138672,0.002376556396484375,0.018763750791549683
1761371238685801700,5.8768017578125,-0.03463268280029297,-0.009389877319335938,0.03044721484184265
1761371238704414200,5.895414306640625,-0.0202484130859375,-0.013312339782714844,0.01328781247138977
1761371238723025200,5.914025146484375,-0.011185646057128906,-0.012448310852050781,0.0201244056224823
1761371238741637600,5.9326376953125,-0.02600383758544922,0.004811286926269531,0.03944116830825806
1761371238760248600,5.95124853515625,-0.022509098052978516,0.015124320983886719,-0.04079616069793701
1761371238778861000,5.969861083984375,-0.018368244171142578,0.021170616149902344,-0.022602200508117676
1761371238797472000,5.988471923828125,0.03509235382080078,0.006061553955078125,-0.028505563735961914
1761371238816084500,6.00708447265625,0.1354222297668457,-0.012223243713378906,-0.060563504695892334
1761371238834695400,6.0256953125,0.10835552215576172,-0.003276824951171875,-0.06167289614677429
1761371238853308000,6.044307861328125,0.052865028381347656,-0.018392562866210938,-0.04948887228965759
1761371238871918800,6.0629189453125,-0.02196502685546875,-0.04185009002685547,-0.00654369592666626
1761371238890531300,6.08153125,-0.006306171417236328,-0.05027961730957031,-0.011137187480926514
1761371238909142300,6.100142333984375,0.0019702911376953125,-0.0076389312744140625,-0.03552156686782837
1761371238927754800,6.118754638671875,-0.06075429916381836,0.01337432861328125,-0.02186647057533264
1761371238946365700,6.13736572265625,-0.05479240417480469,0.015543937683105469,-0.03286823630332947
1761371238964978200,6.155978271484375,-0.07146215438842773,-0.007000923156738281,-0.0022751986980438232
1761371238983589000,6.174589111328125,0.0051250457763671875,-0.028502464294433594,0.005829364061355591
1761371239002201600,6.19320166015625,0.01330709457397461,-0.018670082092285156,0.029728442430496216
1761371239020812500,6.2118125,-0.01208639144897461,-0.018235206604003906,0.04366081953048706
1761371239039425000,6.230425048828125,-0.021478652954101562,-0.0309295654296875,0.00969398021697998
1761371239058036000,6.249035888671875,-0.01749897003173828,-0.01239013671875,0.02622082829475403
1761371239076648400,6.2676484375,0.015027046203613281,0.031104087829589844,0.033791810274124146
1761371239095259400,6.28625927734375,0.09687137603759766,0.03219890594482422,0.008834272623062134
1761371239113872000,6.304871826171875,0.11261129379272461,0.03676891326904297,0.04574805498123169
1761371239132482800,6.32348291015625,0.13472938537597656,0.014443397521972656,0.023076534271240234
1761371239151095300,6.34209521484375,0.17766857147216797,-0.0019989013671875,0.013177096843719482
1761371239169706200,6.360706298828125,0.08847618103027344,-0.016986846923828125,0.01995876431465149
1761371239188318700,6.379318603515625,0.019215106964111328,-0.031653404235839844,0.008020371198654175
1761371239206929700,6.3979296875,-0.08410120010375977,-0.024150848388671875,-0.022165000438690186
1761371239225542100,6.416542236328125,-0.11650848388671875,-0.022281646728515625,-0.04049178957939148
1761371239244153000,6.435153076171875,-0.10868358612060547,0.009238243103027344,-0.04114854335784912
1761371239262765600,6.453765625,-0.06982612609863281,0.019582748413085938,0.006653010845184326
1761371239281376500,6.47237646484375,0.02196979522705078,0.0151214599609375,0.018305450677871704
1761371239299989000,6.490989013671875,0.057854652404785156,-0.015568733215332031,0.042337626218795776
1761371239318600000,6.509599853515625,0.01896953582763672,-0.010531425476074219,0.03781557083129883
1761371239337212700,6.528212646484375,0.020293712615966797,-0.06615829467773438,-0.03611958026885986
1761371239355823600,6.54682373046875,-0.031056880950927734,-0.07910537719726562,0.010816246271133423
1761371239374435800,6.565435791015625,0.006808280944824219,-0.05360698699951172,-0.01630258560180664
1761371239393047000,6.584047119140625,0.1353912353515625,0.007852554321289062,-0.034018516540527344
1761371239411659300,6.6026591796875,0.19033145904541016,-0.00027751922607421875,-0.028478503227233887
1761371239430270500,6.6212705078125,0.03932476043701172,0.02887439727783203,-0.011320561170578003
1761371239448882700,6.639882568359375,-0.05670642852783203,0.02018260955810547,-0.013434141874313354
1761371239467494000,6.658493896484375,-0.1119999885559082,-0.009670257568359375,-0.01865401864051819
1761371239486106400,6.6771064453125,-0.09575510025024414,0.002353668212890625,-0.018916070461273193
1761371239504717300,6.69571728515625,-0.04338645935058594,0.014489173889160156,0.037217527627944946
1761371239523329800,6.714329833984375,0.014460086822509766,0.018901824951171875,0.05221638083457947
1761371239541940700,6.732940673828125,0.0762939453125,0.020064353942871094,0.04129821062088013
1761371239560553200,6.75155322265625,0.05353498458862305,0.04150390625,0.07418414950370789
1761371239579164200,6.7701640625,0.12923860549926758,0.03513908386230469,0.02443563938140869
1761371239597776600,6.788776611328125,0.10652875900268555,0.016057968139648438,0.0286141037940979
1761371239616387600,6.8073876953125,0.027256488800048828,-0.021848678588867188,-0.02514350414276123
1761371239635000000,6.826,-0.05975914001464844,-0.038872718811035156,-0.069072425365448
1761371239653611000,6.844611083984375,-0.12750625610351562,-0.011831283569335938,-0.07144641876220703
1761371239672223500,6.863223388671875,-0.07537984848022461,0.010443687438964844,-0.024940520524978638
1761371239690834400,6.88183447265625,0.007931232452392578,0.02936840057373047,0.018548578023910522
1761371239709447000,6.900447021484375,0.028896331787109375,0.03045177459716797,0.050016850233078
1761371239728057900,6.919057861328125,-0.023249149322509766,-0.012800216674804688,0.0840698778629303
1761371239746670300,6.93767041015625,-0.06488656997680664,-0.026042938232421875,0.07589638233184814
1761371239765281300,6.95628125,0.011688709259033203,0.00307464599609375,0.0443858802318573
1761371239783893800,6.974893798828125,0.05397224426269531,0.018851280212402344,0.0647420883178711
1761371239802504700,6.993504638671875,0.07769632339477539,0.02131366729736328,0.059165507555007935
1761371239821117200,7.0121171875,0.008182525634765625,-0.01651763916015625,0.07402592897415161
1761371239839728000,7.03072802734375,-0.026450634002685547,-0.06449413299560547,0.011471956968307495
1761371239858340600,7.049340576171875,-0.09093999862670898,-0.07777595520019531,-0.04793223738670349
1761371239876951600,7.06795166015625,-0.12303876876831055,-0.04461383819580078,-0.055909305810928345
1761371239895564000,7.08656396484375,-0.06466054916381836,-0.0023317337036132812,-0.05435410141944885
1761371239914175000,7.105175048828125,-0.06062889099121094,0.043956756591796875,0.006707608699798584
1761371239932787500,7.123787353515625,0.04194068908691406,0.039218902587890625,-0.015166759490966797
1761371239951398400,7.1423984375,0.053600311279296875,0.033985137939453125,0.08007282018661499
1761371239970011000,7.161010986328125,-0.006644248962402344,0.014348983764648438,0.14331519603729248
1761371239988621800,7.179621826171875,-0.032004356384277344,0.009551048278808594,0.1405879557132721
1761371240007234300,7.198234375,-0.0029096603393554688,0.032525062561035156,0.06558597087860107
1761371240025845200,7.21684521484375,-0.002712249755859375,0.03162193298339844,0.09198856353759766
1761371240044457700,7.235457763671875,0.06840229034423828,0.0346832275390625,0.06293278932571411
1761371240063068700,7.254068603515625,0.08725214004516602,0.027352333068847656,-0.002885103225708008
1761371240081681200,7.27268115234375,-0.0012001991271972656,0.04572582244873047,0.031231701374053955
1761371240100292000,7.2912919921875,-0.021358013153076172,0.00029659271240234375,0.041592150926589966
1761371240118904600,7.309904541015625,-0.02210712432861328,-0.018001556396484375,0.0623815655708313
1761371240137515500,7.328515625,-0.030040264129638672,-0.021574974060058594,0.0534231960773468
1761371240156128000,7.3471279296875,-0.014414310455322266,-0.011022567749023438,-0.0037003159523010254
1761371240174739000,7.365739013671875,0.010123729705810547,0.0015077590942382812,-0.055246323347091675
1761371240193351400,7.384351318359375,0.013329029083251953,0.036640167236328125,-0.06641057133674622
1761371240211962400,7.40296240234375,-0.018665313720703125,0.023937225341796875,-0.04954180121421814
1761371240230574800,7.421574951171875,-0.021738052368164062,-0.02801513671875,-0.05480119585990906
1761371240249185800,7.440185791015625,-0.09099340438842773,-0.061122894287109375,-0.031874507665634155
1761371240267798300,7.45879833984375,-0.09164857864379883,-0.03837013244628906,-0.060996443033218384
1761371240286409200,7.4774091796875,-0.022696495056152344,0.009327888488769531,-0.016877740621566772
1761371240305021700,7.496021728515625,0.021381378173828125,0.07110404968261719,0.014915108680725098
1761371240323632600,7.514632568359375,0.004116535186767578,0.11398601531982422,0.01723840832710266
1761371240342245000,7.5332451171875,0.02312755584716797,0.043280601501464844,-0.03459855914115906
1761371240360856000,7.55185595703125,-0.02181243896484375,-0.03248882293701172,-0.06714588403701782
1761371240379468500,7.570468505859375,-0.08930110931396484,-0.08150100708007812,0.020386964082717896
1761371240398079500,7.58907958984375,-0.10719108581542969,-0.09504413604736328,0.01189449429512024
1761371240416692000,7.60769189453125,-0.07558012008666992,-0.07894325256347656,-0.006264626979827881
1761371240435303000,7.626302978515625,-0.01593923568725586,-0.0063915252685546875,-0.016429036855697632
1761371240453915400,7.644915283203125,0.022783756256103516,0.07314205169677734,0.06188485026359558
1761371240472526300,7.6635263671875,0.1260361671447754,0.12251663208007812,0.056506216526031494
1761371240491138800,7.682138916015625,0.10775184631347656,0.06340503692626953,0.0905965268611908
1761371240509749800,7.700749755859375,-0.03970956802368164,0.02647113800048828,0.08799153566360474
1761371240528362200,7.7193623046875,-0.054268836975097656,0.005406379699707031,-0.007947772741317749
1761371240546973200,7.73797314453125,-0.013419628143310547,0.0018148422241210938,-0.0703427791595459
1761371240565585700,7.756585693359375,-0.037749290466308594,0.0129547119140625,-0.021969228982925415
1761371240584196600,7.775196533203125,-0.03401756286621094,0.0055694580078125,0.023052126169204712
1761371240602809000,7.79380908203125,0.04025745391845703,-0.03722095489501953,0.013874292373657227
1761371240621420000,7.812419921875,-0.006256103515625,-0.03235149383544922,-0.015711158514022827
1761371240640032500,7.831032470703125,-0.07058954238891602,-0.010700225830078125,-0.018967121839523315
1761371240658643500,7.8496435546875,-0.04001617431640625,-0.005677223205566406,-0.08148202300071716
1761371240677256000,7.868255859375,-0.04900217056274414,0.004268646240234375,-0.04002377390861511
1761371240695867000,7.886866943359375,-0.06079578399658203,0.0006771087646484375,0.009106159210205078
1761371240714479400,7.905479248046875,0.044886112213134766,0.024845123291015625,-0.006919145584106445
1761371240733090300,7.92409033203125,0.0680856704711914,0.0269317626953125,0.037994056940078735
1761371240751703000,7.942703125,0.09861516952514648,0.014317512512207031,0.06687372922897339
1761371240770313700,7.961313720703125,0.11382341384887695,-0.017835617065429688,0.0383245050907135
1761371240788926500,7.979926513671875,0.06625175476074219,-0.019164085388183594,-0.03430461883544922
1761371240807537400,7.998537353515625,-0.04606199264526367,-0.04075145721435547,-0.02133592963218689
1761371240826149600,8.017149658203126,-0.13130807876586914,-0.04124641418457031,0.014348059892654419
1761371240844760800,8.0357607421875,-0.06367301940917969,-0.03396797180175781,0.05197557806968689
1761371240863373000,8.054373046875,0.009026527404785156,-0.0014543533325195312,0.06435739994049072
1761371240881984300,8.072984375,0.09078168869018555,0.030664443969726562,0.026529639959335327
1761371240900596700,8.0915966796875,0.05682182312011719,0.01900005340576172,0.011256545782089233
1761371240919207700,8.110207763671875,-0.0514984130859375,0.0011968612670898438,0.010392814874649048
1761371240937820200,8.128820068359374,-0.08148431777954102,-0.0308380126953125,0.02613121271133423
1761371240956431000,8.14743115234375,-0.05823850631713867,-0.014056205749511719,0.05630365014076233
1761371240975043600,8.166043701171875,0.05328512191772461,0.013155937194824219,0.07972070574760437
1761371240993654500,8.184654541015625,0.07751798629760742,0.027419090270996094,0.04755806922912598
1761371241012267000,8.20326708984375,0.11550140380859375,0.010458946228027344,-0.07494625449180603
1761371241030878000,8.2218779296875,0.000008106231689453125,0.0018396377563476562,-0.08746945858001709
1761371241049490400,8.240490478515625,0.015620231628417969,-0.0153656005859375,-0.10095691680908203
1761371241068101400,8.259101318359376,0.06129646301269531,-0.05291557312011719,-0.08406952023506165
1761371241086713900,8.2777138671875,0.11883020401000977,-0.04599761962890625,-0.09616199135780334
1761371241105324800,8.29632470703125,0.07325935363769531,-0.030975341796875,-0.027611345052719116
1761371241123937300,8.314937255859375,0.03737306594848633,-0.01701831817626953,-0.03284528851509094
1761371241142548200,8.33354833984375,0.0033845901489257812,-0.013338088989257812,-0.06877247989177704
1761371241161160700,8.35216064453125,-0.04133939743041992,-0.032980918884277344,-0.063432976603508
1761371241179771600,8.370771728515624,-0.17322015762329102,-0.015475273132324219,-0.020013511180877686
1761371241198384000,8.389384033203125,-0.0992727279663086,0.0074672698974609375,-0.010019183158874512
1761371241216995000,8.4079951171875,0.027747154235839844,0.017752647399902344,-0.022544771432876587
1761371241235607600,8.426607666015625,-0.0008826255798339844,0.006450653076171875,0.03596124053001404
1761371241254218500,8.445218505859375,-0.013031959533691406,0.017426490783691406,0.0389808714389801
1761371241272831000,8.4638310546875,0.007922649383544922,0.011517524719238281,0.015343636274337769
1761371241291442000,8.48244189453125,0.04211282730102539,-0.012667655944824219,0.010252118110656738
1761371241310054400,8.501054443359376,0.03814697265625,0.017188072204589844,0.0101548433303833
1761371241328665300,8.519665283203125,0.02829742431640625,0.02229022979736328,0.011607140302658081
1761371241347277800,8.53827783203125,0.03856658935546875,0.03118610382080078,-0.04970484972000122
1761371241365888800,8.556888671875,-0.01245260238647461,0.030608177185058594,-0.1083407998085022
1761371241384501200,8.575501220703124,0.014558792114257812,-0.01618194580078125,-0.10590039193630219
1761371241403112200,8.5941123046875,-0.05130147933959961,-0.042179107666015625,0.013082653284072876
1761371241421724700,8.612724609375,0.015347003936767578,-0.041192054748535156,0.05176138877868652
1761371241440335600,8.631335693359375,-0.005438327789306641,-0.033374786376953125,0.017351359128952026
1761371241458948000,8.649947998046875,-0.03270912170410156,-0.0011043548583984375,-0.057028621435165405
1761371241477559000,8.66855908203125,-0.01854705810546875,0.0022974014282226562,-0.01630878448486328
1761371241496171500,8.687171630859375,-0.004869937896728516,-0.010655403137207031,0.04982948303222656
1761371241514782500,8.705782470703125,0.03451824188232422,-0.027883529663085938,0.03719249367713928
1761371241533395000,8.72439501953125,0.0026073455810546875,0.02069091796875,0.062024086713790894
1761371241552006000,8.743005859375,0.011561393737792969,0.020671844482421875,0.10073167085647583
1761371241570618400,8.761618408203125,0.09386730194091797,-0.03378105163574219,0.010998934507369995
1761371241589229300,8.780229248046876,0.11202812194824219,0.0038166046142578125,-0.017015725374221802
1761371241607841800,8.798841796875,0.0030450820922851562,0.012541770935058594,0.019921988248825073
1761371241626452700,8.81745263671875,0.042026519775390625,0.00691986083984375,0.028043031692504883
1761371241645065200,8.836065185546875,0.12790489196777344,-0.020303726196289062,-0.013058245182037354
1761371241663676200,8.85467626953125,0.020626544952392578,-0.014904975891113281,-0.06253215670585632
1761371241682288600,8.87328857421875,-0.1342601776123047,-0.0033979415893554688,-0.042359232902526855
1761371241700899600,8.891899658203124,-0.07564306259155273,-0.03987312316894531,-0.08127692341804504
1761371241719512000,8.910511962890626,0.009914875030517578,0.002521514892578125,-0.045807480812072754
1761371241738123000,8.929123046875,0.06094980239868164,-0.013278961181640625,0.0010474622249603271
1761371241756735500,8.947735595703126,0.07129287719726562,-0.026285171508789062,-0.014100641012191772
1761371241775346400,8.966346435546875,0.045543670654296875,0.04098701477050781,0.03900840878486633
1761371241793959000,8.984958984375,0.16974306106567383,0.04175853729248047,-0.13305172324180603
1761371241812569900,9.00356982421875,0.20845746994018555,-0.017385482788085938,-0.14003443717956543
1761371241831182300,9.022182373046874,0.054096221923828125,-0.0028638839721679688,-0.13803642988204956
1761371241849793300,9.040793212890625,-0.05571317672729492,0.011281013488769531,-0.07900029420852661
1761371241868405800,9.05940576171875,-0.0384364128112793,-0.007935523986816406,-0.021848976612091064
1761371241887016700,9.0780166015625,-0.09909391403198242,-0.06726646423339844,-0.037515223026275635
1761371241905629200,9.096629150390624,-0.12568950653076172,-0.03746986389160156,-0.009700655937194824
1761371241924240100,9.115240234375,-0.14340972900390625,0.008835792541503906,0.17795681953430176
1761371241942852600,9.1338525390625,-0.1298227310180664,0.007818222045898438,0.28766369819641113
1761371241961463600,9.152463623046875,-0.05922651290893555,0.036782264709472656,0.14513379335403442
1761371241980076000,9.171075927734375,0.019547462463378906,0.0013294219970703125,0.054428160190582275
1761371241998687000,9.18968701171875,0.08004188537597656,0.036571502685546875,-0.053677916526794434
1761371242017299500,9.208299560546875,0.05967855453491211,0.009447097778320312,-0.01914578676223755
1761371242035910400,9.226910400390626,0.062334537506103516,0.01797962188720703,0.01090705394744873
1761371242054523000,9.24552294921875,0.12095069885253906,-0.024392127990722656,0.002902507781982422
1761371242073133800,9.2641337890625,0.09793853759765625,-0.006072044372558594,0.007307529449462891
1761371242091746300,9.282746337890625,0.042044639587402344,0.0063934326171875,-0.02193504571914673
1761371242110357200,9.301357177734374,-0.028498172760009766,0.023245811462402344,-0.023187458515167236
1761371242128969700,9.3199697265625,-0.07156085968017578,0.05595970153808594,-0.006200969219207764
1761371242147580700,9.33858056640625,-0.16637229919433594,0.028382301330566406,0.06514841318130493
1761371242175498200,9.366498291015626,-0.16315603256225586,0.03111743927001953,0.07213157415390015
1761371242194110700,9.38511083984375,-0.035932064056396484,0.010532379150390625,0.042814671993255615
1761371242212721700,9.4037216796875,-0.04829978942871094,-0.007231712341308594,0.10874426364898682
1761371242231334100,9.422334228515625,-0.09604644775390625,0.02274799346923828,0.0778052806854248
1761371242249945000,9.440945068359374,-0.07608509063720703,0.02950572967529297,0.053105175495147705
1761371242268557600,9.4595576171875,0.07707786560058594,0.04479026794433594,-0.013563036918640137
1761371242287168500,9.47816845703125,0.04825448989868164,0.03810596466064453,0.04085010290145874
1761371242305781000,9.496781005859376,0.026156902313232422,0.04719352722167969,0.07674622535705566
1761371242324392000,9.515391845703125,-0.006302833557128906,0.013484954833984375,0.07404893636703491
1761371242343004400,9.53400439453125,0.055330753326416016,0.00328826904296875,-0.06452113389968872
1761371242361615400,9.552615478515625,0.031436920166015625,-0.0024442672729492188,-0.05316191911697388
1761371242380227800,9.571227783203126,-0.11374425888061523,0.025382041931152344,-0.03865313529968262
1761371242398838800,9.5898388671875,-0.14481687545776367,-0.00433349609375,0.007981956005096436
1761371242417451300,9.608451171875,-0.11376380920410156,-0.041207313537597656,0.0179750919342041
1761371242436062200,9.627062255859375,-0.08046388626098633,-0.02691650390625,0.05141150951385498
1761371242454674700,9.6456748046875,0.05829763412475586,0.00679779052734375,0.05123239755630493
1761371242473285600,9.66428564453125,0.07984590530395508,0.06844520568847656,0.082225501537323
1761371242491898000,9.682898193359375,0.024453163146972656,0.08080768585205078,0.1040084958076477
1761371242510509000,9.701509033203125,0.012456893920898438,0.018461227416992188,0.07225018739700317
1761371242529121500,9.72012158203125,0.07655668258666992,-0.0051059722900390625,0.013409852981567383
1761371242547732500,9.738732421875,0.07911968231201172,-0.021556854248046875,0.0028101205825805664
1761371242566345000,9.757344970703125,0.01707744598388672,-0.019704818725585938,-0.01710599660873413
1761371242584956000,9.775955810546876,-0.01220560073852539,-0.03378105163574219,-0.07803225517272949
1761371242603568400,9.794568359375,-0.04363107681274414,-0.039778709411621094,-0.035772621631622314
1761371242622179300,9.813179443359376,-0.04672050476074219,-0.045571327209472656,0.0020849108695983887
1761371242640791800,9.831791748046875,-0.04516458511352539,-0.041291236877441406,0.020497500896453857
1761371242659402800,9.85040283203125,-0.01564645767211914,-0.01654815673828125,0.02984476089477539
1761371242678015200,9.86901513671875,-0.0316925048828125,0.052043914794921875,-0.0075667500495910645
1761371242696626200,9.887626220703124,0.0029816627502441406,0.058182716369628906,0.005351126194000244
1761371242715238700,9.90623876953125,0.048555850982666016,0.047570228576660156,0.030050218105316162
1761371242733849600,9.924849609375,0.08227682113647461,0.01538848876953125,-0.006876826286315918
1761371242752462000,9.943462158203126,-0.015659809112548828,-0.029702186584472656,0.015697777271270752
1761371242771073000,9.962072998046875,-0.04564666748046875,-0.05400848388671875,0.004513084888458252
1761371242789685500,9.980685546875,-0.026171207427978516,-0.04230022430419922,0.031061172485351562
1761371242808296400,9.99929638671875,-0.009546279907226562,0.017920494079589844,0.011628925800323486
1761371242826909000,10.017908935546876,-0.0009598731994628906,0.015707969665527344,0.03591644763946533
1761371242845520000,10.036519775390625,-0.023139476776123047,0.02060413360595703,-0.007395684719085693
1761371242864132400,10.05513232421875,0.039214134216308594,-0.011854171752929688,-0.07574272155761719
1761371242882743300,10.073743408203125,-0.005745887756347656,-0.0150604248046875,-0.053757309913635254
1761371242901355800,10.092355712890624,-0.00333404541015625,-0.010411262512207031,-0.04902607202529907
1761371242919966700,10.110966796875,0.08348512649536133,-0.013371467590332031,-0.05666553974151611
1761371242938579200,10.1295791015625,0.12927818298339844,-0.02658367156982422,-0.04542100429534912
1761371242957190100,10.148190185546875,0.029816150665283203,-0.01662731170654297,0.01023954153060913
1761371242975802600,10.166802734375,-0.017006397247314453,0.0023107528686523438,0.008511126041412354
1761371242994413600,10.18541357421875,-0.04240846633911133,0.009486198425292969,0.01220780611038208
1761371243013026000,10.204026123046875,-0.02821063995361328,0.014712333679199219,0.0345301628112793
1761371243031637000,10.222636962890626,0.01884317398071289,-0.015764236450195312,0.0708627700805664
1761371243050249500,10.24124951171875,0.0017175674438476562,-0.008352279663085938,0.04598206281661987
1761371243068860400,10.2598603515625,-0.017641067504882812,0.010911941528320312,0.026949167251586914
1761371243087473000,10.278472900390625,-0.060964107513427734,-0.004840850830078125,0.037539660930633545
1761371243106083800,10.297083740234376,-0.04297351837158203,-0.026457786560058594,0.03222149610519409
1761371243124696300,10.3156962890625,0.04292726516723633,-0.02928447723388672,0.029900431632995605
1761371243143307300,10.334307373046874,0.10489511489868164,-0.003040313720703125,-0.04978889226913452
1761371243161919700,10.352919677734375,0.10322380065917969,0.016689300537109375,-0.07007420063018799
1761371243180530700,10.37153076171875,0.0016217231750488281,0.02626323699951172,-0.05634111166000366
1761371243199143200,10.39014306640625,-0.08185434341430664,0.013497352600097656,-0.009137868881225586
1761371243217754000,10.408754150390624,-0.10146379470825195,-0.009270668029785156,0.039306581020355225
1761371243245672400,10.43667236328125,0.07419824600219727,-0.009927749633789062,0.02976435422897339
1761371243264283400,10.455283447265625,0.0517573356628418,0.02211761474609375,0.05868124961853027
1761371243282896000,10.473895751953124,0.004815101623535156,0.022878646850585938,0.039604008197784424
1761371243301506800,10.4925068359375,0.04834175109863281,-0.025506019592285156,0.04188573360443115
1761371243320119300,10.511119384765625,0.018610000610351562,-0.042159080505371094,0.03208768367767334
1761371243338730200,10.529730224609375,-0.03431510925292969,-0.006485939025878906,0.002965986728668213
1761371243357342700,10.5483427734375,-0.08891105651855469,0.0008192062377929688,0.049996018409729004
1761371243375953700,10.56695361328125,0.009919166564941406,0.0125732421875,-0.0018210411071777344
1761371243394566100,10.585566162109375,0.0709848403930664,0.039661407470703125,-0.04970437288284302
1761371243413177000,10.604177001953126,0.042165279388427734,0.042144775390625,-0.04968470335006714
1761371243431789600,10.62278955078125,0.08795166015625,0.018289566040039062,-0.05936157703399658
1761371243450400500,10.641400390625,0.04593038558959961,0.013494491577148438,-0.02856546640396118
1761371243469013000,10.660012939453125,-0.008168697357177734,-0.02166461944580078,-0.023608624935150146
1761371243487624000,10.6786240234375,-0.08237314224243164,-0.04587268829345703,-0.027139246463775635
1761371243506236400,10.697236328125,-0.08249759674072266,-0.06872272491455078,-0.05138319730758667
1761371243524847400,10.715847412109374,-0.1053304672241211,-0.06638240814208984,-0.04571521282196045
1761371243543459800,10.7344599609375,-0.09864234924316406,-0.009448051452636719,-0.0545954704284668
1761371243562070800,10.75307080078125,-0.05256175994873047,-0.003326416015625,-0.07400262355804443
1761371243580683300,10.771683349609376,0.005092144012451172,0.05704021453857422,-0.12408947944641113
1761371243599294200,10.790294189453125,-0.008273124694824219,0.046143531799316406,0.02339118719100952
1761371243617906700,10.80890673828125,0.08881187438964844,-0.0018110275268554688,0.10571253299713135
1761371243636517600,10.827517578125,0.15535402297973633,-0.05063343048095703,0.14030945301055908
1761371243655130000,10.846130126953126,0.10663366317749023,-0.020608901977539062,0.11999374628067017
1761371243673741000,10.864740966796875,-0.03336381912231445,0.007762908935546875,-0.030700743198394775
