time,seconds_elapsed,z,y,x
1761369674633271300,0.208271240234375,-1.1942063570022583,-0.0689493864774704,0.7311078310012817
1761369674651881200,0.226881103515625,-1.1074661016464233,-0.2393757700920105,0.8209023475646973
1761369674670492700,0.24549267578125,-1.063485026359558,-0.46844348311424255,0.7866948843002319
1761369674689102600,0.2641025390625,-1.0726478099822998,-0.5557946562767029,0.7292752861976624
1761369674707714000,0.282714111328125,-1.0439379215240479,-0.5527403950691223,0.7103390097618103
1761369674726324000,0.301323974609375,-0.9767447710037231,-0.46600010991096497,0.7610393166542053
1761369674744935400,0.319935302734375,-0.8429692387580872,-0.3145099878311157,0.8606074452400208
1761369674763545300,0.33854541015625,-0.6829272508621216,-0.07566870748996735,0.9943829774856567
1761369674782156500,0.357156494140625,-0.5625903010368347,0.17294612526893616,1.171528697013855
1761369674800766500,0.375766357421875,-0.41476529836654663,0.25235626101493835,1.3657780885696411
1761369674819378000,0.3943779296875,-0.24494975805282593,0.1417929232120514,1.5294852256774902
1761369674837987800,0.41298779296875,-0.033596597611904144,-0.10560022294521332,1.706630825996399
1761369674856599300,0.431599365234375,0.16004198789596558,-0.47882789373397827,1.93508780002594
1761369674875209200,0.450209228515625,0.2498365342617035,-0.704230546951294,2.17392897605896
1761369674893820700,0.468820556640625,0.182643324136734,-0.7995226979255676,2.1788158416748047
1761369674912430600,0.4874306640625,0.04947862774133682,-1.3547828197479248,1.7683264017105103
1761369674931042000,0.5060419921875,0.1569877415895462,-1.7506881952285767,1.3792167901992798
1761369674949652000,0.52465185546875,0.3689517378807068,-2.296785593032837,1.2155096530914307
1761369674968263400,0.543263427734375,0.39888325333595276,-3.1660213470458984,0.9430717825889587
1761369674986873000,0.561873046875,0.17836740612983704,-3.8550570011138916,0.29557371139526367
1761369675005484500,0.580484619140625,-0.1966928243637085,-3.1226511001586914,-0.3379512429237366
1761369675024094500,0.599094482421875,-0.49234288930892944,-1.2106229066848755,-0.5761816501617432
1761369675042706000,0.617705810546875,-0.37322768568992615,0.762413740158081,-0.6067240238189697
1761369675061315800,0.63631591796875,-0.012216945178806782,1.8870599269866943,-0.8528954982757568
1761369675079927300,0.65492724609375,0.16248537600040436,1.806428074836731,-1.4777922630310059
1761369675098537200,0.673537109375,0.08185353130102158,1.282931923866272,-2.2230257987976074
1761369675117148700,0.692148681640625,-0.17409147322177887,0.7508076429367065,-2.6897895336151123
1761369675135758600,0.710758544921875,-0.5577035546302795,0.6500178575515747,-2.911527156829834
1761369675154370000,0.7293701171875,-0.7727217674255371,0.9688801169395447,-2.972611904144287
1761369675172980000,0.74797998046875,-0.7464553713798523,1.3965495824813843,-2.8351712226867676
1761369675191591200,0.766591064453125,-0.5393781065940857,1.5425420999526978,-2.487522840499878
1761369675210201300,0.785201416015625,-0.261442631483078,1.4655753374099731,-1.9591398239135742
1761369675228812500,0.8038125,0.013438640162348747,1.3653963804244995,-1.29331636428833
1761369675247422500,0.82242236328125,0.1820324808359146,1.4075448513031006,-0.5725166201591492
1761369675266034000,0.841033935546875,0.3286358118057251,1.8858381509780884,-0.010537114925682545
1761369675284643800,0.859643798828125,0.6426876783370972,2.0086185932159424,0.34932827949523926
1761369675303255300,0.87825537109375,0.900465190410614,1.9786869287490845,0.5857261419296265
1761369675321865200,0.896865234375,1.0427926778793335,1.774664044380188,0.6468108892440796
1761369675340476700,0.9154765625,1.113650918006897,1.413042426109314,0.6278746128082275
1761369675359086600,0.934086669921875,1.1814548969268799,0.8424347043037415,0.6272637844085693
1761369675377698000,0.952697998046875,1.2034454345703125,0.28839626908302307,0.6315397024154663
1761369675396308000,0.971307861328125,1.191839337348938,-0.49715331196784973,0.5753417611122131
1761369675414919200,0.989919189453125,1.1380847692489624,-1.8197139501571655,0.6199336051940918
1761369675433529300,1.008529296875,1.0220237970352173,-3.6375954151153564,0.9852202534675598
1761369675452140500,1.027140625,0.7874584794044495,-4.388402938842773,1.5478105545043945
1761369675470750500,1.04575048828125,-0.2773246467113495,-2.7591969966888428,1.5258201360702515
1761369675489362000,1.06436181640625,-1.391510009765625,-0.5924454927444458,0.6578061580657959
1761369675507971800,1.082971923828125,-1.1587772369384766,-1.1568683385849,-0.44484952092170715
1761369675526583300,1.101583251953125,-0.6474980711936951,-1.5570496320724487,-1.5162756443023682
1761369675545193200,1.120193115234375,-1.0030112266540527,-1.632794737815857,-2.4691972732543945
1761369675563804700,1.1388046875,-0.8362498879432678,-1.8252116441726685,-2.7679779529571533
1761369675582414600,1.15741455078125,-0.31092125177383423,-2.0200719833374023,-2.3555798530578613
1761369675601026000,1.176026123046875,0.11667182296514511,-1.6395140886306763,-1.5022261142730713
1761369675619636000,1.194635986328125,0.26694026589393616,-1.7512991428375244,-1.0318737030029297
1761369675638247400,1.213247314453125,0.29565006494522095,-2.07993483543396,-1.2432268857955933
1761369675656857300,1.231857421875,0.3170297145843506,-2.2326467037200928,-1.857128381729126
1761369675675468500,1.250468505859375,0.34451785683631897,-2.126359224319458,-2.1717147827148438
1761369675694078700,1.26907861328125,0.41537612676620483,-1.656006932258606,-2.0923044681549072
1761369675712690000,1.28768994140625,0.5351021885871887,-1.272929310798645,-1.7844375371932983
1761369675731300000,1.306300048828125,0.7123242616653442,-1.2246724367141724,-1.495506763458252
1761369675749911300,1.324911376953125,0.8326611518859863,-1.2246724367141724,-1.2646065950393677
1761369675768521200,1.343521240234375,0.9291750192642212,-1.139764666557312,-0.9310839176177979
1761369675787132700,1.362132568359375,0.9633824825286865,-1.0072107315063477,-0.3446705639362335
1761369675805742600,1.38074267578125,0.8442672491073608,-0.9430717825889587,0.2748049199581146
1761369675824354000,1.39935400390625,0.5650337338447571,-0.8679376244544983,0.7573742270469666
1761369675842964000,1.4179638671875,0.29565006494522095,-0.6779640913009644,1.1171633005142212
1761369675861575400,1.436575439453125,0.13621893525123596,-0.5069268941879272,1.4983320236206055
1761369675880185300,1.455185302734375,0.008551862090826035,-0.4354577362537384,1.8459041118621826
1761369675898796800,1.473796875,0.051922015845775604,-0.3981960713863373,2.1702640056610107
1761369675917406700,1.49240673828125,0.12094775587320328,-0.3988068997859955,2.518446922302246
1761369675936018000,1.511017822265625,0.02993151545524597,-0.5912237763404846,2.633286237716675
1761369675954628000,1.529628173828125,-0.19424942135810852,-0.6235986948013306,2.405440092086792
1761369675973239300,1.5482392578125,-0.33169007301330566,-0.6449783444404602,2.0450403690338135
1761369675991849200,1.56684912109375,-0.4056025743484497,-0.9198595881462097,1.5814071893692017
1761369676010460700,1.585460693359375,-0.8002098798751831,-0.9009233713150024,1.0212602615356445
1761369676029070600,1.604070556640625,-1.0628741979599,-0.30656898021698,0.42751672863960266
1761369676047682000,1.62268212890625,-0.726908266544342,0.26212984323501587,-0.3984251320362091
1761369676066292000,1.6412919921875,-0.08368607610464096,0.5174639821052551,-1.5083346366882324
1761369676084903400,1.6599033203125,0.5204418897628784,0.739201545715332,-2.49363112449646
1761369676103513300,1.678513427734375,1.062950611114502,0.9108496308326721,-2.94878888130188
1761369676122124800,1.697124755859375,1.4428975582122803,1.2157387733459473,-3.0837860107421875
1761369676140734700,1.715734619140625,1.3714284896850586,1.5724735260009766,-3.15159010887146
1761369676159346200,1.73434619140625,0.9084062576293945,1.8809514045715332,-3.0984463691711426
1761369676177956000,1.7529560546875,0.46607646346092224,1.962804913520813,-2.8009636402130127
1761369676196567300,1.7715673828125,0.33352261781692505,1.871788740158081,-2.069092273712158
1761369676215177500,1.790177490234375,0.6255839467048645,1.4075448513031006,-0.9084826111793518
1761369676233788700,1.80878857421875,0.7874584794044495,0.7318713665008545,0.3322245478630066
1761369676252398600,1.827398681640625,0.6206972002983093,-0.024968381971120834,1.4421340227127075
1761369676271010000,1.846010009765625,0.3408527672290802,-0.5252522826194763,2.4133810997009277
1761369676289620000,1.864619873046875,0.09040539711713791,-0.6431457996368408,2.9894864559173584
1761369676308231400,1.8832314453125,-0.1973036676645279,-0.36459946632385254,3.3169007301330566
1761369676326841300,1.90184130859375,-0.2742704153060913,0.17416782677173615,3.5306971073150635
1761369676345452800,1.920452880859375,-0.21257483959197998,0.4979168772697449,3.610718250274658
1761369676364062700,1.939062744140625,-0.15393351018428802,0.5003602504730225,3.56429386138916
1761369676382674200,1.957674072265625,-0.12339114397764206,0.3519243896007538,3.4848835468292236
1761369676401284000,1.9762841796875,-0.1569877415895462,0.6158103942871094,3.587506055831909
1761369676419895600,1.9948955078125,-0.24556060135364532,0.8308286070823669,3.812297821044922
1761369676438505500,2.01350537109375,-0.22601348161697388,1.029964804649353,4.050528049468994
1761369676457116700,2.03211669921875,-0.21379654109477997,0.8858048915863037,4.143987655639648
1761369676475726600,2.0507265625,-0.39827242493629456,0.6439093947410583,3.9992170333862305
1761369676494338000,2.069338134765625,-0.7207997441291809,0.5260158181190491,3.4066951274871826
1761369676512948000,2.087947998046875,-0.9052756428718567,0.348259299993515,2.52699875831604
1761369676531559400,2.106559326171875,-1.133732557296753,0.3360423445701599,1.2912547588348389
1761369676550169300,2.12516943359375,-1.5619364976882935,0.6781167984008789,-0.4631749391555786
1761369676568780800,2.14378076171875,-1.7091506719589233,0.9041302800178528,-2.131398916244507
1761369676587390700,2.162390625,-1.5228421688079834,1.0733349323272705,-2.7948553562164307
1761369676606002200,2.181002197265625,-1.296217918395996,1.0000332593917847,-2.822343349456787
1761369676624612000,2.199612060546875,-0.9822424054145813,0.5938199162483215,-2.3561906814575195
1761369676643223600,2.2182236328125,-0.9565867781639099,-0.37925979495048523,-1.7642796039581299
1761369676661833500,2.23683349609375,-0.9284878373146057,-0.8807653784751892,-1.5529264211654663
1761369676680445000,2.25544482421875,-0.8906152844429016,-0.5368583798408508,-1.7172443866729736
1761369676699054600,2.2740546875,-0.8576295375823975,-0.19783815741539001,-2.3653533458709717
1761369676717666000,2.292666015625,-0.836860716342926,-0.08971819281578064,-3.0434701442718506
1761369676736276000,2.31127587890625,-0.652384877204895,-0.05856497958302498,-3.102111339569092
1761369676754887400,2.329887451171875,-0.1948602795600891,0.0293970238417387,-2.241351366043091
1761369676773497300,2.348497314453125,0.11545012891292572,0.11552648991346359,-0.719730794429779
1761369676792108800,2.36710888671875,0.2638860046863556,0.17172443866729736,0.5967214107513428
1761369676810718700,2.38571875,0.4990622103214264,-0.20211409032344818,1.625999093055725
1761369676829330200,2.404330078125,0.818000853061676,-0.8599965572357178,2.3602373600006104
1761369676847940000,2.422940185546875,1.0403492450714111,-1.0902860164642334,2.6773436069488525
1761369676866551600,2.441551513671875,1.0495119094848633,-0.6235986948013306,2.6302318572998047
1761369676885161500,2.460161376953125,0.803340494632721,0.035505495965480804,2.156214475631714
1761369676903772700,2.478772705078125,0.6084802150726318,0.5260158181190491,1.522765874862671
1761369676922382600,2.497382568359375,0.6206972002983093,0.5944307446479797,0.935130774974823
1761369676940994000,2.515994140625,0.688501238822937,0.4007921516895294,0.616879403591156
1761369676959604000,2.53460400390625,0.7807391285896301,0.25418880581855774,0.49654245376586914
1761369676978215400,2.55321533203125,0.9230665564537048,0.17172443866729736,0.6016082167625427
1761369676996825300,2.571825439453125,0.9273424744606018,0.09231429547071457,0.8575531840324402
1761369677015436800,2.590436767578125,0.5613686442375183,-0.04146125912666321,0.8361735343933105
1761369677034046700,2.609046630859375,0.16126367449760437,-0.0952158197760582,0.5802285671234131
1761369677052658200,2.627658203125,0.24250635504722595,-0.21982865035533905,0.26014456152915955
1761369677071268000,2.64626806640625,0.5564818382263184,-0.62543123960495,-0.17302247881889343
1761369677089879300,2.66487939453125,0.7294279932975769,-0.9027559161186218,-0.5645755529403687
1761369677108489500,2.683489501953125,0.7367581725120544,-1.0365314483642578,-0.7979192137718201
1761369677127100700,2.7021005859375,0.771576464176178,-1.6779974699020386,-1.570641040802002
1761369677145710600,2.720710693359375,1.0232455730438232,-2.279681921005249,-2.795466184616089
1761369677164322000,2.739322021484375,1.4282371997833252,-2.3267171382904053,-3.967071056365967
1761369677182932000,2.757931884765625,1.922412633895874,-1.1916866302490234,-5.1582231521606445
1761369677201543400,2.77654345703125,2.6584837436676025,-0.17096087336540222,-5.992717266082764
1761369677220153300,2.7951533203125,3.258335590362549,-0.926578938961029,-6.42275333404541
1761369677238764800,2.813764892578125,3.1294467449188232,-3.1293704509735107,-6.012875080108643
1761369677257374700,2.832374755859375,1.3616548776626587,-5.013299942016602,-4.824700832366943
1761369677275986200,2.850986083984375,-0.8765658140182495,-3.8801016807556152,-2.7569828033447266
1761369677294595800,2.869595947265625,-1.8197139501571655,-1.9773125648498535,-0.8064711093902588
1761369677313207300,2.888207275390625,-1.9705932140350342,-1.0548568964004517,-0.2298312783241272
1761369677331817200,2.906817138671875,-1.790393352508545,-0.010918894782662392,-0.6739172339439392
1761369677350428700,2.9254287109375,-1.4690876007080078,0.9084062576293945,-1.450914978981018
1761369677369038600,2.94403857421875,-1.2284138202667236,1.197337031364441,-2.069092273712158
1761369677387650000,2.962650146484375,-1.2180293798446655,1.1588536500930786,-2.195537805557251
1761369677406260000,2.981260009765625,-1.3023263216018677,1.0183587074279785,-1.912104606628418
1761369677424871400,2.999871337890625,-1.4086138010025024,0.9536089301109314,-1.4118207693099976
1761369677443481300,3.0184814453125,-1.4703093767166138,0.7654679417610168,-0.649483323097229
1761369677462092800,3.0370927734375,-1.4971866607666016,0.4392755329608917,0.23143476247787476
1761369677480702500,3.055702392578125,-1.4446537494659424,0.02023431472480297,1.2087904214859009
1761369677499314000,3.07431396484375,-1.4550381898880005,-0.7818081378936768,2.156214475631714
1761369677517923800,3.092923828125,-1.596754789352417,-1.8698034286499023,3.002314329147339
1761369677536535300,3.111535400390625,-1.808107852935791,-2.780576705932617,3.4702231884002686
1761369677555145200,3.130145263671875,-2.0261802673339844,-3.002925157546997,3.456784725189209
1761369677573756700,3.148756591796875,-2.2217278480529785,-2.6632940769195557,3.121429443359375
1761369677592366600,3.16736669921875,-2.081843852996826,-2.077491521835327,2.6442813873291016
1761369677610978000,3.18597802734375,-1.5845377445220947,-1.0994486808776855,2.162933826446533
1761369677629588000,3.204587890625,-0.8319739699363708,0.13140851259231567,1.6211122274398804
1761369677648199200,3.22319921875,-0.13805148005485535,1.025688886642456,0.9430717825889587
1761369677666809000,3.24180908203125,0.4709632396697998,1.398992896080017,0.30901235342025757
1761369677685420500,3.260420654296875,0.8741987943649292,1.1490800380706787,-0.36543938517570496
1761369677704030500,3.279030517578125,0.6939988136291504,1.4503041505813599,-1.4631319046020508
1761369677722642000,3.297641845703125,0.18630841374397278,2.664057493209839,-2.5498292446136475
1761369677741251800,3.316251953125,-0.04031591862440109,3.8545989990234375,-3.215118169784546
1761369677759863300,3.33486328125,0.1435490995645523,4.045259475708008,-3.4680089950561523
1761369677778473200,3.35347314453125,-0.3005368411540985,3.1753368377685547,-3.2749812602996826
1761369677797084700,3.372084716796875,-1.7091506719589233,2.2847213745117188,-2.4899661540985107
1761369677815694600,3.390694580078125,-2.4269726276397705,0.2871745824813843,-1.2316207885742188
1761369677834305800,3.409305908203125,-2.1410961151123047,-1.3657780885696411,-0.07956285774707794
1761369677852915700,3.427915771484375,-1.51734459400177,-2.1660642623901367,0.47882789373397827
1761369677871527200,3.446527099609375,-0.6517740488052368,-2.4146792888641357,0.44339874386787415
1761369677890137000,3.46513720703125,0.29320669174194336,-2.028012990951538,0.25770118832588196
1761369677908748500,3.48374853515625,0.9462787508964539,-1.666391372680664,0.20455747842788696
1761369677927358500,3.5023583984375,0.9279533624649048,-1.860029935836792,0.23632153868675232
1761369677945970000,3.520969970703125,0.07574506103992462,-2.2644107341766357,0.04940227046608925
1761369677964579800,3.539579833984375,-0.5833591222763062,-1.8594191074371338,-0.603058934211731
1761369677983191300,3.55819140625,-0.735460102558136,-0.7518765926361084,-1.4582451581954956
1761369678001801200,3.57680126953125,-0.6322268843650818,0.30488914251327515,-2.0171704292297363
1761369678020412400,3.595412353515625,-0.6004628539085388,0.7385907173156738,-1.821088433265686
1761369678039022300,3.614022216796875,-0.7690566778182983,0.1802763044834137,-0.9579612016677856
1761369678057633800,3.6326337890625,-0.9871291518211365,-0.45256146788597107,0.2803025245666504
1761369678076243700,3.65124365234375,-1.0512681007385254,-0.6865159869194031,1.6339401006698608
1761369678094855200,3.669855224609375,-0.9284878373146057,-0.769591212272644,2.7555320262908936
1761369678113465000,3.688465087890625,-1.0488247871398926,-1.1770262718200684,3.1751840114593506
1761369678132076500,3.70707666015625,-1.0427162647247314,-1.291865587234497,2.7060532569885254
1761369678150686500,3.7256865234375,-0.4947862923145294,-0.8929823637008667,1.8801114559173584
1761369678169297700,3.744297607421875,0.22051586210727692,-0.6596387028694153,0.9485694169998169
1761369678187907600,3.762907470703125,0.7056049108505249,-0.8618291020393372,0.13675342500209808
1761369678206519000,3.78151904296875,0.4575245976448059,-1.5155121088027954,-0.5566345453262329
1761369678225129000,3.80012890625,-0.1716480851173401,-1.580872654914856,-1.4325895309448242
1761369678243740400,3.818740478515625,-0.39888325333595276,-0.28335678577423096,-2.1533892154693604
1761369678262350300,3.837350341796875,-0.39827242493629456,0.6500178575515747,-2.4288814067840576
1761369678280961800,3.8559619140625,-0.4453076422214508,0.72026526927948,-2.2932732105255127
1761369678299571700,3.87457177734375,-0.5919110178947449,0.7031615376472473,-2.157665252685547
1761369678318183200,3.89318310546875,-0.9003888368606567,0.7337039113044739,-2.256622552871704
1761369678336793000,3.91179296875,-1.0567657947540283,1.0140827894210815,-2.5070698261260986
1761369678355404300,3.930404296875,-0.9022213816642761,1.4014363288879395,-2.609692096710205
1761369678374014200,3.94901416015625,-0.652384877204895,1.5761386156082153,-2.5058481693267822
1761369678392625700,3.967625732421875,-0.35795649886131287,1.4893983602523804,-2.17293643951416
1761369678411235600,3.986235595703125,-0.021990500390529633,1.2242906093597412,-1.6384450197219849
1761369678429847000,4.004846923828125,0.2767138183116913,0.9847621321678162,-1.0104941129684448
1761369678448457000,4.02345703125,0.5253286361694336,0.8424347043037415,-0.33856210112571716
1761369678467068400,4.042068359375,0.7618029117584229,0.8986326456069946,0.38720080256462097
1761369678485678300,4.06067822265625,0.928564190864563,0.9035194516181946,1.1220500469207764
1761369678504289500,4.07928955078125,0.8638143539428711,0.7819608449935913,1.5698010921478271
1761369678522899500,4.0978994140625,0.7282062768936157,0.5663317441940308,1.6101170778274536
1761369678541511000,4.116510986328125,0.6158103942871094,0.3788016438484192,1.2906439304351807
1761369678560120800,4.135120849609375,0.6836144328117371,0.16989189386367798,0.9314656853675842
1761369678578732300,4.153732177734375,0.9132930040359497,0.19615831971168518,0.6535302400588989
1761369678597342200,4.17234228515625,0.9982007741928101,0.7141568064689636,0.5063160061836243
1761369678615953700,4.19095361328125,0.8491540551185608,1.0415709018707275,0.38720080256462097
1761369678634563600,4.2095634765625,0.5919110178947449,0.12041326612234116,0.3016822040081024
1761369678653175000,4.228175048828125,0.3249707520008087,-1.125104308128357,0.3151208162307739
1761369678671784700,4.24678466796875,0.22601348161697388,-0.07139277458190918,0.6498651504516602
1761369678690396200,4.265396240234375,0.34757208824157715,0.46248772740364075,1.0719605684280396
1761369678709006000,4.284006103515625,0.1325538605451584,0.38429927825927734,1.5093271732330322
1761369678727617500,4.302617431640625,-0.2748812735080719,-0.5124244689941406,2.0688633918762207
1761369678746227500,4.3212275390625,-0.43614494800567627,-1.462291955947876,2.5074515342712402
1761369678764839000,4.3398388671875,-0.08246438205242157,-1.0334771871566772,1.4005963802337646
1761369678783448800,4.35844873046875,0.3695625960826874,-0.21616357564926147,-0.6946860551834106
1761369678802060300,4.377060302734375,1.168627142906189,0.3274904787540436,-1.3733373880386353
1761369678820670000,4.395669921875,1.309122085571289,-0.49287739396095276,-1.242616057395935
1761369678839281400,4.414281494140625,0.9810970425605774,-1.262544870376587,-0.7734853625297546
1761369678857891300,4.432891357421875,0.522885262966156,-1.1922974586486816,-0.8131904006004333
1761369678876502800,4.451502685546875,0.9291750192642212,-1.046915888786316,-1.32935631275177
1761369678895112700,4.47011279296875,1.2743037939071655,-0.7775322198867798,-1.9841846227645874
1761369678913724200,4.48872412109375,1.1637403964996338,-0.37559470534324646,-2.2291343212127686
1761369678932334000,4.507333984375,0.9151255488395691,0.025121092796325684,-2.0697033405303955
1761369678950945500,4.525945556640625,0.6048151254653931,0.3146626949310303,-1.705027461051941
1761369678969555500,4.544555419921875,0.26632940769195557,0.45088163018226624,-1.1277767419815063
1761369678988166700,4.563166748046875,-0.1050657257437706,0.8448781371116638,-0.3978142738342285
1761369679006776600,4.581776611328125,-0.5070032477378845,1.5590349435806274,0.5081485509872437
1761369679025388000,4.600387939453125,-0.7421793937683105,1.981741189956665,1.2533822059631348
1761369679043998000,4.618998046875,-0.7165238261222839,1.9890713691711426,1.759163737297058
1761369679062609400,4.637609375,-0.4715740978717804,2.9383280277252197,1.8489582538604736
1761369679081219300,4.65621923828125,-0.22906772792339325,1.592631459236145,1.6400485038757324
1761369679099830800,4.674830810546875,-0.02504473738372326,1.6610463857650757,1.1360995769500732
1761369679118440700,4.693440673828125,0.2498365342617035,2.064816474914551,0.9387958645820618
1761369679137052000,4.712052001953125,0.30847787857055664,2.0385499000549316,0.977890133857727
1761369679155661800,4.730661865234375,0.09590301662683487,1.7697771787643433,1.18618905544281
1761369679174273300,4.749273193359375,-0.15393351018428802,1.0220237970352173,1.4470207691192627
1761369679192883200,4.76788330078125,-0.4831801950931549,0.1265217363834381,1.6944139003753662
1761369679211494700,4.78649462890625,-0.9590302109718323,-0.276637464761734,2.009000301361084
1761369679230104600,4.8051044921875,-1.3316470384597778,-0.16301986575126648,2.0285472869873047
1761369679248716000,4.823716064453125,-1.3994510173797607,-0.4385119676589966,1.5722445249557495
1761369679267326000,4.842325927734375,-1.3499724864959717,-1.5283398628234863,0.5203655362129211
1761369679285937200,4.860937255859375,-0.790436327457428,-1.4366364479064941,-0.8339592218399048
1761369679304547000,4.879547119140625,0.8167791366577148,-0.9876636862754822,-1.7001405954360962
1761369679323158500,4.898158447265625,2.5857927799224854,-0.5808393955230713,-2.0965805053710938
1761369679341768400,4.9167685546875,3.7006654739379883,-0.013362283818423748,-2.5724306106567383
1761369679360380000,4.9353798828125,4.707952499389648,-0.436068594455719,-2.3684074878692627
1761369679378989800,4.95398974609375,5.32551908493042,-0.7964684963226318,-1.5956857204437256
1761369679397601300,4.972601318359375,5.0640764236450195,-0.4079696238040924,-0.38193225860595703
1761369679416211000,4.9912109375,3.223517417907715,-0.39086589217185974,0.9406284093856812
1761369679434822400,5.009822509765625,1.7416019439697266,-1.6163018941879272,1.4702329635620117
1761369679453432300,5.028432373046875,0.6316924095153809,-2.6339733600616455,1.698078989982605
1761369679472043800,5.047043701171875,0.1313321590423584,-3.2820823192596436,1.662039041519165
1761369679490653700,5.06565380859375,0.18142163753509521,-3.280860662460327,1.3779950141906738
1761369679509265200,5.08426513671875,0.5070032477378845,-2.606485366821289,0.7023980021476746
1761369679527875000,5.102875,0.6567371487617493,-2.039618968963623,-0.31596073508262634
1761369679546486500,5.121486572265625,0.32374903559684753,-1.1770262718200684,-1.1106730699539185
1761369679565096400,5.140096435546875,-0.18691925704479218,-0.4391228258609772,-1.2823210954666138
1761369679583707600,5.158707763671875,-0.6035171151161194,0.061771929264068604,-1.1015102863311768
1761369679602317600,5.177317626953125,-0.7330167293548584,0.35436776280403137,-0.7887565493583679
1761369679620929000,5.195928955078125,-0.5919110178947449,0.5315134525299072,-0.2292204350233078
1761369679639539000,5.2145390625,-0.37444937229156494,0.6805602312088013,0.6235986948013306
1761369679658150400,5.233150390625,-0.20280128717422485,0.8851940631866455,1.3364574909210205
1761369679676760300,5.25176025390625,-0.06047387793660164,0.7929561138153076,1.7451142072677612
1761369679695371500,5.27037158203125,-0.10323318839073181,0.924288272857666,1.8685053586959839
1761369679713981400,5.2889814453125,-0.29503923654556274,0.697053074836731,1.8226919174194336
1761369679732593000,5.307593017578125,-0.4306473135948181,-0.36154523491859436,1.3492852449417114
1761369679751202800,5.326202880859375,-0.395218163728714,-0.25892287492752075,0.9161945581436157
1761369679769814300,5.344814208984375,-0.26999449729919434,0.7330930829048157,0.9754467010498047
1761369679788424200,5.363424072265625,0.2736595869064331,1.9200456142425537,1.476952314376831
1761369679807035600,5.38203564453125,1.0458468198776245,1.0556204319000244,1.3865469694137573
1761369679825645300,5.400645263671875,1.0055309534072876,-0.6370373368263245,0.6535302400588989
1761369679844256800,5.4192568359375,0.3567348122596741,-0.8422819972038269,-0.17363333702087402
1761369679862866700,5.43786669921875,-0.0012216945178806782,-0.04146125912666321,-1.213906168937683
1761369679881478100,5.45647802734375,0.21440738439559937,1.0159153938293457,-2.2602875232696533
1761369679900088000,5.475088134765625,0.45080527663230896,1.7942111492156982,-3.0172035694122314
1761369679918699500,5.493699462890625,0.39827242493629456,2.11734938621521,-3.287809133529663
1761369679937309400,5.512309326171875,0.18997350335121155,2.083141803741455,-2.920078992843628
1761369679955920600,5.530920654296875,0.09284878522157669,1.8247535228729248,-1.9664700031280518
1761369679974530600,5.549530517578125,0.16187451779842377,1.5284925699234009,-0.7295043468475342
1761369679993142000,5.56814208984375,0.20707722008228302,1.2780451774597168,0.3578801453113556
1761369680011752000,5.586751953125,0.30481278896331787,0.9609391093254089,1.1324344873428345
1761369680030363400,5.60536328125,0.4074351191520691,0.7049940824508667,1.676088571548462
1761369680048973300,5.623973388671875,0.5680879354476929,0.5046361684799194,1.9863989353179932
1761369680067584800,5.642584716796875,0.6426876783370972,0.3794125020503998,1.9247033596038818
1761369680086194400,5.6611943359375,0.5748072862625122,0.3788016438484192,1.7047983407974243
1761369680104806000,5.679805908203125,0.4416425824165344,0.20043425261974335,1.5282634496688843
1761369680123415800,5.698415771484375,0.36101073026657104,0.057496000081300735,1.5239875316619873
1761369680142027300,5.71702734375,0.34635040163993835,0.0880383625626564,1.651654601097107
1761369680160637200,5.73563720703125,0.2877090573310852,-0.11659546941518784,1.7658830881118774
1761369680179248600,5.75424853515625,0.22479179501533508,-0.5582380294799805,1.71273934841156
1761369680197858600,5.772858642578125,0.16492876410484314,-0.7842515110969543,1.7017440795898438
1761369680216469800,5.7914697265625,0.19974705576896667,-0.8490013480186462,1.832465410232544
1761369680235079700,5.81007958984375,0.036039989441633224,-0.5313607454299927,2.0487053394317627
1761369680253691100,5.828691162109375,-0.22479179501533508,0.4838673770427704,2.2337920665740967
1761369680272301000,5.847301025390625,-0.18997350335121155,1.7428998947143555,2.2154667377471924
1761369680290912500,5.86591259765625,-0.007941014133393764,2.131398916244507,1.721291184425354
1761369680309522400,5.8845224609375,0.30603447556495667,1.8711779117584229,0.9827768802642822
1761369680328134000,5.9031337890625,0.5607577562332153,1.722741961479187,0.14469444751739502
1761369680346743600,5.92174365234375,0.26877278089523315,0.48997586965560913,-1.6231738328933716
1761369680365355000,5.94035498046875,-0.1966928243637085,-0.5258631110191345,-2.9628381729125977
1761369680383965000,5.95896484375,0.08429691940546036,-0.006032116711139679,-3.041637659072876
1761369680402576400,5.977576416015625,0.33413344621658325,0.8027296662330627,-2.3830678462982178
1761369680421186300,5.996186279296875,0.3946073353290558,0.7526401877403259,-1.3605095148086548
1761369680439797800,6.0147978515625,0.21318569779396057,-0.1984490007162094,-0.38071054220199585
1761369680458407700,6.03340771484375,-0.28343313932418823,-1.1073896884918213,-0.029473381116986275
1761369680477019000,6.052018798828125,-0.6994200944900513,-1.026757836341858,-0.5835118293762207
1761369680495628800,6.07062890625,-0.45385950803756714,0.15645325183868408,-1.3263020515441895
1761369680514240300,6.089240234375,0.0659715011715889,1.585301399230957,-1.5773603916168213
1761369680532850200,6.10785009765625,0.2107423096895218,1.9151588678359985,-1.0349279642105103
1761369680551461600,6.126461669921875,-0.08002099394798279,0.8314394950866699,0.09399411827325821
1761369680570071600,6.145071533203125,-0.46668729186058044,-0.5509078502655029,1.213677167892456
1761369680588682800,6.163682861328125,-0.49112120270729065,-1.217953085899353,1.9405853748321533
1761369680607292700,6.182292724609375,-0.21990501880645752,-1.0695171356201172,2.17392897605896
1761369680625904000,6.200904052734375,0.02504473738372326,-0.489212304353714,1.9827338457107544
1761369680644514000,6.21951416015625,0.09712471067905426,-0.11293038725852966,1.7145719528198242
1761369680663125500,6.23812548828125,-0.06413896381855011,-0.028633465990424156,1.6797536611557007
1761369680681735400,6.2567353515625,-0.3176405727863312,-0.23326729238033295,1.8581210374832153
1761369680700346600,6.2753466796875,-0.4343124032020569,-0.5753417611122131,1.9503589868545532
1761369680718956500,6.29395654296875,-0.4575245976448059,-0.6584169864654541,1.8764463663101196
1761369680737568000,6.312568115234375,-0.5748072862625122,-0.27236151695251465,1.6864728927612305
1761369680756178000,6.331177978515625,-0.5601469278335571,0.03978142887353897,1.3340140581130981
1761369680774789400,6.349789306640625,-0.4349232614040375,0.28106608986854553,0.8868738412857056
1761369680793399300,6.3683994140625,-0.5509842038154602,-0.25953373312950134,0.6559736132621765
1761369680812010500,6.387010498046875,-0.7043069005012512,-1.3492852449417114,0.7219451069831848
1761369680830620400,6.405620361328125,-0.5809157490730286,-1.0988378524780273,1.1696960926055908
1761369680849232000,6.42423193359375,-0.5167768001556396,-0.015805672854185104,1.9821230173110962
1761369680867841800,6.442841796875,-0.5302154421806335,0.724541187286377,2.5948028564453125
1761369680886453200,6.461453369140625,-0.4813476502895355,0.5852680206298828,2.3944449424743652
1761369680905063200,6.480063232421875,-0.29687178134918213,-0.20333577692508698,1.4268628358840942
1761369680923674400,6.49867431640625,0.021990500390529633,-0.7885274291038513,-0.028251685202121735
1761369680942284300,6.5172841796875,0.5192201733589172,-0.37742725014686584,-1.1998567581176758
1761369680960895700,6.535895751953125,0.7514184713363647,0.4514924883842468,-1.7306829690933228
1761369680979505700,6.554505615234375,0.36039987206459045,1.080665111541748,-2.1008565425872803
1761369680998117000,6.5731171875,-0.2870981991291046,1.450914978981018,-2.554105043411255
1761369681016727000,6.59172705078125,-0.5210527181625366,0.8619818091392517,-2.5394446849823
1761369681035338200,6.610338134765625,0.2626643180847168,-1.209401249885559,-1.8461331129074097
1761369681053948200,6.6289482421875,0.6451310515403748,-1.1605334281921387,-0.6317687630653381
1761369681072559600,6.6475595703125,0.43858832120895386,-0.4995967149734497,0.7537091374397278
1761369681091169500,6.66616943359375,-0.08551861345767975,-0.3010713458061218,1.800701379776001
1761369681109781000,6.684781005859375,-0.624896764755249,-0.37559470534324646,2.2588367462158203
1761369681128391000,6.703390869140625,-1.1880979537963867,-0.28641101717948914,2.4408693313598633
1761369681147002000,6.722002197265625,-1.4373235702514648,0.058717694133520126,2.4469778537750244
1761369681165612000,6.740612060546875,-1.3249276876449585,0.7807391285896301,2.3315277099609375
1761369681184223500,6.759223388671875,-0.990183413028717,1.058674693107605,2.4036076068878174
1761369681202833400,6.77783349609375,-0.9510892033576965,1.1112074851989746,1.9870097637176514
1761369681221444900,6.79644482421875,-0.8802309036254883,1.320804476737976,1.4335821866989136
1761369681240054800,6.8150546875,-0.4416425824165344,1.51566481590271,1.1104439496994019
1761369681258666000,6.833666015625,-0.03542914241552353,1.5181081295013428,1.018206000328064
1761369681277276000,6.85227587890625,0.054365407675504684,1.3342431783676147,1.371275782585144
1761369681295887400,6.870887451171875,-0.11545012891292572,1.0684481859207153,2.0132761001586914
1761369681314497300,6.889497314453125,-0.288930743932724,0.40140300989151,2.5453240871429443
1761369681333108700,6.908108642578125,-0.3775036036968231,-0.14041851460933685,2.725600481033325
1761369681351718400,6.926718505859375,-0.40071579813957214,0.055052608251571655,2.445755958557129
1761369681370329900,6.945329833984375,-0.3542914092540741,0.6084802150726318,1.5698010921478271
1761369681388939800,6.963939697265625,-0.20035789906978607,1.1991695165634155,0.45683738589286804
1761369681407551200,6.98255126953125,-0.006719320081174374,1.0922712087631226,-0.14003673195838928
1761369681426161200,7.0011611328125,0.21318569779396057,0.0019088976550847292,-0.13331741094589233
1761369681444772400,7.0197724609375,0.21440738439559937,-1.1458730697631836,-0.12843063473701477
1761369681463382300,7.03838232421875,0.24250635504722595,-1.3254622220993042,-0.3465031087398529
1761369681481993700,7.05699365234375,0.36162158846855164,-0.5179221034049988,-0.6922426819801331
1761369681500603600,7.075603759765625,0.3249707520008087,-0.2778591513633728,-0.7350019812583923
1761369681519215000,7.094215087890625,-0.12339114397764206,0.13751699030399323,-0.7539382576942444
1761369681537825000,7.112824951171875,-0.4367557764053345,-0.0946049690246582,-1.3464601039886475
1761369681556436200,7.131436279296875,0.2223484069108963,-1.3071367740631104,-1.6934213638305664
1761369681575046100,7.150046142578125,1.2119972705841064,-2.5374596118927,-0.8632798790931702
1761369681593657600,7.16865771484375,1.1081533432006836,-2.2955639362335205,0.23143476247787476
1761369681612267500,7.187267578125,0.3151971995830536,-0.9100860357284546,0.8691592812538147
1761369681630879000,7.20587890625,-0.26938363909721375,0.18943901360034943,0.8001335263252258
1761369681649489000,7.224489013671875,-0.3542914092540741,0.82655268907547,0.29801711440086365
1761369681668100000,7.24310009765625,-0.1557660549879074,1.0623397827148438,-0.18340688943862915
1761369681686710000,7.2617099609375,-0.05131116881966591,0.9554414749145508,-0.2560977041721344
1761369681705321500,7.280321533203125,-0.22540263831615448,0.511966347694397,0.0029778804164379835
1761369681723931400,7.298931396484375,-0.5882459282875061,0.3659738600254059,0.3181750774383545
1761369681742542600,7.31754248046875,-0.7379034757614136,0.39712706208229065,0.4232407808303833
1761369681761152500,7.336152587890625,-0.6377245187759399,0.5871005654335022,0.4116346836090088
1761369681779764000,7.354763916015625,-0.6029062271118164,0.8894699811935425,0.44034451246261597
1761369681798374000,7.373373779296875,-0.4068242609500885,0.8234984874725342,0.6755207180976868
1761369681816985300,7.3919853515625,-0.3524588644504547,0.5925981998443604,0.9638406038284302
1761369681835595000,7.410594970703125,-0.4367557764053345,0.5333459973335266,1.3810492753982544
1761369681854206500,7.42920654296875,-0.4489727318286896,0.34337252378463745,1.773213267326355
1761369681872816400,7.44781640625,-0.258999228477478,0.2578538954257965,1.948526382446289
1761369681891427800,7.466427734375,-0.008551862090826035,0.6677324175834656,1.7976471185684204
1761369681910037800,7.485037841796875,0.27915719151496887,1.1356414556503296,1.5203224420547485
1761369681928649000,7.50364892578125,0.5540384650230408,0.8858048915863037,1.2613232135772705
1761369681947259000,7.5222587890625,0.7801283001899719,0.2706816792488098,0.9687274098396301
1761369681965870300,7.540870361328125,0.9554414749145508,0.20837527513504028,0.704230546951294
1761369681984480300,7.559480224609375,1.1509126424789429,0.0037414394319057465,0.6089383363723755
1761369682003091700,7.578091796875,1.0519553422927856,-0.3945309817790985,0.25831204652786255
1761369682021701600,7.59670166015625,0.9084062576293945,-0.6852942705154419,-0.49799323081970215
1761369682040312800,7.615312744140625,0.9548306465148926,-0.4751628041267395,-1.5834687948226929
1761369682058922800,7.6339228515625,0.8595384359359741,0.25479966402053833,-3.0135385990142822
1761369682077534200,7.6525341796875,0.6408551335334778,0.7422557473182678,-4.269440650939941
1761369682096144100,7.67114404296875,0.3787252902984619,0.29328304529190063,-4.889450550079346
1761369682114755300,7.68975537109375,0.42576053738594055,-1.7348061800003052,-4.493621349334717
1761369682133365200,7.708365234375,0.3151971995830536,-2.444610834121704,-3.435023307800293
1761369682151976700,7.726976806640625,-0.19058434665203094,-1.8985133171081543,-2.735603094100952
1761369682170586600,7.745586669921875,-0.42759308218955994,-0.6266529560089111,-2.383678674697876
1761369682189198000,7.764197998046875,-0.33413344621658325,0.484478235244751,-2.311598777770996
1761369682207808000,7.78280810546875,-0.1844758689403534,0.7599703669548035,-2.375126838684082
1761369682226419200,7.801419189453125,-0.005497625097632408,0.3598653972148895,-2.270672082901001
1761369682245029000,7.820029052734375,0.11606097966432571,-0.22166119515895844,-1.995790719985962
1761369682263640600,7.838640625,0.08735115826129913,-0.6736881732940674,-1.6188979148864746
1761369682282250500,7.85725048828125,-0.0916270911693573,-0.8825979232788086,-1.278656005859375
1761369682300861700,7.87586181640625,-0.36284327507019043,-0.6376481652259827,-0.8706100583076477
1761369682319471600,7.8944716796875,-0.679872989654541,-0.15019206702709198,-0.32756683230400085
1761369682338083000,7.9130830078125,-0.9700254201889038,0.10941801220178604,0.13125580549240112
1761369682356693000,7.93169287109375,-1.1709941625595093,-0.0946049690246582,0.5594597458839417
1761369682375304400,7.950304443359375,-1.3334795236587524,-0.4110238552093506,0.8544989824295044
1761369682393914400,7.968914306640625,-1.3866232633590698,-0.6914027333259583,1.1128873825073242
1761369682412525600,7.987525634765625,-1.2888877391815186,-0.8154047131538391,1.4354146718978882
1761369682431135500,8.006135498046875,-1.037218689918518,0.17050273716449738,1.8300219774246216
1761369682449747000,8.024746826171874,-0.9571976661682129,0.8241093158721924,1.786041021347046
1761369682468356900,8.04335693359375,-0.8777875304222107,-1.725643515586853,0.9045884609222412
1761369682486968000,8.061968017578126,-0.7537854909896851,-0.36276692152023315,0.11231953650712967
1761369682505578000,8.080577880859375,0.004275931045413017,1.0434035062789917,-0.728893518447876
1761369682524189400,8.099189453125,1.1124292612075806,1.4857332706451416,-1.2475028038024902
1761369682542799400,8.11779931640625,1.7947455644607544,1.172903060913086,-1.631725788116455
1761369682561410800,8.136410888671875,1.5992745161056519,0.2981698215007782,-2.2700610160827637
1761369682580020500,8.1550205078125,0.7837933897972107,-0.17035003006458282,-2.64389967918396
1761369682598632000,8.1736318359375,0.08246438205242157,0.271903395652771,-2.494241952896118
1761369682617241900,8.192241943359376,-0.10262233763933182,0.2975589632987976,-2.2437946796417236
1761369682635853300,8.210853271484375,0.02870982140302658,-1.180080533027649,-2.1686604022979736
1761369682654463000,8.229462890625,0.22723518311977386,-2.5234100818634033,-1.9377602338790894
1761369682673074400,8.248074462890624,0.16492876410484314,-2.3908562660217285,-1.2548329830169678
1761369682691684400,8.266684326171875,-0.056808795779943466,-1.0756256580352783,-0.2298312783241272
1761369682710295800,8.2852958984375,-0.42698222398757935,-0.14286190271377563,0.7579851150512695
1761369682728905700,8.30390576171875,-0.7464553713798523,-0.12514732778072357,1.3999855518341064
1761369682747517000,8.322516845703126,-0.9517000317573547,-0.48127129673957825,1.674866795539856
1761369682766126800,8.341126953125,-1.0017894506454468,-0.805631160736084,1.6986898183822632
1761369682784738300,8.35973828125,-0.9339854717254639,-0.7482115626335144,1.6797536611557007
1761369682803348200,8.37834814453125,-0.9071081876754761,-0.5063160061836243,1.5368154048919678
1761369682821959700,8.396959716796875,-1.0579874515533447,-0.045737188309431076,1.2717076539993286
1761369682840569300,8.4155693359375,-1.342031478881836,0.6744517087936401,1.1648093461990356
1761369682859180800,8.434180908203125,-1.6639479398727417,1.344016671180725,1.2087904214859009
1761369682877790700,8.452790771484375,-1.6627262830734253,1.398992896080017,1.2930872440338135
1761369682896402200,8.471402099609374,-1.2650647163391113,0.9688801169395447,1.458016037940979
1761369682915011800,8.49001171875,-0.6633801460266113,0.3513135313987732,1.564914345741272
1761369682933623300,8.508623291015626,-0.22479179501533508,0.4704287350177765,1.655930519104004
1761369682952233200,8.527233154296875,0.042759306728839874,0.39834877848625183,1.579574704170227
1761369682970844700,8.5458447265625,0.08551861345767975,0.2688491642475128,1.3065259456634521
1761369682989454600,8.56445458984375,0.1044548824429512,-0.0695602297782898,0.8202915191650391
1761369683008065800,8.583065673828125,0.08796200156211853,-0.12270393967628479,0.1471378356218338
1761369683026675700,8.60167578125,-0.15515519678592682,-0.11109784245491028,-0.7117897868156433
1761369683045287200,8.620287109375,-0.3402419090270996,0.2816769480705261,-1.3867759704589844
1761369683063897000,8.63889697265625,-0.22479179501533508,0.7318713665008545,-1.5443745851516724
1761369683082508300,8.65750830078125,0.24128466844558716,0.7141568064689636,-1.2175712585449219
1761369683101118200,8.6761181640625,0.849764883518219,-0.2662530541419983,-0.7594358325004578
1761369683119729700,8.694729736328124,0.9701017737388611,-1.0970053672790527,-0.8186880350112915
1761369683138339600,8.713339599609375,0.7960103154182434,-1.25826895236969,-1.5846904516220093
1761369683156951000,8.731950927734376,0.5387672781944275,-1.0860100984573364,-2.6133573055267334
1761369683175560700,8.750560791015625,0.7086591720581055,-1.5570496320724487,-3.608503818511963
1761369683194172200,8.769172119140626,1.1759573221206665,-1.5442218780517578,-4.055033206939697
1761369683212782000,8.787781982421874,1.4905437231063843,-1.255214810371399,-3.852231979370117
1761369683231393500,8.8063935546875,1.094714641571045,-0.16301986575126648,-2.8840389251708984
1761369683250003500,8.82500341796875,0.34696123003959656,0.6506286859512329,-1.5736953020095825
1761369683268614700,8.84361474609375,-0.32130566239356995,0.72026526927948,-0.19379130005836487
1761369683287224600,8.862224609375,-0.6090146899223328,-0.08544225990772247,0.9528453946113586
1761369683305836000,8.8808359375,-0.5729747414588928,-0.940017580986023,1.7512227296829224
1761369683324446000,8.899446044921875,-0.35856732726097107,-0.8050203323364258,1.53620445728302
1761369683343057200,8.91805712890625,0.26938363909721375,-0.07078192383050919,1.194740891456604
1761369683361667000,8.9366669921875,0.8491540551185608,0.770965576171875,1.11105477809906
1761369683380278500,8.955278564453126,0.7905126810073853,1.0324082374572754,1.0389748811721802
1761369683398888400,8.973888427734375,0.46241137385368347,0.8595384359359741,1.166031002998352
1761369683417500000,8.9925,0.16615045070648193,0.5840463638305664,1.5398695468902588
1761369683436109600,9.011109619140624,-0.07269082218408585,0.21204034984111786,2.012054443359375
1761369683454721000,9.029720947265625,-0.18814095854759216,-0.10193513333797455,2.3205323219299316
1761369683473331000,9.0483310546875,-0.030542362481355667,-0.2754157483577728,2.4176571369171143
1761369683491942400,9.0669423828125,0.12644538283348083,-0.1727934181690216,2.297930955886841
1761369683510552300,9.08555224609375,0.004886778071522713,-0.36276692152023315,1.8727813959121704
1761369683529163500,9.10416357421875,-0.29565006494522095,-0.7561525702476501,0.8899281024932861
1761369683547773400,9.1227734375,-0.7745543122291565,-0.6229878664016724,-0.41858309507369995
1761369683566385000,9.141385009765624,-0.9822424054145813,0.7465317249298096,-1.1461021900177002
1761369683584994800,9.159994873046875,-0.2779355049133301,2.025111436843872,-0.9261971712112427
1761369683603606000,9.17860595703125,0.5015056133270264,2.120403528213501,-0.11743538826704025
1761369683622216000,9.1972158203125,0.5442649126052856,1.2187930345535278,0.8807653784751892
1761369683640827400,9.215827392578126,-0.18142163753509521,-0.6052733063697815,1.5710227489471436
1761369683659437300,9.234437255859374,-1.0750911235809326,-1.5210096836090088,1.5429238080978394
1761369683678048500,9.253048583984375,-0.81425940990448,-1.0078216791152954,0.7359945774078369
1761369683696658400,9.271658447265626,0.1575985997915268,-0.052456509321928024,-0.40575528144836426
1761369683715270000,9.290269775390625,0.5296045541763306,0.4979168772697449,-1.2847645282745361
1761369683733879800,9.3088798828125,0.6481853127479553,-0.6174902319908142,-1.6903671026229858
1761369683752491300,9.3274912109375,0.8900808095932007,-2.195995807647705,-1.5254383087158203
1761369683771101000,9.346100830078125,0.9450570940971375,-2.522799253463745,-1.089293360710144
1761369683789712400,9.36471240234375,0.8839723467826843,-1.4806936979293823,-0.8828269839286804
1761369683808322300,9.383322265625,0.6854469776153564,0.09964445978403091,-1.0031639337539673
1761369683826933800,9.401933837890626,0.4196520745754242,1.297592282295227,-1.053253412246704
1761369683845543700,9.420543701171875,0.15149012207984924,1.7196877002716064,-0.968956470489502
1761369683864155000,9.43915478515625,-0.15087927877902985,1.1808440685272217,-0.8962656259536743
1761369683882764800,9.457764892578124,-0.3915531039237976,0.055052608251571655,-0.8180772066116333
1761369683901376300,9.476376220703125,-0.39888325333595276,-0.8807653784751892,-0.49738237261772156
1761369683919986200,9.494986083984376,-0.2504473626613617,-0.5527403950691223,-0.04230117425322533
1761369683938597400,9.513597412109375,-0.07024743407964706,-0.19478392601013184,0.3676536977291107
1761369683957207300,9.532207275390626,0.0018325417768210173,-0.07261446863412857,0.6645254492759705
1761369683975818800,9.55081884765625,0.04703523963689804,0.25296711921691895,0.9174162149429321
1761369683994428700,9.5694287109375,0.09407047927379608,0.5596124529838562,1.207568645477295
1761369684013039900,9.588039794921874,0.1313321590423584,0.9267316460609436,1.6363834142684937
1761369684031649800,9.60664990234375,0.24067382514476776,1.044625163078308,2.0920755863189697
1761369684050261200,9.62526123046875,-0.08796200156211853,0.6707866191864014,2.1751506328582764
1761369684068871200,9.64387109375,-0.4813476502895355,0.3219928741455078,1.8721704483032227
1761369684087482600,9.662482666015626,-0.38727715611457825,0.1259108930826187,1.560638427734375
1761369684106092300,9.68109228515625,0.09345962852239609,-0.13247749209403992,1.2289483547210693
1761369684124703700,9.699703857421875,0.3127537965774536,0.2065427303314209,0.7500441074371338
1761369684143313700,9.718313720703126,0.2736595869064331,0.7178218960762024,0.34932827949523926
1761369684161925000,9.736925048828125,0.23334364593029022,0.7844042181968689,0.09704835712909698
1761369684180535000,9.75553515625,0.11667182296514511,0.40873315930366516,-0.18523943424224854
1761369684199146200,9.774146240234375,-0.24678228795528412,-0.03352024406194687,-0.5932853817939758
1761369684217756200,9.792756103515625,-0.6169557571411133,0.025731941685080528,-1.0135482549667358
1761369684236367600,9.81136767578125,-0.7018635272979736,0.4252260625362396,-1.5339901447296143
1761369684254977500,9.8299775390625,-0.42698222398757935,0.6194754838943481,-1.936538577079773
1761369684273588700,9.848588623046876,-0.17714570462703705,0.4673745036125183,-2.0776443481445312
1761369684292198700,9.86719873046875,-0.19058434665203094,0.5315134525299072,-1.9786869287490845
1761369684310810000,9.88581005859375,-0.3671191930770874,0.7508076429367065,-1.71846604347229
1761369684329420000,9.904419921875,-0.4703523814678192,0.8570950627326965,-1.3403515815734863
1761369684348031200,9.92303125,-0.45447036623954773,0.5296809077262878,-0.9683456420898438
1761369684366641200,9.94164111328125,-0.32374903559684753,0.03489464893937111,-0.6439857482910156
