time,seconds_elapsed,z,y,x
1761371079107582700,0.206582763671875,-0.0910162404179573,1.3629529476165771,-0.5236487984657288
1761371079126194000,0.22519384765625,-0.08979454636573792,1.5578131675720215,-0.6018372774124146
1761371079144806700,0.243806640625,-0.062306419014930725,1.3947169780731201,-0.5089884996414185
1761371079163417900,0.26241796875,-0.08612946420907974,0.9768211245536804,-0.1772984117269516
1761371079182030600,0.281030517578125,-0.2895416021347046,0.645741879940033,0.22105035185813904
1761371079200641800,0.299641845703125,-0.5564818382263184,0.5730510950088501,0.5197546482086182
1761371079219254500,0.318254638671875,-0.6817055344581604,0.34581589698791504,0.6895701885223389
1761371079237865700,0.33686572265625,-0.6303943991661072,0.2444152534008026,0.7683694958686829
1761371079256478500,0.355478515625,-0.5741963982582092,0.21631628274917603,0.7347729206085205
1761371079275089700,0.374089599609375,-0.5338805317878723,0.1289651244878769,0.5735092163085938
1761371079293702400,0.392702392578125,-0.5161659121513367,0.32932302355766296,0.3670428395271301
1761371079312313600,0.411313720703125,-0.37689274549484253,0.4979168772697449,0.13736428320407867
1761371079330926300,0.42992626953125,-0.1557660549879074,0.6610130667686462,-0.14675605297088623
1761371079349537500,0.44853759765625,0.1185043677687645,0.747753381729126,-0.4228590130805969
1761371079368150000,0.46714990234375,0.4349232614040375,0.7141568064689636,-0.6421532034873962
1761371079386761500,0.485761474609375,0.6158103942871094,0.558390736579895,-0.7624900937080383
1761371079405374000,0.5043740234375,0.6597914099693298,0.45027077198028564,-0.7404996156692505
1761371079423985200,0.522985107421875,0.6487961411476135,0.3769691288471222,-0.6482616662979126
1761371079442598000,0.541597900390625,0.6078693866729736,0.2450261116027832,-0.5315898060798645
1761371079461209000,0.560208984375,0.5595360994338989,0.22670069336891174,-0.5383091568946838
1761371079479821800,0.57882177734375,0.5919110178947449,0.12041326612234116,-0.7105680704116821
1761371079498433000,0.59743310546875,0.6316924095153809,-0.04818057641386986,-0.9433009028434753
1761371079517045800,0.616045654296875,0.6585696935653687,-0.21860696375370026,-1.108229637145996
1761371079535657000,0.634656982421875,0.7288171648979187,-0.35238251090049744,-1.1766445636749268
1761371079554269700,0.653269775390625,0.7410340905189514,-0.4519506096839905,-1.1351069211959839
1761371079572881000,0.671880859375,0.6597914099693298,-0.4244624972343445,-1.0202676057815552
1761371079591493600,0.69049365234375,0.6133670210838318,-0.33466795086860657,-0.9671239256858826
1761371079610104800,0.709104736328125,0.5943543910980225,-0.2259371280670166,-0.9707890152931213
1761371079628717600,0.727717529296875,0.6310815811157227,-0.14164020121097565,-0.9579612016677856
1761371079647328800,0.746328857421875,0.687890350818634,-0.19234053790569305,-0.8785510659217834
1761371079665941500,0.76494140625,0.6689541339874268,-0.24853847920894623,-0.6952968835830688
1761371079684552700,0.783552734375,0.6304707527160645,-0.2754157483577728,-0.45523393154144287
1761371079703165400,0.80216552734375,0.5589252710342407,-0.276637464761734,-0.2029540091753006
1761371079721776600,0.820776611328125,0.4886777997016907,-0.2112767994403839,0.021303297951817513
1761371079740389400,0.839389404296875,0.4306473135948181,-0.16912832856178284,0.10193513333797455
1761371079759000600,0.85800048828125,0.38666632771492004,-0.11720632016658783,0.08666395395994186
1761371079777613300,0.87661328125,0.3286358118057251,-0.07872293889522552,0.05306735634803772
1761371079796224500,0.895224609375,0.2480039894580841,-0.05428905040025711,0.059175826609134674
1761371079814837200,0.913837158203125,0.16676130890846252,-0.02557922899723053,0.11170869320631027
1761371079833448400,0.932448486328125,0.11483928561210632,-0.03352024406194687,0.1868429034948349
1761371079852061200,0.951061279296875,0.07207997888326645,-0.054899897426366806,0.2888543903827667
1761371079870672400,0.96967236328125,0.015271181240677834,-0.004199574701488018,0.3939201235771179
1761371079889285000,0.98828515625,-0.04092676565051079,0.11858072131872177,0.4342360496520996
1761371079907896300,1.006896240234375,-0.06352811306715012,0.20898611843585968,0.38842248916625977
1761371079926509000,1.025509033203125,-0.031153209507465363,0.25418880581855774,0.28457847237586975
1761371079945120300,1.044120361328125,0.033596597611904144,0.22975492477416992,0.17645850777626038
1761371079963733000,1.06273291015625,0.0781884491443634,0.168670192360878,0.120871402323246
1761371079982344200,1.08134423828125,0.07696675509214401,0.11186140775680542,0.11048699915409088
1761371080000957000,1.09995703125,0.047646086663007736,0.07826480269432068,0.1074327602982521
1761371080019568000,1.118568115234375,0.06352811306715012,0.07765395939350128,0.05062396824359894
1761371080038180900,1.137180908203125,0.1301104724407196,0.045889899134635925,-0.06734590977430344
1761371080056792000,1.1557919921875,0.2113531529903412,-0.07078192383050919,-0.18035265803337097
1761371080075404800,1.17440478515625,0.29259583353996277,-0.19661645591259003,-0.21333840489387512
1761371080094016000,1.19301611328125,0.3903313875198364,-0.14408360421657562,-0.11743538826704025
1761371080112628700,1.211628662109375,0.46607646346092224,-0.11293038725852966,0.08483141660690308
1761371080131240000,1.230239990234375,0.4459185004234314,-0.26197710633277893,0.2680855989456177
1761371080149852700,1.248852783203125,0.3683409094810486,-0.6914027333259583,0.3810923397541046
1761371080168464000,1.2674638671875,0.27915719151496887,-0.880154550075531,0.537469208240509
1761371080187076600,1.28607666015625,0.2516690790653229,-0.7396596670150757,0.7537091374397278
1761371080205687800,1.304687744140625,0.3555130958557129,-0.3719296157360077,0.9412392973899841
1761371080224300500,1.323300537109375,0.4178195297718048,-0.12331479042768478,1.04569411277771
1761371080242911700,1.341911865234375,0.367730051279068,0.004963133949786425,1.024314522743225
1761371080261524200,1.360524169921875,0.2748812735080719,0.09414683282375336,0.8893172740936279
1761371080280135700,1.3791357421875,0.21257483959197998,0.18577392399311066,0.7237776517868042
1761371080298748400,1.39774853515625,0.2223484069108963,0.4441623091697693,0.5783960223197937
1761371080317359600,1.416359619140625,0.2907632887363434,0.7233195304870605,0.41468894481658936
1761371080335972000,1.43497216796875,0.36284327507019043,0.845488965511322,0.2112767994403839
1761371080354583300,1.453583251953125,0.4367557764053345,0.8564842343330383,0.0023670331574976444
1761371080373196000,1.472196044921875,0.5033381581306458,0.7874584794044495,-0.14186927676200867
1761371080391807500,1.490807373046875,0.5216635465621948,0.6634564995765686,-0.13453911244869232
1761371080410420000,1.509419921875,0.46729815006256104,0.5675534605979919,0.009697199799120426
1761371080429031200,1.52803125,0.4037700295448303,0.5919873714447021,0.18989713490009308
1761371080447644000,1.546643798828125,0.393385648727417,0.6988856196403503,0.3432198166847229
1761371080466255000,1.565255126953125,0.41048935055732727,0.8063947558403015,0.4501180648803711
1761371080484867800,1.583867919921875,0.43614494800567627,0.7807391285896301,0.4721085727214813
1761371080503479000,1.60247900390625,0.4227063059806824,0.743477463722229,0.40247198939323425
1761371080522091800,1.621091796875,0.367730051279068,0.7013289928436279,0.22960221767425537
1761371080540703000,1.639702880859375,0.2730487287044525,0.5388436317443848,-0.005650337319821119
1761371080559315700,1.658315673828125,0.10995250940322876,0.37208232283592224,-0.2047865390777588
1761371080577927000,1.676927001953125,-0.09956810623407364,0.23769593238830566,-0.33917292952537537
1761371080596539600,1.69553955078125,-0.28282228112220764,0.1149156391620636,-0.45889899134635925
1761371080615150800,1.71415087890625,-0.4074351191520691,0.0752105712890625,-0.5926745533943176
1761371080633763600,1.732763671875,-0.49356457591056824,0.03367295488715172,-0.7099572420120239
1761371080652374800,1.751374755859375,-0.5937435626983643,0.0293970238417387,-0.7062921524047852
1761371080670987500,1.769987548828125,-0.6823163628578186,0.1020878478884697,-0.5975613594055176
1761371080689598700,1.7885986328125,-0.7153021693229675,0.23036576807498932,-0.4546230733394623
1761371080708211500,1.80721142578125,-0.6829272508621216,0.3103867769241333,-0.3605526089668274
1761371080726822700,1.82582275390625,-0.6108472347259521,0.322603702545166,-0.335507869720459
1761371080745435400,1.844435302734375,-0.5473191738128662,0.25174543261528015,-0.3568875193595886
1761371080764046600,1.863046630859375,-0.5057815313339233,0.09781191498041153,-0.3984251320362091
1761371080782659300,1.881659423828125,-0.4862344264984131,-0.059175826609134674,-0.42163732647895813
1761371080801270500,1.9002705078125,-0.48073679208755493,-0.10376767814159393,-0.40331190824508667
1761371080819883300,1.91888330078125,-0.4489727318286896,-0.017027366906404495,-0.3855973184108734
1761371080838494500,1.937494384765625,-0.365286648273468,0.1271325796842575,-0.40331190824508667
1761371080857107200,1.956107177734375,-0.22662433981895447,0.25296711921691895,-0.46073153614997864
1761371080875718400,1.974718505859375,-0.04703523963689804,0.3635304868221283,-0.5419742465019226
1761371080894331000,1.993330810546875,0.0916270911693573,0.14606885612010956,-0.6152759194374084
1761371080912942000,2.011942138671875,0.11911521852016449,-0.2919086217880249,-0.6195518374443054
1761371080931555000,2.03055517578125,0.08002099394798279,-0.6242095232009888,-0.5059342384338379
1761371080950166300,2.049166259765625,0.0653606578707695,-0.4910448491573334,-0.2286095917224884
1761371080968778800,2.06777880859375,0.16737215220928192,0.21142950654029846,0.15324631333351135
1761371080987390000,2.086389892578125,0.33535513281822205,0.8717554211616516,0.4916556775569916
1761371081006002700,2.105002685546875,0.503948986530304,1.21818208694458,0.6455891728401184
1761371081024614000,2.12361376953125,0.5815265774726868,1.202223777770996,0.6156576871871948
1761371081043226600,2.1422265625,0.5326588153839111,0.9084062576293945,0.49287739396095276
1761371081061837800,2.160837890625,0.38605546951293945,0.5724402666091919,0.357269287109375
1761371081080450600,2.179450439453125,0.21868331730365753,0.3659738600254059,0.25709033012390137
1761371081099061800,2.198061767578125,0.046424392610788345,0.3494809865951538,0.18317782878875732
1761371081117674500,2.216674560546875,-0.12766708433628082,0.4178958833217621,0.0811663269996643
1761371081136285700,2.23528564453125,-0.22845686972141266,0.4032355546951294,-0.072232685983181
1761371081154898400,2.2538984375,-0.22967857122421265,0.35803285241127014,-0.2432699203491211
1761371081173509600,2.272509521484375,-0.17592400312423706,0.3000023663043976,-0.35627666115760803
1761371081192122400,2.291122314453125,-0.10017894953489304,0.2712925374507904,-0.3953709006309509
1761371081210733600,2.309733642578125,-0.01954711228609085,0.30488914251327515,-0.3709369897842407
1761371081229346300,2.32834619140625,0.06902574002742767,0.20287764072418213,-0.305576354265213
1761371081247957500,2.34695751953125,0.1575985997915268,0.09048175066709518,-0.20600824058055878
1761371081266570200,2.3655703125,0.22601348161697388,0.031229566782712936,-0.09422318637371063
1761371081285181400,2.384181396484375,0.29687178134918213,0.04650074616074562,-0.00992626789957285
1761371081303794200,2.402794189453125,0.3793361485004425,0.11613733321428299,0.007253811229020357
1761371081322405400,2.4214052734375,0.42453885078430176,0.056274302303791046,-0.07773031294345856
1761371081341018000,2.44001806640625,0.4074351191520691,-0.0952158197760582,-0.23288552463054657
1761371081359629000,2.458629150390625,0.40254834294319153,-0.20639002323150635,-0.3990359604358673
1761371081378241800,2.47724169921875,0.4746283292770386,-0.24792763590812683,-0.4869979918003082
1761371081396853000,2.49585302734375,0.6298598647117615,-0.13064496219158173,-0.38193225860595703
1761371081415465700,2.5144658203125,0.8363262414932251,0.13324105739593506,-0.11560284346342087
1761371081434077000,2.533076904296875,1.0073634386062622,0.3519243896007538,0.1856212168931961
1761371081452689700,2.551689697265625,1.062950611114502,0.4417189359664917,0.4501180648803711
1761371081471300900,2.57030078125,1.0666157007217407,0.45943349599838257,0.6620820760726929
1761371081489913600,2.58891357421875,1.0568420886993408,0.5333459973335266,0.7891383171081543
1761371081508524800,2.60752490234375,0.9945356845855713,0.6744517087936401,0.8007444143295288
1761371081527137500,2.626137451171875,0.8632035255432129,0.724541187286377,0.6602495312690735
1761371081545748700,2.644748779296875,0.6738408803939819,0.5809921026229858,0.3847574293613434
1761371081564361500,2.663361572265625,0.49417543411254883,0.30183491110801697,0.04512634128332138
1761371081582972700,2.68197265625,0.3298575282096863,0.09903360903263092,-0.2420482337474823
1761371081601585200,2.700585205078125,0.21257483959197998,0.12163496017456055,-0.435075968503952
1761371081620196400,2.7191962890625,0.208298921585083,0.25052374601364136,-0.598783016204834
1761371081638809000,2.73780908203125,0.26816195249557495,0.47409382462501526,-0.8089144825935364
1761371081657420300,2.756420166015625,0.3151971995830536,0.6671215891838074,-1.0899041891098022
1761371081676033000,2.775032958984375,0.3439069986343384,0.7233195304870605,-1.3928844928741455
1761371081694644200,2.793644287109375,0.4825693368911743,0.5602232813835144,-1.727017879486084
1761371081713257000,2.812257080078125,0.743477463722229,0.3519243896007538,-2.0837526321411133
1761371081731868200,2.8308681640625,1.0177478790283203,0.3134410083293915,-2.2291343212127686
1761371081750481000,2.84948095703125,1.2010021209716797,0.36841726303100586,-2.108797550201416
1761371081769092000,2.868092041015625,1.2449830770492554,0.6713975071907043,-1.8333053588867188
1761371081787704800,2.886704833984375,1.2242143154144287,0.9022977352142334,-1.5297142267227173
1761371081806316000,2.90531591796875,1.2071105241775513,0.8002862930297852,-1.32935631275177
1761371081824928800,2.9239287109375,1.2486481666564941,0.6176429390907288,-1.246891975402832
1761371081843540000,2.9425400390625,1.3561573028564453,0.49974942207336426,-1.1986349821090698
1761371081862152400,2.96115234375,1.5149775743484497,0.5021927952766418,-1.089293360710144
1761371081880763600,2.979763671875,1.6847931146621704,0.5681642889976501,-0.9567395448684692
1761371081899376400,2.99837646484375,1.808184266090393,0.7288171648979187,-0.8651124238967896
1761371081917987600,3.016987548828125,1.8460568189620972,0.7746306657791138,-0.8425110578536987
1761371081936600300,3.035600341796875,1.8051300048828125,0.7153785228729248,-0.8547280430793762
1761371081955211500,3.05421142578125,1.6951775550842285,0.5406761765480042,-0.8651124238967896
1761371081973824300,3.07282421875,1.5632344484329224,0.31710609793663025,-0.8296833038330078
1761371081992435500,3.091435546875,1.3928080797195435,0.06910209357738495,-0.7453863620758057
1761371082011048200,3.110048095703125,1.2345986366271973,-0.13675342500209808,-0.5981721878051758
1761371082029659400,3.128659423828125,1.100823163986206,-0.3334462344646454,-0.3984251320362091
1761371082048272100,3.147272216796875,0.9688801169395447,-0.43179264664649963,-0.14492350816726685
1761371082066883300,3.16588330078125,0.8656468987464905,-0.41591063141822815,0.120871402323246
1761371082085496000,3.18449609375,0.8088381290435791,-0.23265644907951355,0.32611608505249023
1761371082104107300,3.203107177734375,0.7837933897972107,0.09170344471931458,0.3713187873363495
1761371082122719700,3.2217197265625,0.7782957553863525,0.2627406716346741,0.2015032321214676
1761371082141331000,3.2403310546875,0.8143357634544373,0.3788016438484192,-0.09910997003316879
1761371082159943700,3.258943603515625,0.8693119883537292,0.4789806008338928,-0.37948885560035706
1761371082178555000,3.277554931640625,0.8925241827964783,0.6475744247436523,-0.5370874404907227
1761371082197167600,3.296167724609375,0.8803072571754456,0.9334509968757629,-0.6354338526725769
1761371082215778800,3.31477880859375,0.8656468987464905,1.2053543329238892,-0.8003626465797424
1761371082234391600,3.3333916015625,0.8418238759040833,1.291483759880066,-1.0410364866256714
1761371082253002800,3.352002685546875,0.7953994870185852,1.0403492450714111,-1.26399564743042
1761371082271615500,3.370615478515625,0.7056049108505249,0.711713433265686,-1.4246485233306885
1761371082290226700,3.389226806640625,0.6298598647117615,0.3916294574737549,-1.5132213830947876
1761371082308839200,3.407839111328125,0.5870242118835449,0.25235626101493835,-1.4857332706451416
1761371082327450400,3.426450439453125,0.5558710098266602,0.22242476046085358,-1.3696722984313965
1761371082346063000,3.44506298828125,0.5344913601875305,0.16011834144592285,-1.2420052289962769
1761371082364674300,3.46367431640625,0.5479300022125244,0.1014770045876503,-1.1680927276611328
1761371082383287000,3.482287109375,0.5949652194976807,0.03855973482131958,-1.1351069211959839
1761371082401898200,3.500898193359375,0.6677324175834656,-0.035352785140275955,-1.097845196723938
1761371082420511000,3.519510986328125,0.7679113745689392,-0.05734328553080559,-1.0098832845687866
1761371082439122200,3.5381220703125,0.8632035255432129,-0.04756972938776016,-0.8632798790931702
1761371082457735000,3.55673486328125,0.9230665564537048,0.04161396995186806,-0.6739172339439392
1761371082476346000,3.57534619140625,0.9652150273323059,0.2444152534008026,-0.5041016936302185
1761371082494958600,3.59395849609375,0.9908705949783325,0.39712706208229065,-0.4002576768398285
1761371082513569800,3.61256982421875,0.9933140277862549,0.5064687132835388,-0.36666107177734375
1761371082532182500,3.6311826171875,0.9804862141609192,0.5846571922302246,-0.3733803927898407
1761371082550793700,3.649793701171875,0.9713234901428223,0.6658998727798462,-0.3703261613845825
1761371082569406500,3.668406494140625,0.9939248561859131,0.7501968145370483,-0.3471139669418335
1761371082588017700,3.687017578125,1.0501227378845215,0.8369371294975281,-0.3312319219112396
1761371082606630400,3.70563037109375,1.1026556491851807,0.8870265483856201,-0.3489464819431305
1761371082625241600,3.72424169921875,1.1252570152282715,0.8833615183830261,-0.38071054220199585
1761371082643854300,3.742854248046875,1.1118183135986328,0.7850151062011719,-0.3849864900112152
1761371082662465500,3.761465576171875,1.071502447128296,0.6133670210838318,-0.3892624080181122
1761371082681078000,3.780078125,1.0269105434417725,0.39407283067703247,-0.4424061179161072
1761371082699689200,3.798689208984375,1.0018658638000488,-0.006642963737249374,-0.571294903755188
1761371082718302000,3.817302001953125,0.9652150273323059,-0.43057096004486084,-0.6598677635192871
1761371082736913200,3.8359130859375,0.9322292804718018,-0.7347729206085205,-0.5914528369903564
1761371082755526000,3.85452587890625,0.9823187589645386,-0.5863370299339294,-0.3758237659931183
1761371082774137000,3.87313720703125,1.183287501335144,-0.012140588834881783,-0.11987877637147903
1761371082792749800,3.891749755859375,1.5821707248687744,0.5028036236763,0.01885990984737873
1761371082811361000,3.910361083984375,1.8979787826538086,0.7416449189186096,-0.06306997686624527
1761371082829973800,3.928973876953125,2.020148277282715,0.5675534605979919,-0.1913478970527649
1761371082848585000,3.9475849609375,1.9853299856185913,0.2554105222225189,-0.254265159368515
1761371082867197700,3.96619775390625,1.8368940353393555,-0.02435753494501114,-0.21150586009025574
1761371082885808600,3.98480859375,1.6322602033615112,-0.1996707022190094,-0.10033166408538818
1761371082904421400,4.00342138671875,1.3921972513198853,-0.28702184557914734,-0.010537114925682545
1761371082923032600,4.022032470703125,1.1637403964996338,-0.33833301067352295,-0.013591351918876171
1761371082941645300,4.040645263671875,0.984151303768158,-0.33772218227386475,-0.09361234307289124
1761371082960256500,4.059256591796875,0.8754204511642456,-0.28518930077552795,-0.19562382996082306
1761371082978869200,4.077869140625,0.82655268907547,-0.20394663512706757,-0.28541839122772217
1761371082997480400,4.09648046875,0.7807391285896301,-0.10621106624603271,-0.3239017724990845
1761371083016093200,4.11509326171875,0.7013289928436279,0.05688514932990074,-0.3324536085128784
1761371083034704400,4.133704345703125,0.6133670210838318,0.17416782677173615,-0.40575528144836426
1761371083053316900,4.15231689453125,0.527161180973053,0.2181488275527954,-0.5676298141479492
1761371083071928000,4.170927978515625,0.42453885078430176,0.15217731893062592,-0.7698202729225159
1761371083090540800,4.189540771484375,0.28343313932418823,-0.0420721061527729,-0.9353598356246948
1761371083109152000,4.208152099609375,0.13377554714679718,-0.3291703164577484,-1.000720500946045
1761371083127764700,4.2267646484375,-0.00916270911693573,-0.5674007534980774,-0.9329164624214172
1761371083146376000,4.2453759765625,-0.08490777015686035,-0.5649573802947998,-0.7295043468475342
1761371083164988700,4.26398876953125,-0.05070032179355621,-0.33833301067352295,-0.4527905285358429
1761371083183599900,4.282599853515625,0.11972606182098389,0.08009734749794006,-0.21150586009025574
1761371083202212600,4.301212646484375,0.3830012381076813,0.482034832239151,-0.14553436636924744
1761371083220823600,4.319823486328125,0.6035934686660767,0.7043832540512085,-0.2420482337474823
1761371083239436300,4.338436279296875,0.7208760976791382,0.7575269341468811,-0.38132140040397644
1761371083258047500,4.357047607421875,0.7306496500968933,0.7556943893432617,-0.47050508856773376
1761371083276660200,4.37566015625,0.6402443051338196,0.7263737320899963,-0.5041016936302185
1761371083295271400,4.394271484375,0.474017471075058,0.6518504023551941,-0.5095993280410767
1761371083313884200,4.41288427734375,0.21623992919921875,0.5974849462509155,-0.5419742465019226
1761371083332495400,4.431495361328125,-0.08918370306491852,0.4789806008338928,-0.5938962697982788
1761371083351108000,4.450108154296875,-0.38788801431655884,0.4142307937145233,-0.6238277554512024
1761371083369719300,4.46871923828125,-0.5900784730911255,0.4698179066181183,-0.6311579346656799
1761371083388331800,4.487331787109375,-0.5803049206733704,0.6805602312088013,-0.6299362182617188
1761371083406943000,4.50594287109375,-0.3811686933040619,0.9291750192642212,-0.621995210647583
1761371083425555700,4.5245556640625,-0.12339114397764206,1.174124836921692,-0.6207735538482666
1761371083444167000,4.5431669921875,0.1313321590423584,1.3287454843521118,-0.6641436815261841
1761371083462779600,4.561779541015625,0.3402419090270996,1.330578088760376,-0.7270609736442566
1761371083481390800,4.580390869140625,0.46729815006256104,1.1826766729354858,-0.7252284288406372
1761371083500003600,4.599003662109375,0.5344913601875305,0.9071845412254333,-0.5883986353874207
1761371083518614800,4.61761474609375,0.5839699506759644,0.5547256469726562,-0.32573428750038147
1761371083537227500,4.6362275390625,0.6170321106910706,0.2957264184951782,0.00786465872079134
1761371083555838700,4.654838623046875,0.5974085927009583,0.16989189386367798,0.33772218227386475
1761371083574451200,4.673451171875,0.5296045541763306,0.06726955622434616,0.5735092163085938
1761371083593062400,4.6920625,0.45141613483428955,-0.04390464723110199,0.6871268153190613
1761371083611675100,4.710675048828125,0.342074453830719,-0.15813308954238892,0.7103390097618103
1761371083630286300,4.729286376953125,0.18875180184841156,-0.2503710091114044,0.6938461065292358
1761371083648899000,4.747899169921875,0.02748812735080719,-0.30962321162223816,0.6755207180976868
1761371083667510300,4.76651025390625,-0.07391251623630524,-0.37315133213996887,0.6449783444404602
1761371083686123000,4.785123046875,-0.11117420345544815,-0.44034451246261597,0.6071057915687561
1761371083704734000,4.80373388671875,-0.13377554714679718,-0.459280788898468,0.5637356638908386
1761371083723346700,4.8223466796875,-0.183865025639534,-0.45622655749320984,0.4886014461517334
1761371083741958000,4.8409580078125,-0.2870981991291046,-0.4898231327533722,0.4073587656021118
1761371083760570600,4.859570556640625,-0.3836120665073395,-0.4745519757270813,0.3676536977291107
1761371083779181800,4.878181884765625,-0.40010493993759155,-0.38781166076660156,0.3841465711593628
1761371083797794600,4.896794677734375,-0.2864873707294464,-0.19050799310207367,0.44339874386787415
1761371083816405800,4.91540576171875,-0.05131116881966591,0.05199837312102318,0.49470990896224976
1761371083835018500,4.9340185546875,0.2095206081867218,0.21326205134391785,0.49532076716423035
1761371083853629700,4.952629638671875,0.3506263196468353,0.2328091561794281,0.47027602791786194
1761371083872242400,4.971242431640625,0.3946073353290558,0.17233528196811676,0.4586699306964874
1761371083890853400,4.989853271484375,0.40987852215766907,0.07337802648544312,0.5032618045806885
1761371083909466000,5.008466064453125,0.42453885078430176,0.0025197449140250683,0.6113817691802979
1761371083928077300,5.027077392578125,0.4031592011451721,0.01901262067258358,0.7512657642364502
1761371083946690000,5.04568994140625,0.3390202224254608,0.11063970625400543,0.8642725348472595
1761371083965301200,5.06430126953125,0.2638860046863556,0.17661121487617493,0.8654941916465759
1761371083983914000,5.0829140625,0.17897824943065643,0.32077115774154663,0.6779640913009644
1761371084002525200,5.101525146484375,0.07146912813186646,0.29328304529190063,0.29862794280052185
1761371084021137700,5.1201376953125,-0.04703523963689804,0.2560213506221771,-0.14736689627170563
1761371084039748900,5.138748779296875,-0.17775654792785645,0.194325789809227,-0.5138752460479736
1761371084058361600,5.157361572265625,-0.288930743932724,0.012293301522731781,-0.6708629727363586
1761371084076972800,5.175972900390625,-0.3384093940258026,-0.1874537467956543,-0.6018372774124146
1761371084095585500,5.19458544921875,-0.31092125177383423,-0.3035147190093994,-0.3752129375934601
1761371084114196700,5.21319677734375,-0.25594499707221985,-0.308401495218277,-0.13026317954063416
1761371084132809500,5.2318095703125,-0.18630841374397278,-0.3029038906097412,-0.00992626789957285
1761371084151420400,5.25042041015625,-0.05986303091049194,-0.2503710091114044,0.0005344913806766272
1761371084170033200,5.269033203125,0.13438639044761658,-0.16607409715652466,0.0029778804164379835
1761371084188644400,5.287644287109375,0.3762819170951843,-0.1361425817012787,0.07933378964662552
1761371084207257000,5.306257080078125,0.6194754838943481,-0.13125580549240112,0.2644205093383789
1761371084225868300,5.324868408203125,0.7789065837860107,-0.0426829531788826,0.4855472147464752
1761371084244481000,5.34348095703125,0.8186116814613342,0.07704310864210129,0.5802285671234131
1761371084263092200,5.36209228515625,0.7862367630004883,0.024510245770215988,0.4873797595500946
1761371084281705000,5.380705078125,0.6811710596084595,-0.20577916502952576,0.2943520247936249
1761371084300316000,5.39931591796875,0.5131117105484009,-0.5680115818977356,0.14041851460933685
1761371084318928600,5.4179287109375,0.30969956517219543,-0.9070318341255188,0.1343100368976593
1761371084337539800,5.436539794921875,0.12461283802986145,-1.1275477409362793,0.21677441895008087
1761371084356152600,5.455152587890625,0.012827792204916477,-0.9626189470291138,0.3700970709323883
1761371084374763800,5.473763671875,-0.0794101431965828,-0.8587749004364014,0.5124244689941406
1761371084393376500,5.49237646484375,-0.0794101431965828,-0.8648833632469177,0.5515187382698059
1761371084411987700,5.51098779296875,-0.06047387793660164,-0.9449043273925781,0.514867901802063
1761371084430600200,5.52960009765625,-0.055587101727724075,-1.0310338735580444,0.45683738589286804
1761371084449211400,5.54821142578125,-0.05131116881966591,-1.1202175617218018,0.39025503396987915
1761371084467824000,5.56682421875,-0.054365407675504684,-1.1666419506072998,0.3035147190093994
1761371084486435300,5.585435302734375,-0.023212196305394173,-1.22222900390625,0.2253262847661972
1761371084505048000,5.604048095703125,-0.01954711228609085,-1.319353699684143,0.20394663512706757
1761371084523659300,5.6226591796875,-0.038483377546072006,-1.2173422574996948,0.2656421959400177
1761371084542271700,5.641271728515625,-0.0525328628718853,-1.0212602615356445,0.3682645559310913
1761371084560883000,5.659883056640625,-0.05497625470161438,-0.8099071383476257,0.4091913104057312
1761371084579495700,5.67849560546875,-0.05375456064939499,-0.5081485509872437,0.35360419750213623
1761371084598107000,5.69710693359375,-0.06841489672660828,-0.1080436110496521,0.20455747842788696
1761371084616719600,5.7157197265625,-0.08246438205242157,0.16317257285118103,-0.017867282032966614
1761371084635330800,5.734330810546875,-0.06291726976633072,0.21081866323947906,-0.24021568894386292
1761371084653943600,5.752943603515625,-0.038483377546072006,0.13873867690563202,-0.34039464592933655
1761371084672554500,5.771554443359375,-0.06902574002742767,0.08070819079875946,-0.29885703325271606
1761371084691167200,5.790167236328125,-0.09590301662683487,0.03306210786104202,-0.18401773273944855
1761371084709778400,5.8087783203125,-0.10017894953489304,-0.0035887276753783226,-0.0856713280081749
1761371084728391200,5.82739111328125,-0.08124268800020218,-0.1336991935968399,-0.014202198944985867
1761371084747002400,5.84600244140625,-0.09712471067905426,-0.2528144121170044,0.05856497958302498
1761371084765615000,5.864614990234375,-0.1557660549879074,-0.29557371139526367,0.13736428320407867
1761371084784226000,5.88322607421875,-0.208298921585083,-0.23021306097507477,0.2118876427412033
1761371084802838800,5.9018388671875,-0.2351761907339096,-0.14164020121097565,0.2638096511363983
1761371084821450000,5.920449951171875,-0.23273280262947083,-0.06772769242525101,0.3071798086166382
1761371084840062700,5.939062744140625,-0.20280128717422485,0.043446511030197144,0.36276692152023315
1761371084858674000,5.957673828125,-0.18814095854759216,0.1668376624584198,0.41468894481658936
1761371084877286700,5.97628662109375,-0.19302773475646973,0.17355698347091675,0.38903334736824036
1761371084895897600,5.994897705078125,-0.1948602795600891,0.1020878478884697,0.25831204652786255
1761371084933121500,6.03212158203125,-0.23028941452503204,-0.35360419750213623,-0.07406523078680038
1761371084951734300,6.050734375,-0.291374146938324,-0.5771743059158325,-0.13209572434425354
1761371084970345500,6.069345458984375,-0.34451785683631897,-0.6981220841407776,-0.1638597846031189
1761371084988958200,6.087958251953125,-0.36162158846855164,-0.6571952700614929,-0.17057909071445465
1761371085007569400,6.1065693359375,-0.337798535823822,-0.4342360496520996,-0.13453911244869232
1761371085026182000,6.125181884765625,-0.22540263831615448,-0.18134528398513794,-0.07650861889123917
1761371085044793000,6.14379296875,-0.05925218388438225,-0.03779617324471474,-0.022754060104489326
1761371085063405800,6.16240576171875,0.08307522535324097,-0.0029778804164379835,0.03901786729693413
1761371085082017000,6.18101708984375,0.1563768982887268,-0.043293800204992294,0.13125580549240112
1761371085100629800,6.199629638671875,0.16676130890846252,-0.09949174523353577,0.24670593440532684
1761371085119240700,6.21824072265625,0.12216944992542267,-0.10071343928575516,0.33527877926826477
1761371085137853400,6.236853515625,0.020157959312200546,-0.06100837141275406,0.33894386887550354
1761371085156464600,6.255464599609375,-0.09468132257461548,-0.0555107444524765,0.26197710633277893
1761371085175077400,6.274077392578125,-0.2107423096895218,0.004352286923676729,0.1624090075492859
1761371085193688600,6.2926884765625,-0.25350162386894226,0.09903360903263092,0.10682191699743271
1761371085212301300,6.31130126953125,-0.2339545041322708,0.25357797741889954,0.09155073016881943
1761371085230912300,6.329912353515625,-0.1820324808359146,0.36047622561454773,0.07139277458190918
1761371085249525000,6.34852490234375,-0.12522368133068085,0.3342097997665405,0.03290939703583717
1761371085268136200,6.36713623046875,-0.0647498071193695,0.325047105550766,0.04818057641386986
1761371085286749000,6.3857490234375,-0.015271181240677834,0.3647521734237671,0.11293038725852966
1761371085305360100,6.404360107421875,0.04092676565051079,0.4178958833217621,0.15446799993515015
1761371085323972600,6.42297265625,0.09712471067905426,0.46248772740364075,0.11537377536296844
1761371085342583800,6.441583740234375,0.14965757727622986,0.3531460762023926,-0.014202198944985867
1761371085361196500,6.460196533203125,0.19302773475646973,0.19676917791366577,-0.15714046359062195
1761371085379807700,6.478807861328125,0.16798299551010132,-0.04390464723110199,-0.23410721123218536
1761371085398420500,6.49742041015625,0.09712471067905426,-0.3291703164577484,-0.22066856920719147
1761371085417031700,6.51603173828125,0.037261683493852615,-0.40430453419685364,-0.1107160672545433
1761371085435644200,6.53464404296875,0.004275931045413017,-0.19234053790569305,0.045737188309431076
1761371085454255400,6.55325537109375,0.018936265259981155,0.12041326612234116,0.1587439328432083
1761371085472868000,6.5718681640625,0.09040539711713791,0.2847311794757843,0.14347274601459503
1761371085491479300,6.590479248046875,0.13744063675403595,0.2969481348991394,0.06039752438664436
1761371085510092000,6.609092041015625,0.13377554714679718,0.2340308576822281,-0.0068720318377017975
1761371085528703000,6.627702880859375,0.09590301662683487,0.19127154350280762,-0.03008422814309597
1761371085547315700,6.646315673828125,0.07391251623630524,0.1802763044834137,-0.0325276181101799
1761371085565927000,6.664927001953125,0.0922379344701767,0.1424037665128708,-0.046577103435993195
1761371085584539600,6.68353955078125,0.13805148005485535,0.0752105712890625,-0.08628217875957489
1761371085603150800,6.70215087890625,0.17286977171897888,-0.012751436792314053,-0.1656923145055771
1761371085621763300,6.720763427734375,0.20524467527866364,-0.07689040154218674,-0.2536543309688568
1761371085640374500,6.73937451171875,0.21990501880645752,-0.08666395395994186,-0.2982461750507355
1761371085658987300,6.7579873046875,0.20463383197784424,-0.10682191699743271,-0.2964136302471161
1761371085677598500,6.776598388671875,0.16737215220928192,-0.1605764776468277,-0.27320143580436707
1761371085696211200,6.795211181640625,0.11117420345544815,-0.17157171666622162,-0.2286095917224884
1761371085714822100,6.813822265625,0.03787253051996231,-0.14897038042545319,-0.19195875525474548
1761371085733435000,6.832434814453125,-0.038483377546072006,-0.08483141660690308,-0.19989976286888123
1761371085752046000,6.851046142578125,-0.09468132257461548,0.00862821750342846,-0.26342788338661194
1761371085770658800,6.869658935546875,-0.13866232335567474,0.10269869863986969,-0.3581092059612274
1761371085789270000,6.88827001953125,-0.17348061501979828,0.14362546801567078,-0.4509579837322235
1761371085807882500,6.906882568359375,-0.20768806338310242,0.21326205134391785,-0.5193728804588318
1761371085826493700,6.92549365234375,-0.24067382514476776,0.25174543261528015,-0.5914528369903564
1761371085845106400,6.9441064453125,-0.24433889985084534,0.29022881388664246,-0.6580352187156677
1761371085863717600,6.962717529296875,-0.21440738439559937,0.3488701283931732,-0.700794517993927
1761371085882330400,6.981330322265625,-0.1582094430923462,0.43438875675201416,-0.7295043468475342
1761371085900941300,6.99994140625,-0.08979454636573792,0.5290700793266296,-0.7655443549156189
1761371085919554000,7.018553955078125,-0.031153209507465363,0.5418978929519653,-0.8223531246185303
1761371085938165200,7.037165283203125,0.043981000781059265,0.4704287350177765,-0.8492304086685181
1761371085956778000,7.055778076171875,0.12461283802986145,0.33054471015930176,-0.8223531246185303
1761371085975389200,7.07438916015625,0.1832541823387146,0.1680593490600586,-0.7508839964866638
1761371085994001700,7.093001708984375,0.2107423096895218,0.0489441379904747,-0.6708629727363586
1761371086012612900,7.11161279296875,0.23945212364196777,0.04283566400408745,-0.5737382769584656
1761371086031225600,7.1302255859375,0.29503923654556274,0.1424037665128708,-0.4387410581111908
1761371086049836800,7.1488369140625,0.3665083646774292,0.19860170781612396,-0.30435463786125183
1761371086068449500,7.167449462890625,0.4349232614040375,0.2199813723564148,-0.17974179983139038
1761371086087060500,7.186060546875,0.4556920528411865,0.20104511082172394,-0.06551336497068405
1761371086105673200,7.204673095703125,0.46607646346092224,0.22670069336891174,0.021303297951817513
1761371086124284400,7.223284423828125,0.5161659121513367,0.3085542321205139,0.05795413255691528
1761371086142897200,7.241897216796875,0.5766398310661316,0.325047105550766,0.01763821393251419
1761371086161508400,7.26050830078125,0.6323032975196838,0.2560213506221771,-0.05024218559265137
1761371086180120800,7.279120849609375,0.6811710596084595,0.17722205817699432,-0.07040014863014221
1761371086198732000,7.29773193359375,0.7337039113044739,0.16439427435398102,0.01763821393251419
1761371086217344800,7.3163447265625,0.7868476510047913,0.2828986346721649,0.19234053790569305
1761371086235956000,7.3349560546875,0.8192225098609924,0.4582118093967438,0.3578801453113556
1761371086254568400,7.353568359375,0.8418238759040833,0.5431195497512817,0.4079696238040924
1761371086273179600,7.3721796875,0.8351045846939087,0.5009710788726807,0.32122930884361267
1761371086291792400,7.39079248046875,0.7789065837860107,0.2853420376777649,0.11903885751962662
1761371086310403600,7.409403564453125,0.6530720591545105,0.045889899134635925,-0.11499200016260147
1761371086329016300,7.428016357421875,0.49173203110694885,-0.11964970827102661,-0.30007871985435486
1761371086347627300,7.446627197265625,0.3530697226524353,-0.17096087336540222,-0.4527905285358429
1761371086366240000,7.465239990234375,0.29687178134918213,-0.1343100368976593,-0.5578562617301941
1761371086384851200,7.483851318359375,0.34635040163993835,-0.08910734206438065,-0.6036698222160339
1761371086403464000,7.5024638671875,0.554649293422699,0.05993938818573952,-0.5584670901298523
1761371086422075100,7.5210751953125,0.8705337047576904,0.271903395652771,-0.4540122151374817
1761371086440687600,7.5396875,1.1924501657485962,0.4704287350177765,-0.3507790267467499
1761371086459298800,7.558298828125,1.4166311025619507,0.5785487294197083,-0.27564483880996704
1761371086477911600,7.57691162109375,1.5473524332046509,0.5999283790588379,-0.25060009956359863
1761371086496522500,7.5955224609375,1.5913335084915161,0.5644991993904114,-0.284196674823761
1761371086515135200,7.61413525390625,1.5308595895767212,0.4802022874355316,-0.35444411635398865
1761371086533746400,7.632746337890625,1.3860887289047241,0.3659738600254059,-0.4405735731124878
1761371086552359200,7.651359130859375,1.2101647853851318,0.2755684554576874,-0.49677154421806335
1761371086570970400,7.669970458984375,1.0611180067062378,0.2700708508491516,-0.5273138880729675
1761371086589582800,7.688582763671875,0.9780428409576416,0.3629196286201477,-0.6000047326087952
1761371086608194000,7.707194091796875,0.9755994081497192,0.49913856387138367,-0.7117897868156433
1761371086626806800,7.725806884765625,1.016526222229004,0.6280273199081421,-0.807081937789917
1761371086645418000,7.74441796875,1.058674693107605,0.7611920237541199,-0.8553388714790344
1761371086664030500,7.763030517578125,1.0770000219345093,0.8851940631866455,-0.8932114243507385
1761371086682641700,7.7816416015625,1.084941029548645,1.0030875205993652,-0.9787300229072571
1761371086701254400,7.80025439453125,1.0556204319000244,0.9945356845855713,-1.1344960927963257
1761371086719865600,7.818865478515625,1.0281323194503784,0.7618029117584229,-1.29331636428833
1761371086738478000,7.83747802734375,1.0678373575210571,0.40995487570762634,-1.3122526407241821
1761371086757089300,7.85608935546875,1.164351224899292,0.055052608251571655,-1.130831003189087
1761371086775702000,7.874701904296875,1.3298908472061157,-0.12697987258434296,-0.8223531246185303
1761371086794313200,7.893313232421875,1.5516283512115479,-0.08727480471134186,-0.49493899941444397
1761371086812925700,7.91192578125,1.7904696464538574,0.01901262067258358,-0.2518217861652374
1761371086831537000,7.930536865234375,2.0042662620544434,0.22181391716003418,-0.12110047042369843
1761371086850149600,7.949149658203125,2.1490371227264404,0.48875415325164795,-0.07040014863014221
1761371086868760800,7.9677607421875,2.177135944366455,0.6347466707229614,-0.06245913356542587
1761371086887373600,7.98637353515625,2.1472043991088867,0.6536829471588135,-0.04474456235766411
1761371086905984500,8.004984619140625,2.0946714878082275,0.5791595578193665,0.0005344913806766272
1761371086924597200,8.02359716796875,2.023813247680664,0.4295019805431366,0.05978667363524437
1761371086943208400,8.04220849609375,1.927910327911377,0.26640576124191284,0.11231953650712967
1761371086961821200,8.0608212890625,1.8106275796890259,0.11858072131872177,0.13186664879322052
1761371086980432100,8.07943212890625,1.6518073081970215,-0.07200361788272858,0.11476293206214905
1761371086999044900,8.098044921875,1.4685531854629517,-0.22349373996257782,0.10926530510187149
1761371087017656000,8.116656005859374,1.279801368713379,-0.20761170983314514,0.1330883502960205
1761371087036268500,8.1352685546875,1.0953254699707031,-0.031076854094862938,0.16301986575126648
1761371087054879700,8.153879638671874,0.9389485716819763,0.28106608986854553,0.1752368062734604
1761371087073492500,8.172492431640626,0.8302177786827087,0.5388436317443848,0.13919681310653687
1761371087092103700,8.191103759765625,0.7825716733932495,0.5840463638305664,0.10254598408937454
1761371087110716400,8.20971630859375,0.7501968145370483,0.4985277056694031,0.15080291032791138
1761371087129327400,8.228327392578125,0.7074374556541443,0.45210331678390503,0.2882435619831085
1761371087147940000,8.246940185546874,0.6561263203620911,0.4692070484161377,0.4085804522037506
1761371087166551300,8.26555126953125,0.5888567566871643,0.43744298815727234,0.42690587043762207
1761371087185164000,8.2841640625,0.5375455617904663,0.31771692633628845,0.36398860812187195
1761371087203775000,8.30277490234375,0.5222744345664978,0.1527881771326065,0.28396761417388916
1761371087222387700,8.3213876953125,0.5216635465621948,0.0745997205376625,0.24792763590812683
1761371087240999000,8.3399990234375,0.5308262705802917,0.1546207070350647,0.22043950855731964
1761371087259611600,8.358611572265625,0.5473191738128662,0.24746949970722198,0.10621106624603271
1761371087278222600,8.37722265625,0.5809157490730286,0.2877854108810425,-0.08261708915233612
1761371087296835300,8.39583544921875,0.6384117603302002,0.3219928741455078,-0.2426590770483017
1761371087315446500,8.414446533203124,0.6958313584327698,0.4576009511947632,-0.31290650367736816
1761371087334059000,8.43305908203125,0.7734090089797974,0.6567371487617493,-0.34405970573425293
1761371087352670200,8.451670166015624,0.8699228763580322,0.854651689529419,-0.41797223687171936
1761371087371283000,8.470282958984376,0.9896489381790161,0.9340618252754211,-0.5621321797370911
1761371087389894100,8.48889404296875,1.1160943508148193,0.8375479578971863,-0.7441646456718445
1761371087408506600,8.507506591796876,1.1814548969268799,0.5602232813835144,-0.8889354467391968
1761371087427117800,8.526117919921875,1.216273307800293,0.28106608986854553,-0.917645275592804
1761371087445730600,8.54473046875,1.279801368713379,0.25418880581855774,-0.8052493929862976
1761371087464341800,8.563341796875,1.4209071397781372,0.582213819026947,-0.5572454333305359
1761371087482954200,8.581954345703124,1.7269415855407715,1.0458468198776245,-0.2915268540382385
1761371087501565400,8.6005654296875,2.128268241882324,1.377002477645874,-0.15714046359062195
1761371087520178200,8.61917822265625,2.4538497924804688,1.5455962419509888,-0.15408621728420258
1761371087538789400,8.637789306640625,2.6261086463928223,1.537655234336853,-0.23227466642856598
1761371087557401900,8.65640185546875,2.6157243251800537,1.3696722984313965,-0.4002576768398285
1761371087576013000,8.675012939453126,2.4507956504821777,1.0782217979431152,-0.5908420085906982
1761371087594625800,8.693625732421875,2.1844661235809326,0.8015079498291016,-0.7496622800827026
1761371087613236700,8.71223681640625,1.8381158113479614,0.6561263203620911,-0.8773293495178223
1761371087631849500,8.730849365234375,1.4325132369995117,0.7031615376472473,-0.9994988441467285
1761371087650460700,8.749460693359374,1.0690590143203735,0.6115344762802124,-1.1656492948532104
1761371087669073400,8.768073486328126,0.7721872925758362,0.7984537482261658,-1.274380087852478
1761371087687684400,8.786684326171875,0.5577035546302795,0.9218448400497437,-1.2493354082107544
1761371087706297000,8.805297119140626,0.4886777997016907,1.0525661706924438,-1.0752438306808472
1761371087724908300,8.823908203125,0.4831801950931549,1.1582427024841309,-0.8296833038330078
1761371087743521000,8.84252099609375,0.499673068523407,1.0983797311782837,-0.567018985748291
1761371087762132000,8.861132080078125,0.4953971207141876,0.9584956765174866,-0.2945810854434967
1761371087780744700,8.87974462890625,0.45263782143592834,0.8277744054794312,-0.056961506605148315
1761371087799356000,8.89835595703125,0.4214846193790436,0.6658998727798462,0.09032903611660004
1761371087817968400,8.916968505859375,0.444085955619812,0.5315134525299072,0.1349208950996399
1761371087836579600,8.93557958984375,0.5467082858085632,0.4270585775375366,0.10560022294521332
1761371087855192300,8.9541923828125,0.7062157988548279,0.3384857475757599,0.04818057641386986
1761371087873803500,8.972803466796876,0.8851940631866455,0.2847311794757843,0.0005344913806766272
1761371087892416000,8.991416015625,1.0128611326217651,0.25357797741889954,-0.027029991149902344
1761371087911027200,9.010027099609376,1.067226529121399,0.2059318870306015,-0.03680354729294777
1761371087929640000,9.028639892578125,1.077610969543457,0.13263021409511566,-0.03130592033267021
1761371087948251000,9.0472509765625,1.0592855215072632,0.10025530308485031,-0.001985253533348441
1761371087966863600,9.065863525390625,1.0262997150421143,0.1527881771326065,0.029855160042643547
1761371087985474800,9.084474853515625,1.00797438621521,0.23647424578666687,0.034131091088056564
1761371088004087300,9.10308740234375,0.9487221240997314,0.26701661944389343,-0.014813045971095562
1761371088022698500,9.121698486328125,0.8247201442718506,0.2602972984313965,-0.08017370104789734
1761371088041311200,9.140311279296874,0.6439093947410583,0.1802763044834137,-0.17302247881889343
1761371088059922400,9.15892236328125,0.46546560525894165,-0.03596363216638565,-0.2713688910007477
1761371088078535000,9.177534912109374,0.2852656841278076,-0.2650313675403595,-0.3190149664878845
1761371088097146000,9.19614599609375,0.08918370306491852,-0.4238516390323639,-0.29946786165237427
1761371088115758800,9.2147587890625,-0.05008947476744652,-0.51425701379776,-0.18462859094142914
1761371088134369800,9.233369873046875,-0.0397050715982914,-0.5386909246444702,0.02008160389959812
1761371088152982500,9.251982421875,0.1423274129629135,-0.4464530050754547,0.24181915819644928
1761371088171593700,9.27059375,0.4330907166004181,-0.15752223134040833,0.4085804522037506
1761371088190206200,9.289206298828125,0.6817818880081177,0.18882815539836884,0.44400960206985474
1761371088208817400,9.3078173828125,0.7929561138153076,0.4417189359664917,0.3279486298561096
1761371088227430100,9.32643017578125,0.8186116814613342,0.46065518260002136,0.09704835712909698
1761371088246041300,9.345041259765624,0.7581378221511841,0.2859528660774231,-0.20722992718219757
1761371088264653800,9.36365380859375,0.6133670210838318,0.012904148548841476,-0.488219678401947
1761371088283265000,9.38226513671875,0.45324867963790894,-0.19417306780815125,-0.6311579346656799
1761371088301877800,9.400877685546876,0.3035911023616791,-0.29801711440086365,-0.6152759194374084
1761371088320488700,9.41948876953125,0.17225892841815948,-0.36093437671661377,-0.48760882019996643
1761371088339101400,9.438101318359376,0.10262233763933182,-0.44034451246261597,-0.305576354265213
1761371088357712600,9.456712646484375,0.11361759155988693,-0.4214082658290863,-0.10827267915010452
1761371088376325400,9.475325439453124,0.18569757044315338,-0.30656898021698,0.0823880210518837
1761371088394936300,9.493936279296875,0.29442837834358215,-0.10987614840269089,0.24365170300006866
1761371088413549000,9.512549072265625,0.3946073353290558,0.15828579664230347,0.34016555547714233
1761371088432160300,9.53116015625,0.42514967918395996,0.3354314863681793,0.33894386887550354
1761371088450772700,9.549772705078125,0.4031592011451721,0.37086063623428345,0.25953373312950134
1761371088469384000,9.568384033203126,0.3817795515060425,0.3470376133918762,0.15568970143795013
1761371088487996700,9.58699658203125,0.3817795515060425,0.26640576124191284,0.06589514762163162
1761371088506607600,9.605607666015626,0.3524588644504547,0.1283542811870575,-0.0050394898280501366
1761371088525220400,9.624220458984375,0.26999449729919434,-0.04085041210055351,-0.072232685983181
1761371088543831600,9.64283154296875,0.1716480851173401,-0.15507884323596954,-0.12110047042369843
1761371088562444300,9.6614443359375,0.09407047927379608,-0.15080291032791138,-0.1247655525803566
1761371088581055200,9.68005517578125,0.07330167293548584,-0.09888090193271637,-0.07773031294345856
1761371088599668000,9.69866796875,0.1172826737165451,-0.027411770075559616,0.015194825828075409
1761371088618279200,9.717279052734375,0.2217375487089157,0.07032378762960434,0.13797512650489807
1761371088636891600,9.7358916015625,0.32252734899520874,0.1802763044834137,0.25831204652786255
1761371088655502800,9.7545029296875,0.33413344621658325,0.24869118630886078,0.3450523316860199
1761371088674115600,9.773115478515624,0.288930743932724,0.19004985690116882,0.37803810834884644
1761371088692726500,9.7917265625,0.20402298867702484,0.10819631814956665,0.36337774991989136
1761371088711339300,9.81033935546875,0.08307522535324097,0.03855973482131958,0.3022930324077606
1761371088729950500,9.828950439453125,-0.05375456064939499,0.017180079594254494,0.2008923888206482
1761371088748563200,9.847563232421875,-0.2095206081867218,-0.012140588834881783,0.05306735634803772
1761371088767174100,9.866174072265625,-0.3414636254310608,-0.09888090193271637,-0.09605573117733002
1761371088785787000,9.884786865234375,-0.4330907166004181,-0.08788564801216125,-0.15469707548618317
1761371088804398000,9.903398193359376,-0.4862344264984131,0.012293301522731781,-0.1107160672545433
1761371088823010600,9.922010498046875,-0.4220954477787018,0.13812783360481262,0.010918894782662392
1761371088841621800,9.940621826171874,-0.2864873707294464,0.3219928741455078,0.13797512650489807
1761371088860234500,9.959234375,-0.1313321590423584,0.31832778453826904,0.1587439328432083
1761371088878845400,9.977845458984374,0.021379653364419937,0.06116108223795891,0.0823880210518837
1761371088897458200,9.996458251953126,0.09407047927379608,-0.35238251090049744,-0.03558185324072838
1761371088916069400,10.0150693359375,0.07085828483104706,-0.7072847485542297,-0.13026317954063416
1761371088934682000,10.03368212890625,0.006719320081174374,-0.7378271222114563,-0.18523943424224854
1761371088953293000,10.05229296875,-0.05925218388438225,-0.5038726329803467,-0.24021568894386292
1761371088971905800,10.07090576171875,-0.08490777015686035,-0.1477486789226532,-0.2707580327987671
1761371088990517000,10.08951708984375,-0.013438640162348747,0.16011834144592285,-0.2945810854434967
1761371089009129500,10.10812939453125,0.09284878522157669,0.3079433739185333,-0.32756683230400085
1761371089027740700,10.12674072265625,0.16126367449760437,0.3201603293418884,-0.3483356535434723
1761371089046353400,10.145353515625,0.17836740612983704,0.2199813723564148,-0.2939702570438385
1761371089064964400,10.16396435546875,0.13438639044761658,0.12530004978179932,-0.10705098509788513
1761371089083577000,10.1825771484375,0.07024743407964706,0.13324105739593506,0.1599656194448471
1761371089102188300,10.201188232421876,0.022601349279284477,0.13201937079429626,0.3542150557041168
1761371089120800800,10.21980078125,0.02076880633831024,0.06910209357738495,0.4201865494251251
1761371089139412000,10.238411865234376,0.01588202826678753,-0.0017561858985573053,0.38842248916625977
1761371089158024700,10.257024658203125,0.0030542362947016954,-0.07322531193494797,0.2882435619831085
1761371089176636000,10.275635986328124,-0.0018325417768210173,-0.07444700598716736,0.16973918676376343
1761371089195248400,10.294248291015625,0,-0.024968381971120834,0.07322531193494797
1761371089213859600,10.312859619140625,0.0030542362947016954,0.06665870547294617,0.012751436792314053
1761371089232472300,10.331472412109376,0.018936265259981155,0.09964445978403091,0.0011453386396169662
1761371089251083300,10.350083251953125,0.05925218388438225,0.11308310180902481,0.044515494257211685
1761371089269696000,10.368696044921874,0.1178935244679451,0.1546207070350647,0.12026055157184601
1761371089288307200,10.38730712890625,0.15943112969398499,0.10575293004512787,0.16363070905208588
1761371089306919700,10.405919677734374,0.15393351018428802,0.0361163429915905,0.15691138803958893
1761371089325531000,10.42453076171875,0.10384403169155121,0.09353598952293396,0.13125580549240112
1761371089344143600,10.4431435546875,0.006719320081174374,0.17477867007255554,0.0958266630768776
1761371089362754600,10.461754638671875,-0.07207997888326645,0.2969481348991394,0.09338327497243881
1761371089381367300,10.4803671875,-0.06413896381855011,0.42278265953063965,0.174625962972641
1761371089399978500,10.498978515625,-0.006108472589403391,0.6481853127479553,0.29923880100250244
1761371089418591200,10.51759130859375,0.056808795779943466,0.8057838678359985,0.36276692152023315
1761371089437202200,10.5362021484375,0.08063183724880219,0.762413740158081,0.3157316744327545
1761371089455815000,10.55481494140625,0.09468132257461548,0.5003602504730225,0.1343100368976593
1761371089474426000,10.573426025390624,0.10750912129878998,0.09475768357515335,-0.11499200016260147
1761371089493038600,10.59203857421875,0.12888877093791962,-0.15752223134040833,-0.22433365881443024
1761371089511649800,10.61064990234375,0.13621893525123596,-0.06528430432081223,-0.1382041871547699
1761371089530262500,10.629262451171876,0.1588202863931656,0.23891763389110565,-0.014202198944985867
1761371089548873500,10.64787353515625,0.18814095854759216,0.42156097292900085,-0.00015271181473508477
1761371089567486200,10.666486328125,0.18875180184841156,0.3116084635257721,-0.10216420143842697
1761371089586097400,10.685097412109375,0.17897824943065643,0.10758547484874725,-0.22311195731163025
1761371089604710000,10.7037099609375,0.15332266688346863,0.01046075951308012,-0.2530434727668762
1761371089623321000,10.722321044921875,0.07513421028852463,0.03367295488715172,-0.16996824741363525
1761371089641933800,10.740933837890625,-0.0018325417768210173,0.13385190069675446,-0.06612421572208405
1761371089660544800,10.759544677734375,-0.02504473738372326,0.20837527513504028,-0.011147962883114815
1761371089679157500,10.778157470703125,-0.010995250195264816,0.27801185846328735,0.004199574701488018
1761371089697768700,10.796768798828126,0.004275931045413017,0.3091650605201721,0.013973130844533443
1761371089716381400,10.81538134765625,0.0018325417768210173,0.22914408147335052,0.022524992004036903
1761371089734992400,10.833992431640626,-0.01038440316915512,0.015958385542035103,0.012751436792314053
1761371089753605000,10.852605224609375,-0.009773556143045425,-0.13919681310653687,0.0231358390301466
1761371089772216300,10.87121630859375,0.009773556143045425,-0.15507884323596954,0.02435753494501114
1761371089790828800,10.889828857421875,0.023212196305394173,-0.05123481526970863,-0.0050394898280501366
1761371089809440000,10.90843994140625,0.004275931045413017,0.017180079594254494,-0.03497100621461868
1761371089828052700,10.927052734375,-0.047646086663007736,-0.05978667363524437,-0.07101099193096161
1761371089846663700,10.94566357421875,-0.0787992998957634,-0.1868429034948349,-0.08628217875957489
1761371089865276400,10.9642763671875,-0.10811996459960938,-0.16363070905208588,-0.06490252166986465
1761371089883887600,10.9828876953125,-0.1423274129629135,-0.04146125912666321,-0.06184828653931618
1761371089902500000,11.0015,-0.17470231652259827,0.08498412370681763,-0.09239064902067184
1761371089921111300,11.020111328125,-0.1973036676645279,0.14606885612010956,-0.13392825424671173
1761371089939724000,11.03872412109375,-0.20402298867702484,0.12224581092596054,-0.17118994891643524
1761371089958335000,11.0573349609375,-0.18753011524677277,0.11308310180902481,-0.16996824741363525
1761371089976947700,11.07594775390625,-0.16737215220928192,0.17050273716449738,-0.08322793990373611
1761371089995559000,11.094558837890625,-0.14049486815929413,0.2456369549036026,0.04695888236165047
1761371090014171400,11.11317138671875,-0.07574506103992462,0.193104088306427,0.20639002323150635
1761371090032782600,11.131782470703126,-0.051922015845775604,-0.21738526225090027,0.3957526683807373
1761371090051395300,11.150395263671875,-0.014049487188458443,-0.5008183717727661,0.4476746916770935
1761371090070006300,11.16900634765625,-0.042759306728839874,-0.5136461853981018,0.4250733256340027
1761371090088619000,11.187618896484375,-0.1319430023431778,-0.3939201235771179,0.31023404002189636
1761371090107230200,11.206230224609374,-0.2351761907339096,-0.3713187873363495,0.11964970827102661
