time,seconds_elapsed,z,y,x
1761370017386028800,0.27002880859375,0.017409324645996094,0.0021302253007888794,0.00017442554235458374
1761370017404639500,0.288639404296875,0.012701988220214844,0.004029437899589539,-0.003825068473815918
1761370017423251500,0.30725146484375,0.015156745910644531,-0.0032958984375,-0.0034152045845985413
1761370017441862100,0.325862060546875,0.01787567138671875,0.00386790931224823,0.00604451447725296
1761370017460474000,0.34447412109375,0.01586437225341797,-0.0009317100048065186,0.0033643916249275208
1761370017479084800,0.363084716796875,0.014349937438964844,0.001401662826538086,0.0033745616674423218
1761370017497696800,0.38169677734375,0.017679214477539062,0.007958948612213135,0.0035194680094718933
1761370017516307500,0.400307373046875,0.013965606689453125,0.0004345625638961792,-0.0032365694642066956
1761370017534919400,0.41891943359375,0.006098747253417969,0.009288236498832703,-0.0028015300631523132
1761370017553530000,0.437530029296875,0.012444496154785156,-0.002562224864959717,0.002188868820667267
1761370017572142000,0.45614208984375,0.016195297241210938,0.00899776816368103,0.00003664195537567139
1761370017590752800,0.474752685546875,0.015137672424316406,0.006130605936050415,-0.0019826740026474
1761370017609364700,0.49336474609375,0.012011528015136719,0.003418281674385071,0.000786222517490387
1761370017627975400,0.511975341796875,0.020546913146972656,-0.005992591381072998,0.010340653359889984
1761370017646587600,0.530587646484375,0.017218589782714844,-0.0033877938985824585,0.005371756851673126
1761370017665198000,0.549197998046875,0.009367942810058594,-0.005481943488121033,0.005512937903404236
1761370017683810300,0.567810302734375,0.0043621063232421875,-0.005262121558189392,0.0033185482025146484
1761370017702420700,0.586420654296875,0.011082649230957031,0.0017980337142944336,0.0034599527716636658
1761370017721033000,0.605032958984375,0.008367538452148438,-0.0006566047668457031,0.010425925254821777
1761370017739643400,0.623643310546875,0.010270118713378906,-0.0028592944145202637,0.0034582391381263733
1761370017758255600,0.642255615234375,0.01681232452392578,-0.00523260235786438,0.003559313714504242
1761370017776866300,0.6608662109375,0.01617431640625,-0.007364697754383087,0.008324354887008667
1761370017795478300,0.679478271484375,0.013319015502929688,-0.0023658722639083862,-0.0010128021240234375
1761370017814089000,0.6980888671875,0.015199661254882812,-0.002348080277442932,0.006329178810119629
1761370017832701000,0.716700927734375,0.0123291015625,0.002347111701965332,0.008625432848930359
1761370017851311600,0.7353115234375,0.011956214904785156,-0.0024592727422714233,0.004057899117469788
1761370017869923600,0.753923583984375,0.009202003479003906,0.004757627844810486,0.0019187629222869873
1761370017888534300,0.7725341796875,0.015954017639160156,0.004689916968345642,0.009093642234802246
1761370017907146200,0.791146240234375,0.008321762084960938,0.0022786706686019897,0.004510901868343353
1761370017925757000,0.8097568359375,0.012749671936035156,0.004497915506362915,0.007080078125
1761370017944369200,0.828369140625,0.010048866271972656,0.00439104437828064,0.00019463896751403809
1761370017962979600,0.8469794921875,0.016656875610351562,-0.00515139102935791,0.009873375296592712
1761370017981591800,0.865591796875,0.004489898681640625,-0.0026482194662094116,0.002650938928127289
1761370018000202200,0.8842021484375,0.011363983154296875,-0.0050079673528671265,0.0027861371636390686
1761370018018814500,0.902814453125,0.008591651916503906,-0.007192753255367279,0.00530107319355011
1761370018037425200,0.921425048828125,0.0200347900390625,-0.000006213784217834473,0.0031194835901260376
1761370018056037000,0.940037109375,0.01697540283203125,0.000013500452041625977,0.0009551942348480225
1761370018074647800,0.958647705078125,0.007110595703125,0.00014162063598632812,0.0035706311464309692
1761370018093259800,0.977259765625,0.011462211608886719,0.0024379193782806396,0.0014704465866088867
1761370018111870500,0.995870361328125,0.011081695556640625,-0.004796415567398071,0.008721671998500824
1761370018130482400,1.014482421875,0.0037288665771484375,0.002216517925262451,0.006387151777744293
1761370018149093000,1.033093017578125,0.008270263671875,-0.00009733438491821289,0.006469078361988068
1761370018167705300,1.051705322265625,0.010384559631347656,-0.004650041460990906,0.0066046640276908875
1761370018186315800,1.070315673828125,0.019378662109375,0.00004051625728607178,0.00436662882566452
1761370018204928000,1.088927978515625,0.009394645690917969,0.0001521855592727661,0.006798870861530304
1761370018223538400,1.107538330078125,0.00209808349609375,-0.004596590995788574,0.009196877479553223
1761370018242150700,1.126150634765625,0.016031265258789062,0.002676069736480713,0.006870843470096588
1761370018260761300,1.14476123046875,0.01318359375,0.0001738220453262329,0.006842531263828278
1761370018279373300,1.163373291015625,0.00803375244140625,0.002636849880218506,0.011649183928966522
1761370018297984000,1.18198388671875,0.005448341369628906,-0.00439925491809845,0.00696563720703125
1761370018316596000,1.200595947265625,0.009935379028320312,-0.002069249749183655,0.0022643208503723145
1761370018335206700,1.21920654296875,0.009565353393554688,-0.006761200726032257,0.00483684241771698
1761370018353818600,1.237818603515625,0.009324073791503906,-0.001920461654663086,0.005064249038696289
1761370018372429300,1.25642919921875,0.011286735534667969,0.0028878599405288696,0.012172691524028778
1761370018391041500,1.27504150390625,0.006278038024902344,-0.006337203085422516,0.014416806399822235
1761370018409652000,1.29365185546875,0.013129234313964844,-0.0014948397874832153,0.009564250707626343
1761370018428264200,1.31226416015625,0.0033130645751953125,-0.006023578345775604,0.00016283243894577026
1761370018446875000,1.330875,0.012495040893554688,0.0013457387685775757,0.007623955607414246
1761370018465486800,1.34948681640625,0.009724617004394531,0.0013195127248764038,0.0028631389141082764
1761370018484097500,1.36809765625,0.014031410217285156,0.005908101797103882,0.010124102234840393
1761370018502709500,1.38670947265625,0.015956878662109375,-0.0012530088424682617,0.01006752997636795
1761370018521320200,1.4053203125,0.006047248840332031,0.00349213182926178,0.0029425621032714844
1761370018539932200,1.42393212890625,0.010592460632324219,-0.0013437867164611816,0.005609750747680664
1761370018558542800,1.44254296875,0.012515068054199219,-0.003500640392303467,0.003418281674385071
1761370018577155000,1.461155029296875,0.005112648010253906,0.0012651830911636353,0.001187838613986969
1761370018595765500,1.479765625,0.0025463104248046875,-0.0034275203943252563,0.006095871329307556
1761370018614377700,1.498377685546875,0.009517669677734375,-0.0007904618978500366,-0.000670015811920166
1761370018632988200,1.51698828125,-0.00009918212890625,-0.0007291138172149658,0.013652890920639038
1761370018651600400,1.535600341796875,0.006923675537109375,-0.0006468296051025391,0.00423576682806015
1761370018670211000,1.554211181640625,0.004338264465332031,0.001651957631111145,0.011373661458492279
1761370018688823000,1.572822998046875,0.004230499267578125,0.003971099853515625,0.015920959413051605
1761370018707433700,1.591433837890625,0.020410537719726562,0.0038044899702072144,0.006404563784599304
1761370018726045700,1.610045654296875,0.017375946044921875,0.0013999491930007935,0.006461732089519501
1761370018744656400,1.628656494140625,0.0027513504028320312,-0.0010208189487457275,0.013620465993881226
1761370018763268400,1.647268310546875,0.005011558532714844,0.0012764930725097656,0.008982069790363312
1761370018781879000,1.665879150390625,0.009473800659179688,-0.0056916698813438416,0.004325754940509796
1761370018800491300,1.6844912109375,0.0022907257080078125,0.0036817044019699097,0.013814464211463928
1761370018819101700,1.703101806640625,0.011469841003417969,-0.003389492630958557,0.016155198216438293
1761370018837714000,1.7217138671875,0.00167083740234375,0.0013563334941864014,0.008946150541305542
1761370018856324600,1.74032470703125,0.0016908645629882812,-0.0032602697610855103,0.011353641748428345
1761370018874936600,1.7589365234375,-0.005352020263671875,-0.0008349120616912842,0.013571508228778839
1761370018893547300,1.77754736328125,0.008749961853027344,-0.0007491558790206909,0.018069535493850708
1761370018912159200,1.7961591796875,0.00853729248046875,0.0038142800331115723,0.010757982730865479
1761370018930770000,1.81477001953125,0.0106048583984375,-0.0009859055280685425,0.0014537796378135681
1761370018949382100,1.833382080078125,0.007898330688476562,0.0014753639698028564,0.013201452791690826
1761370018967992600,1.85199267578125,0.000568389892578125,-0.003151446580886841,0.0060900673270225525
1761370018986604800,1.870604736328125,-0.0040454864501953125,-0.0007133632898330688,0.0203394815325737
1761370019005215200,1.88921533203125,0.005382537841796875,0.0017803311347961426,0.012919135391712189
1761370019023827500,1.907827392578125,0.01689434051513672,-0.0052823349833488464,0.005745537579059601
1761370019042438000,1.92643798828125,0.009230613708496094,0.0020293742418289185,0.012833155691623688
1761370019061050000,1.945050048828125,0.0020551681518554688,-0.00037015974521636963,0.01029089093208313
1761370019079660800,1.963660888671875,0.0042209625244140625,0.0019778311252593994,0.0055578723549842834
1761370019098272800,1.982272705078125,0.006473541259765625,0.004230335354804993,0.0033124908804893494
1761370019116883500,2.000883544921875,0.0038614273071289062,0.013354822993278503,0.008069783449172974
1761370019135495400,2.019495361328125,0.010796546936035156,-0.003555893898010254,0.005647912621498108
1761370019154106000,2.038106201171875,0.005767822265625,-0.0011361688375473022,0.013022296130657196
1761370019172718300,2.05671826171875,0.010202407836914062,-0.0011025667190551758,0.012884408235549927
1761370019191328800,2.075328857421875,-0.0064220428466796875,0.00837022066116333,0.005633518099784851
1761370019209941000,2.09394091796875,0.0006914138793945312,-0.0013036876916885376,0.008150868117809296
1761370019228551700,2.1125517578125,0.00772857666015625,-0.003555998206138611,0.008229851722717285
1761370019247163600,2.13116357421875,0.000522613525390625,0.0013045966625213623,0.012975215911865234
1761370019265774000,2.149774169921875,-0.0018911361694335938,-0.00809653103351593,0.015115529298782349
1761370019284386300,2.16838623046875,0.0028362274169921875,0.0038260072469711304,0.0032732561230659485
1761370019302997000,2.1869970703125,0.00273895263671875,0.0013491958379745483,0.0035360753536224365
1761370019321609000,2.20560888671875,0.009552955627441406,0.0035829097032546997,0.010586492717266083
1761370019340219600,2.2242197265625,0.009196281433105469,-0.001335829496383667,0.0034515410661697388
1761370019358831900,2.242831787109375,0.0019435882568359375,0.0033791065216064453,0.005986630916595459
1761370019377442300,2.2614423828125,0.0018358230590820312,0.0009327679872512817,0.0061764344573020935
1761370019396054500,2.280054443359375,0.006402015686035156,0.0009607225656509399,0.01095067709684372
1761370019414665000,2.2986650390625,-0.005429267883300781,0.0009630024433135986,0.008545204997062683
1761370019433277200,2.317277099609375,0.008676528930664062,0.000965505838394165,0.00392758846282959
1761370019451887900,2.335887939453125,-0.0032663345336914062,-0.00138033926486969,0.008706741034984589
1761370019470499800,2.354499755859375,-0.0031223297119140625,0.0010390430688858032,0.01338069885969162
1761370019489110500,2.373110595703125,-0.0029430389404296875,-0.0037563741207122803,0.010955974459648132
1761370019507722500,2.391722412109375,-0.0005340576171875,-0.0013143271207809448,0.008477270603179932
1761370019526333200,2.410333251953125,-0.002834320068359375,0.0009302049875259399,-0.0007928088307380676
1761370019544945200,2.428945068359375,-0.0028228759765625,-0.0036324411630630493,0.004251040518283844
1761370019563555800,2.447555908203125,-0.00041961669921875,-0.0035718977451324463,0.004515588283538818
1761370019582167800,2.466167724609375,-0.0027637481689453125,-0.0035121142864227295,0.009193934500217438
1761370019600778500,2.484778564453125,-0.00036144256591796875,0.003709658980369568,0.009316958487033844
1761370019619390700,2.503390625,-0.0002727508544921875,-0.0012138783931732178,0.00934319943189621
1761370019638001200,2.522001220703125,0.006758689880371094,0.005773723125457764,0.0091782808303833
1761370019656613400,2.54061328125,0.008768081665039062,-0.00610736757516861,0.011539056897163391
1761370019675223800,2.559223876953125,0.0014123916625976562,-0.00820024311542511,0.004354529082775116
1761370019693836000,2.5778359375,0.008466720581054688,-0.003429785370826721,0.01148824393749237
1761370019712446700,2.59644677734375,0.015128135681152344,0.0037657469511032104,0.006731942296028137
1761370019731058700,2.61505859375,0.0030088424682617188,-0.0032921433448791504,0.009307794272899628
1761370019749669400,2.63366943359375,-0.008788108825683594,-0.0007709413766860962,0.007034376263618469
1761370019768281300,2.65228125,0.0008754730224609375,-0.003080114722251892,0.016417071223258972
1761370019786892000,2.67089208984375,0.0008039474487304688,-0.0005495846271514893,0.009127922356128693
1761370019805504000,2.68950390625,0.0031290054321289062,-0.002905935049057007,0.009057745337486267
1761370019824114700,2.70811474609375,0.0029802322387695312,0.0021240711212158203,0.009146079421043396
1761370019842727000,2.726726806640625,0.0005626678466796875,-0.0003379136323928833,-0.00016126781702041626
1761370019861337300,2.74533740234375,0.002857208251953125,0.001952841877937317,0.004750870168209076
1761370019879949600,2.763949462890625,0.0051517486572265625,0.0019464939832687378,0.004910692572593689
1761370019898560000,2.78256005859375,-0.0020465850830078125,-0.0004923194646835327,0.011970862746238708
1761370019917172200,2.801172119140625,0.0028047561645507812,0.008880615234375,0.014145895838737488
1761370019935783000,2.819782958984375,0.0050220489501953125,-0.0007150322198867798,0.016302548348903656
1761370019954395000,2.838394775390625,0.0024585723876953125,0.006390750408172607,0.009072192013263702
1761370019973005600,2.857005615234375,0.00005626678466796875,0.0016250461339950562,0.009065873920917511
1761370019991617500,2.875617431640625,0.016373634338378906,0.003999441862106323,0.0089496448636055
1761370020010228200,2.894228271484375,0.006491661071777344,0.003941133618354797,0.006577253341674805
1761370020028840200,2.912840087890625,-0.0029859542846679688,-0.005524568259716034,0.009023383259773254
1761370020047451000,2.931450927734375,-0.0006532669067382812,-0.0007502436637878418,0.009019926190376282
1761370020066062800,2.950062744140625,0.0017213821411132812,-0.0031332820653915405,0.006660968065261841
1761370020084673500,2.968673583984375,-0.0029315948486328125,-0.0006722956895828247,0.006924435496330261
1761370020103285800,2.98728564453125,0.0064220428466796875,-0.0006716251373291016,0.0045969486236572266
1761370020121896200,3.005896240234375,0.006129264831542969,-0.003134787082672119,0.01406095176935196
1761370020140508400,3.02450830078125,0.005923271179199219,-0.0005409419536590576,0.009143583476543427
1761370020159118800,3.043118896484375,-0.0012226104736328125,0.0064580440521240234,0.004544250667095184
1761370020177731000,3.06173095703125,0.0011663436889648438,0.004193827509880066,0.014098338782787323
1761370020196341500,3.080341552734375,-0.0011920928955078125,-0.000658378005027771,0.006903998553752899
1761370020214953700,3.09895361328125,0.010458946228027344,0.004050835967063904,0.01395495980978012
1761370020233564400,3.117564453125,0.0077533721923828125,-0.0005998462438583374,-0.00016449391841888428
1761370020252176400,3.13617626953125,-0.0041599273681640625,-0.002915889024734497,0.016496777534484863
1761370020270787000,3.154787109375,0.002960205078125,-0.007487013936042786,0.006836555898189545
1761370020289399000,3.17339892578125,0.0028209686279296875,-0.005056373775005341,0.006866395473480225
1761370020308009700,3.192009765625,0.000370025634765625,0.0021131932735443115,0.011564381420612335
1761370020326621700,3.21062158203125,0.00035572052001953125,-0.002701103687286377,0.013885654509067535
1761370020345232400,3.229232421875,0.002735137939453125,-0.0026101768016815186,0.011373400688171387
1761370020363844400,3.24784423828125,0.004994392395019531,0.004501745104789734,0.0044176578521728516
1761370020382455000,3.266455078125,0.000118255615234375,-0.00261099636554718,0.009249433875083923
1761370020401067300,3.2850673828125,-0.0022449493408203125,0.002180740237236023,0.009142182767391205
1761370020419677700,3.303677734375,0.0048885345458984375,0.002127602696418762,0.016236156225204468
1761370020438290000,3.3222900390625,0.00464630126953125,-0.0027050673961639404,0.006633438169956207
1761370020456900400,3.340900390625,0.00217437744140625,-0.0026365667581558228,0.004393331706523895
1761370020475512600,3.3595126953125,-0.00021648406982421875,-0.0001605004072189331,0.02095913141965866
1761370020494123000,3.378123046875,0.009124755859375,-0.002413228154182434,0.008924581110477448
1761370020512735200,3.3967353515625,0.004151344299316406,0.004597947001457214,0.015963062644004822
1761370020531346000,3.415345947265625,0.003932952880859375,-0.0002579689025878906,0.013334877789020538
1761370020549958000,3.4339580078125,-0.0008306503295898438,-0.0001736283302307129,-0.0007435977458953857
1761370020568568600,3.452568603515625,0.0039043426513671875,0.0019750744104385376,0.011172480881214142
1761370020587180500,3.4711806640625,0.005969047546386719,-0.0027787387371063232,0.0017033591866493225
1761370020605791200,3.489791259765625,0.0034923553466796875,-0.00724223256111145,0.006570644676685333
1761370020624403200,3.5084033203125,-0.005965232849121094,0.0023550689220428467,0.008906170725822449
1761370020643014000,3.527013916015625,-0.001140594482421875,0.00009274482727050781,0.01595134288072586
1761370020661625900,3.5456259765625,0.0036802291870117188,-0.004544474184513092,0.004025720059871674
1761370020680236500,3.564236572265625,0.0034379959106445312,0.0025915205478668213,0.008840218186378479
1761370020698848500,3.5828486328125,0.005713462829589844,-0.00212860107421875,0.01110142469406128
1761370020717459200,3.601459228515625,0.0055599212646484375,0.00033129751682281494,0.00865725427865982
1761370020736071200,3.6200712890625,0.0029783248901367188,0.0027098804712295532,0.006365559995174408
1761370020754681900,3.638681884765625,-0.001750946044921875,-0.004400782287120819,0.013322725892066956
1761370020773294000,3.657294189453125,-0.0040130615234375,0.002772495150566101,0.0037968531250953674
1761370020791904500,3.675904541015625,-0.0015287399291992188,0.0026618242263793945,0.011065177619457245
1761370020810516700,3.694516845703125,-0.00850677490234375,0.0026879608631134033,0.010915331542491913
1761370020829127200,3.713127197265625,0.005778312683105469,0.004853576421737671,0.006123840808868408
1761370020847739400,3.731739501953125,0.003269195556640625,0.0046976059675216675,0.010900206863880157
1761370020866349800,3.750349853515625,-0.008531570434570312,0.006843790411949158,0.008462481200695038
1761370020884962000,3.768962158203125,0.003360748291015625,-0.0003874450922012329,0.0108712837100029
1761370020903572500,3.787572509765625,0.001010894775390625,0.0019413232803344727,0.0037049949169158936
1761370020922184700,3.806184814453125,0.0009355545043945312,0.0018562525510787964,0.00851438194513321
1761370020940795100,3.824795166015625,0.0055694580078125,0.004167422652244568,0.010937221348285675
1761370020959407400,3.843407470703125,-0.0063495635986328125,-0.0005414187908172607,0.006215989589691162
1761370020978018000,3.86201806640625,-0.0014352798461914062,0.001881435513496399,0.008793294429779053
1761370020996630000,3.880630126953125,0.007986068725585938,-0.005186103284358978,0.008780360221862793
1761370021015240700,3.89924072265625,0.0006952285766601562,-0.0026820003986358643,0.011061660945415497
1761370021033852700,3.917852783203125,-0.006354331970214844,0.004393354058265686,0.008691944181919098
1761370021052463400,3.93646337890625,0.007862091064453125,0.004210546612739563,0.010997071862220764
1761370021071075300,3.955075439453125,0.0029277801513671875,-0.0027980059385299683,-0.0007652491331100464
1761370021089686000,3.97368603515625,0.0004749298095703125,-0.0004265904426574707,0.004183448851108551
1761370021108298000,3.992298095703125,0.005124092102050781,-0.00037097930908203125,0.011495471000671387
1761370021126908700,4.01090869140625,-0.002071380615234375,-0.0050089433789253235,0.011408954858779907
1761370021145520600,4.029520751953125,0.0026617050170898438,-0.007179200649261475,0.008988521993160248
1761370021164131300,4.04813134765625,0.00025272369384765625,0.00021132826805114746,0.013805106282234192
1761370021182743300,4.066743408203125,-0.0020751953125,0.0025922954082489014,0.006716214120388031
1761370021201354000,4.08535400390625,-0.006680488586425781,-0.0020496994256973267,0.006616406142711639
1761370021219966200,4.10396630859375,-0.008777618408203125,0.002704918384552002,0.011535391211509705
1761370021238576600,4.12257666015625,-0.00382232666015625,0.002633228898048401,0.013725616037845612
1761370021257188900,4.14118896484375,0.0032453536987304688,0.00021032989025115967,0.011156909167766571
1761370021275799300,4.15979931640625,-0.003928184509277344,-0.0021884143352508545,0.0156572088599205
1761370021294411500,4.17841162109375,-0.006115913391113281,0.0002969503402709961,0.010802477598190308
1761370021313022000,4.19702197265625,-0.0036029815673828125,0.002487272024154663,0.017911620438098907
1761370021331634200,4.21563427734375,-0.00101470947265625,0.0025750845670700073,0.012810379266738892
1761370021350244600,4.23424462890625,-0.010402679443359375,-0.0044601187109947205,-0.003696344792842865
1761370021368856800,4.25285693359375,0.003985404968261719,-0.004404641687870026,0.010782673954963684
1761370021387467300,4.27146728515625,-0.0032529830932617188,-0.0019087642431259155,0.010774873197078705
1761370021406079500,4.29007958984375,-0.0007944107055664062,-0.0017331093549728394,0.00837535411119461
1761370021424690000,4.30868994140625,-0.00543975830078125,0.0029400140047073364,0.0059834495186805725
1761370021443302100,4.32730224609375,-0.00295257568359375,0.0006345510482788086,0.008529171347618103
1761370021461912600,4.34591259765625,-0.0005435943603515625,0.003177329897880554,0.006280168890953064
1761370021480524800,4.36452490234375,0.004216194152832031,0.0055396705865859985,0.008697666227817535
1761370021499135200,4.38313525390625,0.0017175674438476562,0.0007786303758621216,0.004034638404846191
1761370021517747500,4.40174755859375,-0.0006961822509765625,0.0007703006267547607,0.011163793504238129
1761370021536358000,4.42035791015625,-0.012291908264160156,-0.0016074180603027344,0.011122040450572968
1761370021554970000,4.43897021484375,-0.009652137756347656,0.0029843300580978394,0.0018030330538749695
1761370021573580500,4.45758056640625,0.00012111663818359375,0.005260065197944641,0.013728849589824677
1761370021592192800,4.47619287109375,0.0024662017822265625,-0.004137404263019562,0.0019311457872390747
1761370021610803200,4.49480322265625,-0.002288818359375,-0.0016673654317855835,0.011444754898548126
1761370021629415400,4.51341552734375,0.0024538040161132812,0.0006666779518127441,0.009006597101688385
1761370021648025900,4.53202587890625,0.0000152587890625,0.007702052593231201,0.006610482931137085
1761370021666638000,4.55063818359375,-0.009367942810058594,-0.004051856696605682,0.011203698813915253
1761370021685248500,4.56924853515625,-0.006747245788574219,-0.0038267001509666443,0.006559781730175018
1761370021703860700,4.58786083984375,-0.006489753723144531,-0.0013119429349899292,0.006653726100921631
1761370021722471200,4.60647119140625,-0.003925323486328125,-0.0013058632612228394,0.01608450710773468
1761370021741083400,4.62508349609375,-0.0038776397705078125,-0.0011865943670272827,0.00411301851272583
1761370021759694000,4.643694091796875,-0.0013227462768554688,-0.0011509954929351807,0.006759926676750183
1761370021778306000,4.66230615234375,0.00095367431640625,0.001354411244392395,0.011609882116317749
1761370021796916700,4.680916748046875,0.000957489013671875,-0.0010654926300048828,0.013891048729419708
1761370021815528700,4.69952880859375,-0.010728836059570312,0.005899891257286072,0.011395052075386047
1761370021834139400,4.718139404296875,0.0013170242309570312,0.008039698004722595,0.006642580032348633
1761370021852751400,4.73675146484375,0.0012302398681640625,0.0008081346750259399,0.011307790875434875
1761370021871362000,4.755362060546875,0.0034608840942382812,0.0032481253147125244,0.01117311418056488
1761370021889974000,4.77397412109375,0.003459930419921875,-0.001533597707748413,0.0040587931871414185
1761370021908584700,4.792584716796875,0.0032634735107421875,-0.0014247298240661621,0.004218928515911102
1761370021927196700,4.81119677734375,-0.0061492919921875,-0.0013580769300460815,0.011562302708625793
1761370021945807400,4.829807373046875,-0.0035943984985351562,-0.0013322383165359497,0.011376887559890747
1761370021964419300,4.84841943359375,-0.008147239685058594,0.003383234143257141,0.011350102722644806
1761370021983030000,4.867030029296875,0.0015363693237304688,-0.0013621598482131958,0.008898340165615082
1761370022001642000,4.88564208984375,0.0037183761596679688,-0.0037083104252815247,0.004340216517448425
1761370022020252700,4.904252685546875,-0.0010395050048828125,0.0034565627574920654,0.013851910829544067
1761370022038864600,4.92286474609375,-0.0033617019653320312,-0.001324295997619629,0.013665556907653809
1761370022057475300,4.941475341796875,-0.003215789794921875,0.001107722520828247,0.008855417370796204
1761370022076087300,4.96008740234375,-0.005427360534667969,-0.0013596266508102417,0.00876326858997345
1761370022094698000,4.978697998046875,-0.0029764175415039062,0.008135512471199036,0.004178598523139954
1761370022113310000,4.99731005859375,-0.009904861450195312,0.00327165424823761,0.008892841637134552
1761370022131920600,5.015920654296875,-0.00495147705078125,-0.006099984049797058,0.004262290894985199
1761370022150532600,5.03453271484375,-0.004791259765625,0.00118255615234375,0.011416226625442505
1761370022169143300,5.053143310546875,0.0000324249267578125,0.003343924880027771,0.020671427249908447
1761370022187755500,5.071755615234375,0.0023441314697265625,-0.003731183707714081,-0.0006549209356307983
1761370022206366000,5.090365966796875,0.002300262451171875,0.0011911243200302124,0.006739310920238495
1761370022224978200,5.108978271484375,-0.002410888671875,-0.0010717213153839111,0.011400565505027771
1761370022243588600,5.127588623046875,-0.0023746490478515625,-0.003198884427547455,0.00908149778842926
1761370022262200800,5.146200927734375,0.0000553131103515625,0.0038552582263946533,0.023002229630947113
1761370022280811300,5.164811279296875,-0.0022630691528320312,0.00591316819190979,0.010921388864517212
1761370022299423500,5.183423583984375,-0.004584312438964844,0.008036494255065918,-0.0007443726062774658
1761370022318034000,5.202033935546875,-0.006712913513183594,0.005458801984786987,0.011336974799633026
1761370022336646100,5.220646240234375,-0.0018644332885742188,-0.0017489641904830933,0.004215791821479797
1761370022355256600,5.239256591796875,0.0005483627319335938,-0.0016876012086868286,0.004274122416973114
1761370022373868800,5.257868896484375,0.0006055831909179688,0.0006869882345199585,0.009095557034015656
1761370022392479200,5.276479248046875,0.0051746368408203125,0.00058746337890625,0.004419758915901184
1761370022411091500,5.295091552734375,-0.0066547393798828125,-0.008750088512897491,0.013943128287792206
1761370022429702000,5.313701904296875,0.0005846023559570312,-0.006048485636711121,0.006713889539241791
1761370022448314000,5.332314208984375,0.002880096435546875,0.0010201483964920044,0.01367427408695221
1761370022466924500,5.350924560546875,0.0027418136596679688,-0.0013096034526824951,0.004178181290626526
1761370022485536800,5.369536865234375,0.00033092498779296875,0.005830943584442139,-0.00032798200845718384
1761370022504147200,5.388147216796875,0.00023937225341796875,0.00799560546875,0.004528544843196869
1761370022522759400,5.406759521484375,0.0026216506958007812,0.005395442247390747,0.00949309766292572
1761370022541369900,5.425369873046875,-0.006886482238769531,0.0005110055208206177,0.01169336587190628
1761370022559982000,5.443982177734375,0.0004367828369140625,-0.0017861872911453247,0.009356848895549774
1761370022578592500,5.462592529296875,0.0026559829711914062,0.007724002003669739,0.0024533122777938843
1761370022597204700,5.481204833984375,0.00029087066650390625,-0.006552830338478088,0.007130362093448639
1761370022615815200,5.499815185546875,-0.006707191467285156,0.0007212162017822266,0.007188692688941956
1761370022634427400,5.518427490234375,0.0005340576171875,0.0005810260772705078,0.012050054967403412
1761370022653037800,5.537037841796875,0.00047397613525390625,0.00513845682144165,0.01430976390838623
1761370022671650000,5.555650146484375,-0.0018215179443359375,0.0026898831129074097,0.007090277969837189
1761370022690260500,5.574260498046875,0.005179405212402344,0.002658545970916748,0.004906587302684784
1761370022708872700,5.592872802734375,-0.0066890716552734375,0.002589002251625061,0.0004085525870323181
1761370022727483100,5.611483154296875,0.0005903244018554688,-0.002186030149459839,0.0030984580516815186
1761370022746095400,5.630095458984375,0.00292205810546875,-0.006708994507789612,0.008053667843341827
1761370022764705800,5.648705810546875,-0.00180816650390625,0.005168691277503967,0.01276727020740509
1761370022783318000,5.667318115234375,-0.004185676574707031,0.0004436969757080078,0.010321497917175293
1761370022801928400,5.685928466796875,-0.004012107849121094,-0.001905590295791626,0.010257191956043243
1761370022820540700,5.704540771484375,0.005496025085449219,0.005088865756988525,0.010267369449138641
1761370022839151400,5.7231513671875,-0.008658409118652344,0.0026956796646118164,0.007852070033550262
1761370022857763300,5.741763427734375,-0.0060596466064453125,-0.004357971251010895,0.017151832580566406
1761370022876374000,5.7603740234375,-0.0035467147827148438,-0.006566405296325684,0.009817220270633698
1761370022894986000,5.778986083984375,-0.00339508056640625,0.0029680728912353516,0.014605976641178131
1761370022913596700,5.7975966796875,-0.00799560546875,-0.0041338130831718445,0.014455914497375488
1761370022932208600,5.816208740234375,-0.00777435302734375,0.0031251907348632812,0.007326722145080566
1761370022950819300,5.8348193359375,0.011156082153320312,-0.006359592080116272,0.002591162919998169
1761370022969431300,5.853431396484375,-0.003223419189453125,-0.00136643648147583,0.009805738925933838
1761370022988042000,5.8720419921875,0.0062961578369140625,0.003398597240447998,0.01207481324672699
1761370023006654000,5.890654052734375,-0.0033321380615234375,0.000972360372543335,0.012026280164718628
1761370023025264600,5.9092646484375,0.0014810562133789062,-0.008363433182239532,0.014276228845119476
1761370023043876600,5.927876708984375,0.0037450790405273438,0.005882963538169861,0.004744291305541992
1761370023062487300,5.9464873046875,-0.0010528564453125,0.0033922046422958374,0.00954919308423996
1761370023081099300,5.965099365234375,-0.00565338134765625,0.0032786428928375244,0.009597979485988617
1761370023099710000,5.9837099609375,-0.000919342041015625,-0.00371580570936203,0.004927642643451691
1761370023118322000,6.002322021484375,0.003856658935546875,-0.001275390386581421,0.012003637850284576
1761370023136932600,6.0209326171875,-0.0009450912475585938,-0.00823666900396347,0.004916951060295105
1761370023155544600,6.039544677734375,0.0013971328735351562,-0.005630478262901306,0.0073469579219818115
1761370023174155300,6.0581552734375,0.006056785583496094,-0.000756874680519104,0.016792289912700653
1761370023192767200,6.076767333984375,-0.0011692047119140625,0.006200253963470459,0.00952310860157013
1761370023211378000,6.0953779296875,0.0012178421020507812,-0.0032697394490242004,0.002478957176208496
1761370023229990000,6.113989990234375,-0.0011014938354492188,0.003952309489250183,0.007382981479167938
1761370023248600600,6.1326005859375,-0.005855560302734375,0.006156817078590393,0.0073915645480155945
1761370023267212500,6.151212646484375,-0.0031538009643554688,-0.003326199948787689,0.014558307826519012
1761370023285823200,6.1698232421875,-0.0030956268310546875,0.003914356231689453,0.005008496344089508
1761370023304435200,6.188435302734375,-0.0077056884765625,0.001528218388557434,0.0028212666511535645
1761370023323046000,6.2070458984375,-0.0073757171630859375,-0.005621194839477539,0.007690653204917908
1761370023341657900,6.225657958984375,-0.0047435760498046875,0.00396236777305603,0.012547530233860016
1761370023360268500,6.2442685546875,-0.004630088806152344,0.003812357783317566,0.000733010470867157
1761370023378880500,6.262880615234375,0.00010776519775390625,0.0061709582805633545,0.017340436577796936
1761370023397491200,6.2814912109375,0.0071239471435546875,-0.0008786320686340332,0.012429364025592804
1761370023416103200,6.300103271484375,0.006846427917480469,0.0036661773920059204,0.005327165126800537
1761370023434713900,6.3187138671875,0.0019083023071289062,-0.001176193356513977,0.017041951417922974
1761370023453325800,6.337325927734375,0.008908271789550781,0.00345785915851593,0.014289706945419312
1761370023471936500,6.3559365234375,-0.0030450820922851562,0.0033955127000808716,0.011811599135398865
1761370023490548500,6.374548583984375,-0.005303382873535156,-0.0036247894167900085,0.011713042855262756
1761370023509159200,6.3931591796875,0.002010345458984375,-0.0012034475803375244,0.009225703775882721
1761370023527771100,6.411771240234375,0.004136085510253906,0.0035796910524368286,0.009381473064422607
1761370023546381800,6.4303818359375,0.004075050354003906,-0.0012453645467758179,0.009443812072277069
1761370023564993800,6.448993896484375,-0.0054416656494140625,0.008230924606323242,0.011796489357948303
1761370023583604500,6.4676044921875,0.004151344299316406,-0.0013049542903900146,0.007046602666378021
1761370023602216400,6.486216552734375,0.0016546249389648438,-0.008344672620296478,0.00480864942073822
1761370023620827100,6.5048271484375,0.006264686584472656,0.013074532151222229,0.0028572753071784973
1761370023639439000,6.523439208984375,-0.0010080337524414062,0.0009138435125350952,0.014631859958171844
1761370023658049800,6.5420498046875,-0.0032911300659179688,0.000886574387550354,0.009660772979259491
1761370023676661800,6.560661865234375,-0.003185272216796875,0.000852733850479126,0.004832133650779724
1761370023695272400,6.5792724609375,-0.0006895065307617188,-0.0014482587575912476,0.00967337191104889
1761370023713884400,6.597884521484375,-0.000629425048828125,0.000822708010673523,0.012001097202301025
1761370023732495000,6.6164951171875,-0.0030450820922851562,0.0009663999080657959,0.007092960178852081
1761370023751107000,6.635107177734375,0.011137008666992188,-0.006070569157600403,0.016530990600585938
1761370023769717800,6.6537177734375,-0.0032024383544921875,0.0035265982151031494,0.011664532124996185
1761370023788330000,6.672330078125,0.0039234161376953125,0.005743920803070068,0.0093131884932518
1761370023806940400,6.6909404296875,-0.012691497802734375,0.0009368360042572021,0.004684634506702423
1761370023825552600,6.709552734375,-0.007568359375,-0.003704480826854706,0.007249109447002411
1761370023844163000,6.7281630859375,0.0044498443603515625,-0.00356244295835495,0.007240206003189087
1761370023862775300,6.746775390625,0.00885009765625,-0.0057799071073532104,0.007333390414714813
1761370023881385700,6.7653857421875,0.010947227478027344,0.0013975799083709717,0.016856946051120758
1761370023899998000,6.783998046875,-0.0010709762573242188,0.005985155701637268,0.0026014819741249084
1761370023918608400,6.8026083984375,-0.008021354675292969,0.00108279287815094,0.007405593991279602
1761370023937220600,6.821220703125,0.0016164779663085938,-0.003642447292804718,0.007438376545906067
1761370023955831000,6.8398310546875,0.0037975311279296875,0.005875095725059509,0.009761713445186615
1761370023974443300,6.858443359375,-0.0010004043579101562,0.0010306984186172485,0.014251403510570526
1761370023993053700,6.8770537109375,-0.0008916854858398438,0.003330543637275696,0.004664607346057892
1761370024011666000,6.895666015625,0.0014104843139648438,0.0009414255619049072,0.007045648992061615
1761370024030276400,6.9142763671875,-0.0009946823120117188,0.001024395227432251,0.014091089367866516
1761370024048888600,6.932888671875,-0.0009670257568359375,0.01045866310596466,0.0069344863295555115
1761370024067499000,6.9514990234375,0.00616455078125,0.005408376455307007,0.014100596308708191
1761370024086111200,6.970111328125,0.005879402160644531,0.0029169172048568726,0.007054567337036133
1761370024104721700,6.9887216796875,-0.005932807922363281,-0.004254274070262909,0.00708974152803421
1761370024123334000,7.007333984375,0.0058765411376953125,0.005054950714111328,0.009486459195613861
1761370024141944300,7.0259443359375,0.0033245086669921875,0.00263078510761261,0.011837244033813477
1761370024160556500,7.044556640625,0.0008535385131835938,0.0026032477617263794,0.014258824288845062
1761370024179167000,7.0631669921875,0.0009002685546875,0.004812493920326233,0.011686637997627258
1761370024197779200,7.081779296875,0.0008268356323242188,0.00013819336891174316,0.011592954397201538
1761370024216389600,7.1003896484375,0.005387306213378906,0.004862204194068909,0.01380087435245514
1761370024235001900,7.119001953125,-0.004055023193359375,0.0023257434368133545,0.008986957371234894
1761370024253612300,7.1376123046875,0.0008220672607421875,0.009424909949302673,0.00896819680929184
1761370024272224500,7.156224609375,0.0007524490356445312,-0.002560853958129883,0.0065174102783203125
1761370024290835000,7.1748349609375,0.0030002593994140625,0.004529699683189392,0.0020740553736686707
1761370024309447200,7.193447265625,0.0006198883056640625,0.002045959234237671,0.006872363388538361
1761370024328057600,7.2120576171875,-0.004111289978027344,-0.0027268528938293457,0.016276828944683075
1761370024346669800,7.230669921875,-0.003939628601074219,-0.00960252434015274,0.013757117092609406
1761370024365280300,7.2492802734375,0.003131866455078125,0.0025048106908798218,-0.00045008957386016846
1761370024383892500,7.267892578125,-0.0016450881958007812,-0.004621647298336029,0.011575065553188324
1761370024402503000,7.2865029296875,0.0006809234619140625,-0.002095744013786316,0.013800732791423798
1761370024421115100,7.305115234375,-0.003932952880859375,0.0025514066219329834,0.006630472838878632
1761370024439725600,7.3237255859375,0.0008611679077148438,0.0025569945573806763,0.00682397186756134
1761370024458337800,7.342337890625,0.0008678436279296875,-0.004436500370502472,0.011559456586837769
1761370024476948200,7.3609482421875,-0.0014390945434570312,0.002791687846183777,0.009117402136325836
1761370024495560400,7.379560546875,-0.001514434814453125,0.012112244963645935,0.006866224110126495
1761370024514171000,7.3981708984375,-0.008490562438964844,-0.00001539289951324463,0.009308844804763794
1761370024532783000,7.416783203125,0.005950927734375,0.000021338462829589844,0.013829462230205536
1761370024551393500,7.4353935546875,0.0033559799194335938,0.004765242338180542,0.008957453072071075
1761370024570005800,7.454005859375,-0.006060600280761719,-0.0023031085729599,0.00669541209936142
1761370024588616400,7.472616455078125,-0.005942344665527344,0.0024997293949127197,0.01134306937456131
1761370024607228400,7.491228515625,-0.005789756774902344,-0.00453079491853714,0.011316612362861633
1761370024625839000,7.509839111328125,-0.0009717941284179688,-0.002047136425971985,0.004275217652320862
1761370024644451000,7.528451171875,0.006119728088378906,-0.0019599199295043945,0.009056434035301208
1761370024663061800,7.547061767578125,0.012937545776367188,0.005163803696632385,0.020711436867713928
1761370024681673700,7.565673828125,-0.0015401840209960938,-0.004422016441822052,0.0040150657296180725
1761370024700284400,7.584284423828125,0.0055332183837890625,0.002710580825805664,0.006397351622581482
1761370024718896400,7.602896484375,-0.0039920806884765625,0.00036419928073883057,0.008834339678287506
1761370024737507000,7.621507080078125,-0.0014705657958984375,-0.001998201012611389,0.011299945414066315
1761370024756119000,7.640119140625,0.0008897781372070312,-0.008953548967838287,0.018245473504066467
1761370024774729700,7.658729736328125,0.0031747817993164062,0.0006045401096343994,0.003984086215496063
1761370024793341700,7.677341796875,-0.010939598083496094,-0.0020116567611694336,0.013523273169994354
1761370024811952400,7.695952392578125,0.0011510848999023438,-0.002092018723487854,0.013369552791118622
1761370024830564400,7.714564453125,-0.0035581588745117188,0.0026108920574188232,0.008646205067634583
1761370024849175000,7.733175048828125,0.0012235641479492188,-0.0021655112504959106,0.006300218403339386
1761370024867787000,7.751787109375,-0.0034894943237304688,0.0025935471057891846,0.0017011165618896484
1761370024886397700,7.770397705078125,-0.00098419189453125,0.0025267601013183594,0.008883997797966003
1761370024905009700,7.789009765625,0.0013589859008789062,0.00018769502639770508,0.00430818647146225
1761370024923620400,7.807620361328125,0.006018638610839844,0.011870354413986206,0.009105660021305084
1761370024942232300,7.826232421875,0.010403633117675781,0.002191603183746338,0.006759732961654663
1761370024960843000,7.844843017578125,-0.0015573501586914062,-0.0001780986785888672,0.011484459042549133
1761370024979455000,7.863455078125,-0.008454322814941406,-0.004766874015331268,0.008909843862056732
1761370024998065700,7.882065673828125,-0.0012331008911132812,-0.004738889634609222,0.0020022541284561157
1761370025016677600,7.900677734375,-0.0012359619140625,0.004831224679946899,0.002205394208431244
1761370025035288300,7.919288330078125,0.0034322738647460938,0.007005408406257629,0.014119245111942291
1761370025053900300,7.937900390625,0.0057086944580078125,0.0021223872900009155,0.011577360332012177
1761370025072511000,7.956510986328125,0.000885009765625,-0.002464577555656433,0.013803862035274506
1761370025091123000,7.975123046875,0.0031299591064453125,-0.0024586617946624756,0.0113811194896698
1761370025109733600,7.993733642578125,0.0031023025512695312,-0.0024520158767700195,0.0020150914788246155
1761370025128345600,8.012345703125,-0.0015964508056640625,0.0069869160652160645,0.009185992181301117
1761370025146956300,8.030956298828125,-0.0015850067138671875,0.0044040679931640625,0.004395633935928345
1761370025165568300,8.049568359375,-0.0038900375366210938,-0.0004695802927017212,0.013976410031318665
1761370025184179000,8.068178955078125,0.005652427673339844,0.004234641790390015,0.013752058148384094
1761370025202791000,8.086791015625,0.0030307769775390625,-0.0005721896886825562,0.006645947694778442
1761370025221401600,8.105401611328125,-0.0017042160034179688,-0.0028493106365203857,0.009051211178302765
1761370025240013600,8.124013671875,0.005451202392578125,-0.0028140395879745483,0.004320524632930756
1761370025258624300,8.142624267578125,0.007542610168457031,-0.0026634633541107178,0.009125187993049622
1761370025277236200,8.161236328125,0.00022792816162109375,-0.004965044558048248,0.0067060887813568115
1761370025295847000,8.179846923828125,-0.0021371841430664062,-0.0023326575756073,0.00903775542974472
1761370025314459000,8.198458984375,0.0003223419189453125,0.007023230195045471,0.01600075513124466
1761370025333069600,8.217069580078125,-0.0019664764404296875,-0.00022996962070465088,0.011135227978229523
1761370025351681500,8.235681640625,-0.004334449768066406,-0.009748376905918121,0.008691295981407166
1761370025370292200,8.254292236328125,-0.0018796920776367188,0.004600256681442261,0.008604072034358978
1761370025388904200,8.272904296875,-0.0017032623291015625,0.011396914720535278,0.008668184280395508
1761370025407515000,8.291514892578125,0.0006246566772460938,-0.00048010051250457764,0.0039108991622924805
1761370025426126800,8.310126953125,-0.0017938613891601562,0.004240214824676514,0.0017759650945663452
1761370025444737500,8.328737548828125,-0.001659393310546875,-0.0027703046798706055,0.008978277444839478
1761370025463349500,8.347349609375,0.005301475524902344,-0.0004943013191223145,0.008957482874393463
1761370025481960200,8.365960205078125,0.000492095947265625,-0.002869129180908203,0.0066240280866622925
1761370025500572200,8.384572265625,-0.0018405914306640625,-0.0027550458908081055,0.01584906131029129
1761370025519182800,8.403182861328125,-0.0017442703247070312,0.0021192431449890137,0.008634373545646667
1761370025537794800,8.421794921875,-0.001689910888671875,-0.00489933043718338,0.0015247315168380737
1761370025556405500,8.440405517578125,-0.003951072692871094,0.002266928553581238,0.008703172206878662
1761370025575017500,8.459017578125,0.0078277587890625,-0.002364024519920349,0.008781366050243378
1761370025593628200,8.477628173828125,-0.004128456115722656,0.0024040937423706055,0.008853890001773834
1761370025612240100,8.496240234375,-0.0016021728515625,0.00232754647731781,0.01360146701335907
1761370025630850800,8.514850830078124,0.012415885925292969,0.002269536256790161,0.01577681303024292
1761370025649462800,8.533462890625,0.011962890625,0.006788104772567749,-0.0007745102047920227
1761370025668073500,8.552073486328124,0.0022258758544921875,0.0019141286611557007,0.011197932064533234
1761370025686685400,8.570685546875,0.0021886825561523438,-0.002854973077774048,0.01351531594991684
1761370025705296100,8.589296142578124,-0.0002803802490234375,-0.00512763112783432,0.003944404423236847
1761370025723908000,8.607908203125,0.006866455078125,0.004416421055793762,0.006516784429550171
1761370025742518800,8.626518798828124,-0.00046825408935546875,-0.002598375082015991,0.009003378450870514
1761370025761130800,8.645130859375,-0.00041675567626953125,0.0020968466997146606,0.006605915725231171
1761370025779741400,8.663741455078124,-0.00048542022705078125,-0.0002286285161972046,0.006831228733062744
1761370025798353400,8.682353515625,-0.00043392181396484375,-0.00016289949417114258,0.004583828151226044
1761370025816964000,8.700964111328124,-0.0027379989624023438,-0.0024915486574172974,0.00937766581773758
1761370025835576000,8.719576171875,0.0044116973876953125,0.002279534935951233,0.011708609759807587
1761370025854186800,8.738186767578124,0.0019922256469726562,-0.0002805441617965698,0.006801798939704895
1761370025872798700,8.756798828125,-0.0028247833251953125,-0.0027007460594177246,-0.0002629682421684265
1761370025891409400,8.775409423828124,0.0043277740478515625,-0.0024584829807281494,0.00928247720003128
1761370025910021400,8.794021484375,0.0018672943115234375,-0.009475834667682648,0.00940338522195816
1761370025928632000,8.812632080078124,0.013456344604492188,0.002398774027824402,0.0047334060072898865
1761370025947244000,8.831244140625,0.005906105041503906,0.004693865776062012,0.004869841039180756
1761370025965854700,8.849854736328124,0.0033931732177734375,-0.000015094876289367676,0.009669966995716095
1761370025984466700,8.868466796875,0.007983207702636719,-0.00457676500082016,0.0073289647698402405
1761370026003077400,8.887077392578124,0.0030088424682617188,0.00031857192516326904,0.01667916774749756
1761370026021689300,8.905689453125,0.0030221939086914062,-0.001932978630065918,0.0071388185024261475
1761370026040300000,8.924300048828124,-0.0017900466918945312,0.002764686942100525,0.014181487262248993
1761370026058912000,8.942912109375,-0.006402015686035156,-0.002031296491622925,0.0117463618516922
1761370026077522700,8.961522705078124,-0.003841400146484375,-0.00424223393201828,0.009335987269878387
1761370026096134700,8.980134765625,-0.0013647079467773438,0.007666602730751038,0.01869691163301468
1761370026114745300,8.998745361328124,0.0009937286376953125,0.007430553436279297,0.006609737873077393
1761370026133357300,9.017357421875,0.0055866241455078125,0.004890173673629761,0.0042907074093818665
1761370026151968000,9.035968017578124,0.0006914138793945312,0.0022582560777664185,0.00911308079957962
1761370026170580000,9.054580078125,0.000782012939453125,0.009265154600143433,0.009050264954566956
1761370026189190700,9.073190673828124,-0.0086669921875,-0.002619534730911255,0.013730302453041077
1761370026207802600,9.091802734375,-0.005991935729980469,-0.0024970173835754395,0.001931801438331604
1761370026226413300,9.110413330078124,-0.0034418106079101562,0.00221802294254303,0.00907452404499054
1761370026245025300,9.129025390625,0.008283615112304688,-0.00018897652626037598,0.004303857684135437
1761370026263636000,9.147635986328124,0.0033397674560546875,-0.0003154575824737549,0.009148359298706055
1761370026282248000,9.166248046875,0.000873565673828125,0.0020916014909744263,-0.00038833171129226685
1761370026300858600,9.184858642578124,0.005585670471191406,-0.0025011301040649414,0.011784940958023071
1761370026319470600,9.203470703125,-0.006333351135253906,-0.002493724226951599,0.01159457117319107
1761370026338081300,9.222081298828124,-0.0013790130615234375,0.004591748118400574,0.011448785662651062
1761370026356693200,9.240693359375,0.0033712387084960938,-0.00021088123321533203,0.004531405866146088
1761370026375304000,9.259303955078124,0.0077667236328125,-0.00009140372276306152,0.016368255019187927
1761370026393916000,9.277916015625,0.005229949951171875,-0.0047611817717552185,0.00911393016576767
1761370026412526600,9.296526611328124,0.002857208251953125,0.01168106496334076,0.00206766277551651
1761370026431138600,9.315138671875,0.002643585205078125,0.004218265414237976,0.009261839091777802
1761370026449749200,9.333749267578124,0.0049076080322265625,-0.005217663943767548,-0.00007183104753494263
1761370026468361200,9.352361328125,0.004741668701171875,-0.0027498602867126465,0.009428136050701141
1761370026486972000,9.370971923828124,0.0021877288818359375,-0.0001520216464996338,0.009473346173763275
1761370026505583900,9.389583984375,-0.009464263916015625,-0.00019137561321258545,0.009360142052173615
1761370026524194600,9.408194580078124,-0.00444793701171875,-0.004794172942638397,0.009398840367794037
1761370026542806500,9.426806640625,0.00028705596923828125,0.00009290874004364014,0.007010199129581451
1761370026561417200,9.445417236328124,0.0072193145751953125,-0.004655219614505768,0.00699412077665329
1761370026580029200,9.464029296875,-0.006991386413574219,-0.004482395946979523,0.01180490106344223
1761370026598639900,9.482639892578124,0.0026159286499023438,0.004934743046760559,0.009449034929275513
1761370026617251800,9.501251953125,0.0048007965087890625,0.002413526177406311,0.009350933134555817
1761370026635862300,9.5198623046875,0.0023632049560546875,-0.0023315995931625366,0.007035292685031891
1761370026654474500,9.538474609375,-0.007058143615722656,0.0024892091751098633,0.00472550094127655
1761370026673085000,9.5570849609375,0.004825592041015625,-0.00006206333637237549,0.007043495774269104
1761370026701002000,9.585001953125,0.0022668838500976562,0.002205401659011841,0.009538359940052032
1761370026719614200,9.6036142578125,0.006936073303222656,-0.0048882439732551575,0.0024781152606010437
1761370026738224600,9.622224609375,0.004426002502441406,-0.002337738871574402,0.012083828449249268
1761370026756836900,9.6408369140625,0.004237174987792969,0.00478188693523407,0.01188361644744873
1761370026775447300,9.659447265625,-0.0005750656127929688,-0.00004239380359649658,0.009461745619773865
1761370026794059500,9.6780595703125,-0.009900093078613281,-0.002264067530632019,0.007126025855541229
1761370026812670000,9.696669921875,-0.0025539398193359375,-0.0022101402282714844,0.00712963193655014
1761370026831282200,9.7152822265625,-0.00717926025390625,0.007125675678253174,0.007131695747375488
1761370026849892600,9.733892578125,-0.0023164749145507812,0.0021463632583618164,0.004945330321788788
1761370026868504800,9.7525048828125,0.00014972686767578125,0.002187967300415039,0.007430218160152435
1761370026887115300,9.771115234375,-0.0045299530029296875,-0.004906035959720612,0.007645517587661743
1761370026905727500,9.7897275390625,-0.0020303726196289062,-0.000055730342864990234,0.012339629232883453
1761370026924338000,9.808337890625,-0.006634712219238281,-0.00008989870548248291,0.00987187772989273
1761370026942950100,9.8269501953125,0.007550239562988281,-0.00012385845184326172,0.01456402987241745
1761370026961560600,9.845560546875,0.0026302337646484375,-0.0002116560935974121,0.012100264430046082
1761370026980172800,9.8641728515625,-0.011506080627441406,-0.00018568336963653564,0.014252766966819763
1761370026998783200,9.882783203125,-0.0041046142578125,-0.007239863276481628,0.00695839524269104
1761370027017395500,9.9013955078125,-0.006287574768066406,0.00013752281665802002,0.011785373091697693
1761370027036006000,9.920005859375,-0.001453399658203125,0.004741683602333069,0.009225033223628998
1761370027054617900,9.938617919921874,-0.008393287658691406,-0.000047966837882995605,0.011527732014656067
1761370027073228500,9.957228515625,-0.0057659149169921875,0.0001452416181564331,0.006866961717605591
1761370027091840500,9.975840576171874,-0.000949859619140625,0.0001201331615447998,0.009304240345954895
1761370027110451200,9.994451171875,0.006104469299316406,0.004654139280319214,0.00695250928401947
1761370027129063200,10.013063232421874,-0.0034799575805664062,-0.007000580430030823,0.009504668414592743
1761370027147673900,10.031673828125,-0.003368377685546875,0.002549499273300171,0.00946740061044693
1761370027166285800,10.050285888671874,-0.005614280700683594,0.004759892821311951,0.011668585240840912
1761370027184896500,10.068896484375,-0.005352973937988281,-0.00006307661533355713,0.011441364884376526
1761370027203508500,10.087508544921874,-0.0028638839721679688,-0.004805438220500946,0.006688334047794342
1761370027222119200,10.106119140625,-0.0074024200439453125,0.0046707987785339355,0.002187296748161316
1761370027240731100,10.124731201171874,-0.007161140441894531,0.004557281732559204,0.011764049530029297
1761370027259341800,10.143341796875,-0.0068874359130859375,0.00659044086933136,0.004629455506801605
1761370027277953800,10.161953857421874,-0.0021514892578125,0.0017603933811187744,0.009440384805202484
1761370027296564500,10.180564453125,0.0026264190673828125,-0.0030035823583602905,0.007084846496582031
1761370027315176400,10.199176513671874,-0.00911712646484375,-0.0005468428134918213,0.011869065463542938
1761370027333787100,10.217787109375,-0.006504058837890625,0.006528645753860474,0.009479351341724396
1761370027352399000,10.236399169921874,-0.00389862060546875,-0.005360729992389679,0.01872013509273529
1761370027371009800,10.255009765625,-0.010836601257324219,0.008992984890937805,0.011450693011283875
1761370027389621800,10.273621826171874,-0.008087158203125,0.0038960427045822144,0.008994892239570618
1761370027408232400,10.292232421875,-0.0055065155029296875,0.0036750435829162598,0.001951068639755249
1761370027426844400,10.310844482421874,-0.005368232727050781,0.0012195557355880737,0.01134411245584488
1761370027445455000,10.329455078125,-0.00746917724609375,-0.005801670253276825,0.008892536163330078
1761370027464067000,10.348067138671874,0.004427909851074219,0.001447826623916626,0.015862680971622467
1761370027482677500,10.366677490234375,-0.00039196014404296875,-0.0010143816471099854,0.01104164868593216
1761370027501289700,10.385289794921874,-0.01435089111328125,-0.0007883012294769287,0.0015374720096588135
1761370027519900200,10.403900146484375,-0.006896018981933594,0.0014931857585906982,0.006544202566146851
1761370027538512400,10.422512451171874,0.00039005279541015625,-0.0030170828104019165,0.00893612951040268
1761370027557122800,10.441122802734375,-0.0020589828491210938,-0.0051970407366752625,0.013658322393894196
1761370027575735000,10.459735107421874,-0.006665229797363281,-0.002650246024131775,0.00901813805103302
1761370027594345500,10.478345458984375,-0.008801460266113281,-0.0003225952386856079,0.002005152404308319
1761370027612957700,10.496957763671874,-0.0015306472778320312,-0.00021451711654663086,0.013964816927909851
1761370027631568100,10.515568115234375,-0.0038385391235351562,0.0021663308143615723,0.004363223910331726
1761370027650180400,10.534180419921874,-0.015445709228515625,-0.00025750696659088135,0.006852194666862488
1761370027668790800,10.552790771484375,-0.0008525848388671875,0.002068251371383667,0.00923389196395874
1761370027687403000,10.571403076171874,0.003841400146484375,-0.00033539533615112305,0.011386804282665253
1761370027706013400,10.590013427734375,-0.0009183883666992188,0.0020080208778381348,0.009067870676517487
1761370027724625700,10.608625732421874,0.010684013366699219,0.0018670260906219482,0.011336378753185272
1761370027743236000,10.627236083984375,0.0010280609130859375,0.001903340220451355,0.008845046162605286
1761370027761848300,10.645848388671874,0.0033054351806640625,0.008828401565551758,0.013554543256759644
1761370027780458800,10.664458740234375,-0.0060672760009765625,-0.0031599104404449463,0.006454147398471832
1761370027799071000,10.683071044921874,0.003353118896484375,-0.0007931441068649292,0.013313166797161102
1761370027817681400,10.701681396484375,-0.0036287307739257812,-0.0052423253655433655,0.010850861668586731
1761370027836293600,10.720293701171874,0.00566864013671875,-0.002718806266784668,0.008469782769680023
1761370027854904000,10.738904052734375,-0.0037832260131835938,-0.005020700395107269,0.0013662204146385193
1761370027873516300,10.757516357421874,-0.0013055801391601562,-0.0025779753923416138,0.010939277708530426
1761370027892126700,10.776126708984375,-0.008461952209472656,-0.005218513309955597,0.0372394323348999
1761370027910739000,10.794739013671874,0.0035238265991210938,0.0015704631805419922,0.0001023411750793457
1761370027929349400,10.813349365234375,0.015043258666992188,0.004335448145866394,-0.029174789786338806
1761370027947961600,10.831961669921874,-0.011000633239746094,-0.007188454270362854,0.02652539312839508
1761370027966572000,10.850572021484375,-0.008322715759277344,-0.0021848976612091064,0.01152782142162323
