time,seconds_elapsed,z,y,x
1761370017386028800,0.27002880859375,-0.0012216945178806782,0.0019088976550847292,0.0005344913806766272
1761370017404639500,0.288639404296875,-0.0006108472589403391,0.00129805039614439,-0.00015271181473508477
1761370017423251500,0.30725146484375,-0.0012216945178806782,0.00129805039614439,0.0005344913806766272
1761370017441862100,0.325862060546875,-0.0018325417768210173,0.0019088976550847292,-0.00015271181473508477
1761370017460474000,0.34447412109375,-0.0006108472589403391,0.00129805039614439,-0.00015271181473508477
1761370017479084800,0.363084716796875,-0.0006108472589403391,0.0019088976550847292,0.0005344913806766272
1761370017497696800,0.38169677734375,-0.0012216945178806782,0.0019088976550847292,-0.00015271181473508477
1761370017516307500,0.400307373046875,-0.0012216945178806782,0.00129805039614439,0.0005344913806766272
1761370017534919400,0.41891943359375,-0.0006108472589403391,0.0019088976550847292,-0.00015271181473508477
1761370017553530000,0.437530029296875,-0.0012216945178806782,0.0019088976550847292,-0.00015271181473508477
1761370017572142000,0.45614208984375,0,0.000687203137204051,0.0005344913806766272
1761370017590752800,0.474752685546875,-0.0006108472589403391,0.00129805039614439,-0.00015271181473508477
1761370017609364700,0.49336474609375,-0.0018325417768210173,0.0025197449140250683,-0.00015271181473508477
1761370017627975400,0.511975341796875,-0.0012216945178806782,0.0019088976550847292,0.0005344913806766272
1761370017646587600,0.530587646484375,-0.0012216945178806782,0.00129805039614439,-0.00015271181473508477
1761370017665198000,0.549197998046875,-0.0012216945178806782,0.0019088976550847292,-0.00015271181473508477
1761370017683810300,0.567810302734375,-0.0012216945178806782,0.0019088976550847292,0.0005344913806766272
1761370017702420700,0.586420654296875,-0.0012216945178806782,0.00129805039614439,0.0005344913806766272
1761370017721033000,0.605032958984375,-0.0006108472589403391,0.0019088976550847292,-0.00015271181473508477
1761370017739643400,0.623643310546875,-0.0012216945178806782,0.0019088976550847292,-0.00015271181473508477
1761370017758255600,0.642255615234375,-0.0006108472589403391,0.00129805039614439,0.0005344913806766272
1761370017776866300,0.6608662109375,-0.0006108472589403391,0.0019088976550847292,-0.00015271181473508477
1761370017795478300,0.679478271484375,-0.0012216945178806782,0.00129805039614439,-0.00015271181473508477
1761370017814089000,0.6980888671875,-0.0006108472589403391,0.00129805039614439,-0.00015271181473508477
1761370017832701000,0.716700927734375,-0.0012216945178806782,0.00129805039614439,-0.00015271181473508477
1761370017851311600,0.7353115234375,-0.0006108472589403391,0.00129805039614439,-0.00015271181473508477
1761370017869923600,0.753923583984375,-0.0012216945178806782,0.0019088976550847292,-0.00015271181473508477
1761370017888534300,0.7725341796875,-0.0012216945178806782,0.00129805039614439,-0.0007635590736754239
1761370017907146200,0.791146240234375,-0.0006108472589403391,0.0019088976550847292,-0.00015271181473508477
1761370017925757000,0.8097568359375,-0.0012216945178806782,0.0019088976550847292,-0.00015271181473508477
1761370017944369200,0.828369140625,-0.0006108472589403391,0.00129805039614439,-0.00015271181473508477
1761370017962979600,0.8469794921875,-0.0006108472589403391,0.00129805039614439,-0.00015271181473508477
1761370017981591800,0.865591796875,-0.0006108472589403391,0.000687203137204051,0.0005344913806766272
1761370018000202200,0.8842021484375,-0.0012216945178806782,0.000687203137204051,0.0005344913806766272
1761370018018814500,0.902814453125,-0.0006108472589403391,0.00129805039614439,-0.00015271181473508477
1761370018037425200,0.921425048828125,-0.0006108472589403391,0.0019088976550847292,-0.00015271181473508477
1761370018056037000,0.940037109375,-0.0006108472589403391,0.0019088976550847292,-0.00015271181473508477
1761370018074647800,0.958647705078125,-0.0012216945178806782,0.00129805039614439,-0.00015271181473508477
1761370018093259800,0.977259765625,-0.0012216945178806782,0.00129805039614439,0.0005344913806766272
1761370018111870500,0.995870361328125,-0.0006108472589403391,0.00129805039614439,0.0005344913806766272
1761370018130482400,1.014482421875,0,0.0019088976550847292,0.0005344913806766272
1761370018149093000,1.033093017578125,-0.0006108472589403391,0.0019088976550847292,-0.00015271181473508477
1761370018167705300,1.051705322265625,-0.0018325417768210173,0.0019088976550847292,-0.0007635590736754239
1761370018186315800,1.070315673828125,-0.0012216945178806782,0.0019088976550847292,0.0005344913806766272
1761370018204928000,1.088927978515625,-0.0006108472589403391,0.00129805039614439,-0.00015271181473508477
1761370018223538400,1.107538330078125,-0.0006108472589403391,0.00129805039614439,-0.00015271181473508477
1761370018242150700,1.126150634765625,-0.0012216945178806782,0.00129805039614439,-0.00015271181473508477
1761370018260761300,1.14476123046875,-0.0012216945178806782,0.00129805039614439,-0.00015271181473508477
1761370018279373300,1.163373291015625,-0.0006108472589403391,0.0019088976550847292,-0.0007635590736754239
1761370018297984000,1.18198388671875,-0.0006108472589403391,0.00129805039614439,-0.00015271181473508477
1761370018316596000,1.200595947265625,0,0.00129805039614439,0.0005344913806766272
1761370018335206700,1.21920654296875,-0.0012216945178806782,0.0019088976550847292,0.0005344913806766272
1761370018353818600,1.237818603515625,0,0.0019088976550847292,0.0005344913806766272
1761370018372429300,1.25642919921875,0,0.0019088976550847292,-0.00015271181473508477
1761370018391041500,1.27504150390625,-0.0006108472589403391,0.00129805039614439,-0.0007635590736754239
1761370018409652000,1.29365185546875,-0.0006108472589403391,0.0019088976550847292,0.0005344913806766272
1761370018428264200,1.31226416015625,-0.0006108472589403391,0.00129805039614439,-0.0007635590736754239
1761370018446875000,1.330875,-0.0006108472589403391,0.0025197449140250683,-0.001374406274408102
1761370018465486800,1.34948681640625,-0.0012216945178806782,0.00129805039614439,-0.00015271181473508477
1761370018484097500,1.36809765625,-0.0012216945178806782,0.00129805039614439,0.0005344913806766272
1761370018502709500,1.38670947265625,-0.0006108472589403391,0.00129805039614439,-0.00015271181473508477
1761370018521320200,1.4053203125,-0.0012216945178806782,0.0019088976550847292,-0.00015271181473508477
1761370018539932200,1.42393212890625,0,0.0019088976550847292,0.0005344913806766272
1761370018558542800,1.44254296875,-0.0006108472589403391,0.0019088976550847292,-0.00015271181473508477
1761370018577155000,1.461155029296875,-0.0006108472589403391,0.00129805039614439,-0.00015271181473508477
1761370018595765500,1.479765625,-0.0018325417768210173,0.00129805039614439,-0.00015271181473508477
1761370018614377700,1.498377685546875,0,0.0025197449140250683,-0.0007635590736754239
1761370018632988200,1.51698828125,-0.0006108472589403391,0.0019088976550847292,-0.00015271181473508477
1761370018651600400,1.535600341796875,-0.0006108472589403391,0.0019088976550847292,-0.00015271181473508477
1761370018670211000,1.554211181640625,-0.0012216945178806782,0.00129805039614439,0.0005344913806766272
1761370018688823000,1.572822998046875,-0.0006108472589403391,0.0019088976550847292,-0.00015271181473508477
1761370018707433700,1.591433837890625,0,0.0019088976550847292,-0.00015271181473508477
1761370018726045700,1.610045654296875,-0.0006108472589403391,0.00129805039614439,-0.0007635590736754239
1761370018744656400,1.628656494140625,-0.0006108472589403391,0.0019088976550847292,-0.00015271181473508477
1761370018763268400,1.647268310546875,-0.0006108472589403391,0.0019088976550847292,0.0005344913806766272
1761370018781879000,1.665879150390625,-0.0012216945178806782,0.0019088976550847292,-0.00015271181473508477
1761370018800491300,1.6844912109375,-0.0006108472589403391,0.0019088976550847292,-0.00015271181473508477
1761370018819101700,1.703101806640625,-0.0006108472589403391,0.0019088976550847292,-0.00015271181473508477
1761370018837714000,1.7217138671875,-0.0006108472589403391,0.0019088976550847292,-0.00015271181473508477
1761370018856324600,1.74032470703125,-0.0012216945178806782,0.0019088976550847292,-0.00015271181473508477
1761370018874936600,1.7589365234375,-0.0012216945178806782,0.00129805039614439,-0.00015271181473508477
1761370018893547300,1.77754736328125,-0.0012216945178806782,0.00129805039614439,-0.00015271181473508477
1761370018912159200,1.7961591796875,-0.0006108472589403391,0.0019088976550847292,0.0005344913806766272
1761370018930770000,1.81477001953125,-0.0012216945178806782,0.0019088976550847292,-0.0007635590736754239
1761370018949382100,1.833382080078125,-0.0012216945178806782,0.000687203137204051,-0.00015271181473508477
1761370018967992600,1.85199267578125,-0.0006108472589403391,0.0019088976550847292,-0.0007635590736754239
1761370018986604800,1.870604736328125,-0.0006108472589403391,0.0019088976550847292,-0.00015271181473508477
1761370019005215200,1.88921533203125,0,0.00129805039614439,-0.0007635590736754239
1761370019023827500,1.907827392578125,-0.0006108472589403391,0.00129805039614439,-0.00015271181473508477
1761370019042438000,1.92643798828125,-0.0006108472589403391,0.0019088976550847292,-0.00015271181473508477
1761370019061050000,1.945050048828125,0,0.00129805039614439,-0.0007635590736754239
1761370019079660800,1.963660888671875,0,0.0019088976550847292,-0.00015271181473508477
1761370019098272800,1.982272705078125,-0.0006108472589403391,0.00129805039614439,0.0005344913806766272
1761370019116883500,2.000883544921875,-0.0006108472589403391,0.00129805039614439,-0.00015271181473508477
1761370019135495400,2.019495361328125,-0.0006108472589403391,0.00129805039614439,0.0005344913806766272
1761370019154106000,2.038106201171875,-0.0012216945178806782,0.0025197449140250683,0.0005344913806766272
1761370019172718300,2.05671826171875,-0.0006108472589403391,0.00129805039614439,-0.00015271181473508477
1761370019191328800,2.075328857421875,-0.0006108472589403391,0.00129805039614439,-0.00015271181473508477
1761370019209941000,2.09394091796875,-0.0006108472589403391,0.0025197449140250683,-0.00015271181473508477
1761370019228551700,2.1125517578125,-0.0006108472589403391,0.0019088976550847292,-0.00015271181473508477
1761370019247163600,2.13116357421875,-0.0012216945178806782,0.00129805039614439,-0.00015271181473508477
1761370019265774000,2.149774169921875,-0.0006108472589403391,0.0019088976550847292,-0.00015271181473508477
1761370019284386300,2.16838623046875,-0.0012216945178806782,0.0019088976550847292,0.0005344913806766272
1761370019302997000,2.1869970703125,-0.0006108472589403391,0.00129805039614439,-0.00015271181473508477
1761370019321609000,2.20560888671875,-0.0012216945178806782,0.000687203137204051,-0.00015271181473508477
1761370019340219600,2.2242197265625,-0.0012216945178806782,0.00129805039614439,0.0005344913806766272
1761370019358831900,2.242831787109375,-0.0018325417768210173,0.0019088976550847292,0.0005344913806766272
1761370019377442300,2.2614423828125,-0.0006108472589403391,0.0019088976550847292,-0.00015271181473508477
1761370019396054500,2.280054443359375,-0.0006108472589403391,0.0019088976550847292,-0.00015271181473508477
1761370019414665000,2.2986650390625,-0.0012216945178806782,0.0019088976550847292,-0.00015271181473508477
1761370019433277200,2.317277099609375,-0.0012216945178806782,0.00129805039614439,-0.0007635590736754239
1761370019451887900,2.335887939453125,-0.0018325417768210173,0.00129805039614439,0.0005344913806766272
1761370019470499800,2.354499755859375,-0.0006108472589403391,0.00129805039614439,-0.00015271181473508477
1761370019489110500,2.373110595703125,-0.0012216945178806782,0.00129805039614439,0.0005344913806766272
1761370019507722500,2.391722412109375,-0.0006108472589403391,0.00129805039614439,0.0005344913806766272
1761370019526333200,2.410333251953125,-0.0006108472589403391,0.0019088976550847292,-0.00015271181473508477
1761370019544945200,2.428945068359375,-0.0006108472589403391,0.0019088976550847292,-0.00015271181473508477
1761370019563555800,2.447555908203125,-0.0006108472589403391,0.0025197449140250683,-0.00015271181473508477
1761370019582167800,2.466167724609375,0,0.00129805039614439,-0.00015271181473508477
1761370019600778500,2.484778564453125,-0.0006108472589403391,0.0019088976550847292,-0.00015271181473508477
1761370019619390700,2.503390625,-0.0012216945178806782,0.0019088976550847292,0.0005344913806766272
1761370019638001200,2.522001220703125,-0.0006108472589403391,0.000687203137204051,-0.00015271181473508477
1761370019656613400,2.54061328125,-0.0012216945178806782,0.0019088976550847292,0.0005344913806766272
1761370019675223800,2.559223876953125,0,0.000687203137204051,-0.00015271181473508477
1761370019693836000,2.5778359375,-0.0006108472589403391,0.0019088976550847292,0.0005344913806766272
1761370019712446700,2.59644677734375,-0.0006108472589403391,0.00129805039614439,-0.00015271181473508477
1761370019731058700,2.61505859375,-0.0012216945178806782,0.0019088976550847292,-0.0007635590736754239
1761370019749669400,2.63366943359375,-0.0006108472589403391,0.0019088976550847292,-0.00015271181473508477
1761370019768281300,2.65228125,-0.0006108472589403391,0.00129805039614439,-0.00015271181473508477
1761370019786892000,2.67089208984375,-0.0006108472589403391,0.00129805039614439,-0.00015271181473508477
1761370019805504000,2.68950390625,-0.0012216945178806782,0.0019088976550847292,-0.00015271181473508477
1761370019824114700,2.70811474609375,-0.0006108472589403391,0.0019088976550847292,-0.001374406274408102
1761370019842727000,2.726726806640625,-0.0012216945178806782,0.00129805039614439,0.0005344913806766272
1761370019861337300,2.74533740234375,-0.0006108472589403391,0.00129805039614439,-0.00015271181473508477
1761370019879949600,2.763949462890625,-0.0006108472589403391,0.00129805039614439,-0.00015271181473508477
1761370019898560000,2.78256005859375,-0.0012216945178806782,0.00129805039614439,-0.00015271181473508477
1761370019917172200,2.801172119140625,-0.0012216945178806782,0.0019088976550847292,-0.00015271181473508477
1761370019935783000,2.819782958984375,-0.0006108472589403391,0.0019088976550847292,-0.0007635590736754239
1761370019954395000,2.838394775390625,-0.0006108472589403391,0.00129805039614439,-0.00015271181473508477
1761370019973005600,2.857005615234375,-0.0006108472589403391,0.0019088976550847292,-0.0007635590736754239
1761370019991617500,2.875617431640625,-0.0012216945178806782,0.00129805039614439,-0.00015271181473508477
1761370020010228200,2.894228271484375,-0.0012216945178806782,0.00129805039614439,-0.00015271181473508477
1761370020028840200,2.912840087890625,-0.0006108472589403391,0.0019088976550847292,0.0005344913806766272
1761370020047451000,2.931450927734375,-0.0018325417768210173,0.00129805039614439,0.0005344913806766272
1761370020066062800,2.950062744140625,-0.0012216945178806782,0.00129805039614439,0.0011453386396169662
1761370020084673500,2.968673583984375,-0.0012216945178806782,0.0025197449140250683,-0.00015271181473508477
1761370020103285800,2.98728564453125,-0.0018325417768210173,0.00129805039614439,-0.00015271181473508477
1761370020121896200,3.005896240234375,-0.0006108472589403391,0.00129805039614439,0.0005344913806766272
1761370020140508400,3.02450830078125,-0.0012216945178806782,0.0019088976550847292,-0.00015271181473508477
1761370020159118800,3.043118896484375,-0.0006108472589403391,0.0019088976550847292,-0.0007635590736754239
1761370020177731000,3.06173095703125,-0.0006108472589403391,0.0025197449140250683,-0.001374406274408102
1761370020196341500,3.080341552734375,-0.0012216945178806782,0.0019088976550847292,-0.00015271181473508477
1761370020214953700,3.09895361328125,-0.0012216945178806782,0.0019088976550847292,-0.00015271181473508477
1761370020233564400,3.117564453125,-0.0012216945178806782,0.0019088976550847292,-0.00015271181473508477
1761370020252176400,3.13617626953125,-0.0012216945178806782,0.00129805039614439,-0.00015271181473508477
1761370020270787000,3.154787109375,-0.0012216945178806782,0.00129805039614439,0.0005344913806766272
1761370020289399000,3.17339892578125,-0.0012216945178806782,0.0019088976550847292,0.0005344913806766272
1761370020308009700,3.192009765625,-0.0012216945178806782,0.0019088976550847292,-0.00015271181473508477
1761370020326621700,3.21062158203125,-0.0012216945178806782,0.0019088976550847292,-0.00015271181473508477
1761370020345232400,3.229232421875,-0.0012216945178806782,0.000687203137204051,0.0005344913806766272
1761370020363844400,3.24784423828125,-0.0012216945178806782,0.0019088976550847292,0.0005344913806766272
1761370020382455000,3.266455078125,0,0.0019088976550847292,-0.00015271181473508477
1761370020401067300,3.2850673828125,-0.0006108472589403391,0.00129805039614439,-0.0007635590736754239
1761370020419677700,3.303677734375,-0.0012216945178806782,0.0019088976550847292,-0.00015271181473508477
1761370020438290000,3.3222900390625,-0.0012216945178806782,0.0019088976550847292,0.0005344913806766272
1761370020456900400,3.340900390625,-0.0012216945178806782,0.00129805039614439,-0.00015271181473508477
1761370020475512600,3.3595126953125,-0.0006108472589403391,0.0019088976550847292,-0.00015271181473508477
1761370020494123000,3.378123046875,-0.0018325417768210173,0.0019088976550847292,-0.00015271181473508477
1761370020512735200,3.3967353515625,-0.0012216945178806782,0.0019088976550847292,0.0005344913806766272
1761370020531346000,3.415345947265625,0,0.0019088976550847292,-0.00015271181473508477
1761370020549958000,3.4339580078125,-0.0006108472589403391,0.00129805039614439,-0.00015271181473508477
1761370020568568600,3.452568603515625,-0.0012216945178806782,0.000687203137204051,0.0011453386396169662
1761370020587180500,3.4711806640625,-0.0012216945178806782,0.00129805039614439,-0.0007635590736754239
1761370020605791200,3.489791259765625,-0.0006108472589403391,0.0019088976550847292,-0.00015271181473508477
1761370020624403200,3.5084033203125,-0.0006108472589403391,0.00129805039614439,-0.00015271181473508477
1761370020643014000,3.527013916015625,-0.0006108472589403391,0.00129805039614439,-0.0007635590736754239
1761370020661625900,3.5456259765625,-0.0012216945178806782,0.00129805039614439,-0.0007635590736754239
1761370020680236500,3.564236572265625,-0.0012216945178806782,0.00129805039614439,0.0005344913806766272
1761370020698848500,3.5828486328125,-0.0006108472589403391,0.00129805039614439,-0.00015271181473508477
1761370020717459200,3.601459228515625,-0.0006108472589403391,0.00129805039614439,-0.00015271181473508477
1761370020736071200,3.6200712890625,-0.0006108472589403391,0.0019088976550847292,-0.00015271181473508477
1761370020754681900,3.638681884765625,-0.0006108472589403391,0.00129805039614439,0.0005344913806766272
1761370020773294000,3.657294189453125,-0.0006108472589403391,0.00129805039614439,-0.00015271181473508477
1761370020791904500,3.675904541015625,0,0.00129805039614439,-0.00015271181473508477
1761370020810516700,3.694516845703125,-0.0006108472589403391,0.0019088976550847292,-0.0007635590736754239
1761370020829127200,3.713127197265625,-0.0012216945178806782,0.00129805039614439,0.0005344913806766272
1761370020847739400,3.731739501953125,0,0.0025197449140250683,-0.00015271181473508477
1761370020866349800,3.750349853515625,-0.0012216945178806782,0.000687203137204051,0.0005344913806766272
1761370020884962000,3.768962158203125,-0.0006108472589403391,0.0019088976550847292,-0.00015271181473508477
1761370020903572500,3.787572509765625,-0.0018325417768210173,0.00129805039614439,0.0005344913806766272
1761370020922184700,3.806184814453125,-0.0012216945178806782,0.00129805039614439,-0.00015271181473508477
1761370020940795100,3.824795166015625,-0.0012216945178806782,0.0019088976550847292,-0.00015271181473508477
1761370020959407400,3.843407470703125,-0.0006108472589403391,0.0019088976550847292,-0.00015271181473508477
1761370020978018000,3.86201806640625,-0.0012216945178806782,0.0019088976550847292,-0.0007635590736754239
1761370020996630000,3.880630126953125,-0.0006108472589403391,0.00129805039614439,0.0005344913806766272
1761370021015240700,3.89924072265625,-0.0018325417768210173,0.0019088976550847292,-0.00015271181473508477
1761370021033852700,3.917852783203125,-0.0012216945178806782,0.0019088976550847292,-0.00015271181473508477
1761370021052463400,3.93646337890625,-0.0012216945178806782,0.000687203137204051,0.0005344913806766272
1761370021071075300,3.955075439453125,0,0.0019088976550847292,-0.0007635590736754239
1761370021089686000,3.97368603515625,-0.0012216945178806782,0.00129805039614439,-0.00015271181473508477
1761370021108298000,3.992298095703125,-0.0006108472589403391,0.00129805039614439,0.0005344913806766272
1761370021126908700,4.01090869140625,-0.0012216945178806782,0.00129805039614439,-0.00015271181473508477
1761370021145520600,4.029520751953125,-0.0006108472589403391,0.0019088976550847292,-0.00015271181473508477
1761370021164131300,4.04813134765625,-0.0012216945178806782,0.0025197449140250683,-0.0007635590736754239
1761370021182743300,4.066743408203125,-0.0018325417768210173,0.0019088976550847292,-0.0007635590736754239
1761370021201354000,4.08535400390625,-0.0018325417768210173,0.00129805039614439,-0.0007635590736754239
1761370021219966200,4.10396630859375,-0.0018325417768210173,0.0019088976550847292,-0.00015271181473508477
1761370021238576600,4.12257666015625,-0.0012216945178806782,0.0019088976550847292,-0.00015271181473508477
1761370021257188900,4.14118896484375,-0.0012216945178806782,0.00129805039614439,-0.00015271181473508477
1761370021275799300,4.15979931640625,-0.0006108472589403391,0.00129805039614439,0.0005344913806766272
1761370021294411500,4.17841162109375,-0.0006108472589403391,0.00129805039614439,-0.00015271181473508477
1761370021313022000,4.19702197265625,-0.0006108472589403391,0.0019088976550847292,0.0005344913806766272
1761370021331634200,4.21563427734375,-0.0012216945178806782,0.00129805039614439,-0.001374406274408102
1761370021350244600,4.23424462890625,-0.0012216945178806782,0.00129805039614439,-0.00015271181473508477
1761370021368856800,4.25285693359375,-0.0006108472589403391,0.0019088976550847292,0.0005344913806766272
1761370021387467300,4.27146728515625,-0.0006108472589403391,0.0019088976550847292,-0.00015271181473508477
1761370021406079500,4.29007958984375,-0.0012216945178806782,0.0019088976550847292,-0.00015271181473508477
1761370021424690000,4.30868994140625,-0.0012216945178806782,0.00129805039614439,0.0005344913806766272
1761370021443302100,4.32730224609375,-0.0012216945178806782,0.0019088976550847292,-0.001374406274408102
1761370021461912600,4.34591259765625,0,0.0019088976550847292,-0.0007635590736754239
1761370021480524800,4.36452490234375,-0.0012216945178806782,0.0019088976550847292,-0.00015271181473508477
1761370021499135200,4.38313525390625,-0.0006108472589403391,0.0019088976550847292,-0.0007635590736754239
1761370021517747500,4.40174755859375,-0.0012216945178806782,0.00129805039614439,0.0005344913806766272
1761370021536358000,4.42035791015625,-0.0018325417768210173,0.0019088976550847292,-0.00015271181473508477
1761370021554970000,4.43897021484375,-0.0006108472589403391,0.00129805039614439,0.0005344913806766272
1761370021573580500,4.45758056640625,0,0.0019088976550847292,-0.00015271181473508477
1761370021592192800,4.47619287109375,-0.0006108472589403391,0.0019088976550847292,-0.0007635590736754239
1761370021610803200,4.49480322265625,-0.0012216945178806782,0.00129805039614439,-0.00015271181473508477
1761370021629415400,4.51341552734375,-0.0006108472589403391,0.0019088976550847292,-0.00015271181473508477
1761370021648025900,4.53202587890625,-0.0012216945178806782,0.0019088976550847292,-0.00015271181473508477
1761370021666638000,4.55063818359375,-0.0006108472589403391,0.000687203137204051,-0.0007635590736754239
1761370021685248500,4.56924853515625,-0.0006108472589403391,0.0019088976550847292,-0.0007635590736754239
1761370021703860700,4.58786083984375,-0.0012216945178806782,0.0019088976550847292,-0.00015271181473508477
1761370021722471200,4.60647119140625,-0.0018325417768210173,0.0025197449140250683,-0.00015271181473508477
1761370021741083400,4.62508349609375,0,0.00129805039614439,-0.0007635590736754239
1761370021759694000,4.643694091796875,-0.0006108472589403391,0.0025197449140250683,-0.0007635590736754239
1761370021778306000,4.66230615234375,-0.0006108472589403391,0.0019088976550847292,-0.00015271181473508477
1761370021796916700,4.680916748046875,-0.0012216945178806782,0.0019088976550847292,-0.00015271181473508477
1761370021815528700,4.69952880859375,-0.0018325417768210173,0.000687203137204051,0.0005344913806766272
1761370021834139400,4.718139404296875,-0.0006108472589403391,0.00129805039614439,-0.0007635590736754239
1761370021852751400,4.73675146484375,-0.0018325417768210173,0.00129805039614439,-0.00015271181473508477
1761370021871362000,4.755362060546875,-0.0012216945178806782,0.00129805039614439,-0.00015271181473508477
1761370021889974000,4.77397412109375,-0.0012216945178806782,0.00129805039614439,-0.00015271181473508477
1761370021908584700,4.792584716796875,-0.0012216945178806782,0.0019088976550847292,-0.00015271181473508477
1761370021927196700,4.81119677734375,-0.0006108472589403391,0.0025197449140250683,-0.00015271181473508477
1761370021945807400,4.829807373046875,0,0.000687203137204051,-0.00015271181473508477
1761370021964419300,4.84841943359375,-0.0012216945178806782,0.0019088976550847292,0.0005344913806766272
1761370021983030000,4.867030029296875,-0.0006108472589403391,0.00129805039614439,-0.0007635590736754239
1761370022001642000,4.88564208984375,-0.0012216945178806782,0.0025197449140250683,0.0005344913806766272
1761370022020252700,4.904252685546875,-0.0006108472589403391,0.00129805039614439,-0.00015271181473508477
1761370022038864600,4.92286474609375,-0.0018325417768210173,0.0019088976550847292,-0.00015271181473508477
1761370022057475300,4.941475341796875,-0.0018325417768210173,0.0019088976550847292,-0.00015271181473508477
1761370022076087300,4.96008740234375,-0.0012216945178806782,0.00129805039614439,-0.00015271181473508477
1761370022094698000,4.978697998046875,-0.0018325417768210173,0.0019088976550847292,-0.00015271181473508477
1761370022113310000,4.99731005859375,-0.0012216945178806782,0.000687203137204051,-0.0007635590736754239
1761370022131920600,5.015920654296875,-0.0012216945178806782,0.00129805039614439,-0.0007635590736754239
1761370022150532600,5.03453271484375,-0.0012216945178806782,0.0019088976550847292,-0.00015271181473508477
1761370022169143300,5.053143310546875,-0.0006108472589403391,0.0019088976550847292,-0.00015271181473508477
1761370022187755500,5.071755615234375,-0.0006108472589403391,0.0019088976550847292,-0.00015271181473508477
1761370022206366000,5.090365966796875,-0.0012216945178806782,0.0019088976550847292,-0.0007635590736754239
1761370022224978200,5.108978271484375,-0.0012216945178806782,0.00129805039614439,-0.001374406274408102
1761370022243588600,5.127588623046875,-0.0012216945178806782,0.0019088976550847292,-0.00015271181473508477
1761370022262200800,5.146200927734375,-0.0006108472589403391,0.00129805039614439,0.0005344913806766272
1761370022280811300,5.164811279296875,-0.0012216945178806782,0.0019088976550847292,-0.00015271181473508477
1761370022299423500,5.183423583984375,-0.0006108472589403391,0.0019088976550847292,-0.00015271181473508477
1761370022318034000,5.202033935546875,-0.0006108472589403391,0.0019088976550847292,0.0005344913806766272
1761370022336646100,5.220646240234375,-0.0012216945178806782,0.00129805039614439,-0.00015271181473508477
1761370022355256600,5.239256591796875,0,0.00129805039614439,0.0005344913806766272
1761370022373868800,5.257868896484375,-0.0006108472589403391,0.0019088976550847292,-0.00015271181473508477
1761370022392479200,5.276479248046875,-0.0012216945178806782,0.00129805039614439,0.0005344913806766272
1761370022411091500,5.295091552734375,0,0.00129805039614439,-0.00015271181473508477
1761370022429702000,5.313701904296875,-0.0012216945178806782,0.0019088976550847292,-0.00015271181473508477
1761370022448314000,5.332314208984375,-0.0012216945178806782,0.000687203137204051,0.0005344913806766272
1761370022466924500,5.350924560546875,-0.0006108472589403391,0.0019088976550847292,-0.00015271181473508477
1761370022485536800,5.369536865234375,-0.0012216945178806782,0.00129805039614439,-0.00015271181473508477
1761370022504147200,5.388147216796875,-0.0006108472589403391,0.0019088976550847292,-0.00015271181473508477
1761370022522759400,5.406759521484375,-0.0012216945178806782,0.0025197449140250683,-0.00015271181473508477
1761370022541369900,5.425369873046875,-0.0006108472589403391,0.00129805039614439,0.0005344913806766272
1761370022559982000,5.443982177734375,-0.0006108472589403391,0.0019088976550847292,-0.00015271181473508477
1761370022578592500,5.462592529296875,-0.0018325417768210173,0.0019088976550847292,-0.0007635590736754239
1761370022597204700,5.481204833984375,-0.0012216945178806782,0.000687203137204051,0.0005344913806766272
1761370022615815200,5.499815185546875,-0.0012216945178806782,0.00129805039614439,-0.00015271181473508477
1761370022634427400,5.518427490234375,-0.0012216945178806782,0.0019088976550847292,-0.00015271181473508477
1761370022653037800,5.537037841796875,-0.0012216945178806782,0.0025197449140250683,0.0005344913806766272
1761370022671650000,5.555650146484375,0,0.00129805039614439,-0.0007635590736754239
1761370022690260500,5.574260498046875,-0.0012216945178806782,0.0019088976550847292,-0.00015271181473508477
1761370022708872700,5.592872802734375,-0.0012216945178806782,0.00129805039614439,-0.00015271181473508477
1761370022727483100,5.611483154296875,-0.0012216945178806782,0.0019088976550847292,-0.00015271181473508477
1761370022746095400,5.630095458984375,-0.0012216945178806782,0.0019088976550847292,-0.00015271181473508477
1761370022764705800,5.648705810546875,-0.0006108472589403391,0.0019088976550847292,-0.00015271181473508477
1761370022783318000,5.667318115234375,-0.0006108472589403391,0.00129805039614439,-0.00015271181473508477
1761370022801928400,5.685928466796875,-0.0006108472589403391,0.00129805039614439,-0.00015271181473508477
1761370022820540700,5.704540771484375,-0.0012216945178806782,0.0019088976550847292,0.0005344913806766272
1761370022839151400,5.7231513671875,-0.0006108472589403391,0.00129805039614439,-0.0007635590736754239
1761370022857763300,5.741763427734375,-0.0006108472589403391,0.000687203137204051,-0.00015271181473508477
1761370022876374000,5.7603740234375,-0.0012216945178806782,0.0019088976550847292,0.0005344913806766272
1761370022894986000,5.778986083984375,-0.0012216945178806782,0.0019088976550847292,-0.00015271181473508477
1761370022913596700,5.7975966796875,-0.0006108472589403391,0.0019088976550847292,-0.00015271181473508477
1761370022932208600,5.816208740234375,-0.0006108472589403391,0.0019088976550847292,-0.0007635590736754239
1761370022950819300,5.8348193359375,-0.0006108472589403391,0.0019088976550847292,-0.00015271181473508477
1761370022969431300,5.853431396484375,-0.0006108472589403391,0.00129805039614439,-0.00015271181473508477
1761370022988042000,5.8720419921875,-0.0012216945178806782,0.00129805039614439,-0.0007635590736754239
1761370023006654000,5.890654052734375,-0.0012216945178806782,0.0019088976550847292,0.0005344913806766272
1761370023025264600,5.9092646484375,-0.0012216945178806782,0.00129805039614439,-0.00015271181473508477
1761370023043876600,5.927876708984375,-0.0012216945178806782,0.00129805039614439,0.0005344913806766272
1761370023062487300,5.9464873046875,-0.0006108472589403391,0.00129805039614439,0.0005344913806766272
1761370023081099300,5.965099365234375,0,0.0025197449140250683,-0.001374406274408102
1761370023099710000,5.9837099609375,-0.0006108472589403391,0.00129805039614439,-0.00015271181473508477
1761370023118322000,6.002322021484375,-0.0012216945178806782,0.00129805039614439,-0.00015271181473508477
1761370023136932600,6.0209326171875,-0.0012216945178806782,0.0019088976550847292,-0.0007635590736754239
1761370023155544600,6.039544677734375,-0.0006108472589403391,0.00129805039614439,-0.00015271181473508477
1761370023174155300,6.0581552734375,-0.0012216945178806782,0.0019088976550847292,-0.00015271181473508477
1761370023192767200,6.076767333984375,-0.0006108472589403391,0.0019088976550847292,0.0005344913806766272
1761370023211378000,6.0953779296875,-0.0018325417768210173,0.00129805039614439,-0.00015271181473508477
1761370023229990000,6.113989990234375,-0.0006108472589403391,0.00129805039614439,-0.0007635590736754239
1761370023248600600,6.1326005859375,-0.0006108472589403391,0.00129805039614439,-0.00015271181473508477
1761370023267212500,6.151212646484375,-0.0006108472589403391,0.0019088976550847292,-0.00015271181473508477
1761370023285823200,6.1698232421875,-0.0006108472589403391,0.00129805039614439,-0.001374406274408102
1761370023304435200,6.188435302734375,-0.0006108472589403391,0.00129805039614439,-0.00015271181473508477
1761370023323046000,6.2070458984375,-0.0006108472589403391,0.0019088976550847292,0.0005344913806766272
1761370023341657900,6.225657958984375,-0.0006108472589403391,0.0019088976550847292,-0.00015271181473508477
1761370023360268500,6.2442685546875,0,0.0019088976550847292,-0.00015271181473508477
1761370023378880500,6.262880615234375,-0.0006108472589403391,0.0019088976550847292,-0.0007635590736754239
1761370023397491200,6.2814912109375,0,0.0019088976550847292,-0.00015271181473508477
1761370023416103200,6.300103271484375,0,0.0019088976550847292,0.0005344913806766272
1761370023434713900,6.3187138671875,-0.0006108472589403391,0.00129805039614439,0.0005344913806766272
1761370023453325800,6.337325927734375,0,0.000687203137204051,-0.00015271181473508477
1761370023471936500,6.3559365234375,-0.0006108472589403391,0.0019088976550847292,-0.0007635590736754239
1761370023490548500,6.374548583984375,-0.0006108472589403391,0.00129805039614439,-0.0007635590736754239
1761370023509159200,6.3931591796875,-0.0012216945178806782,0.00129805039614439,0.0005344913806766272
1761370023527771100,6.411771240234375,-0.0012216945178806782,0.0025197449140250683,-0.0007635590736754239
1761370023546381800,6.4303818359375,-0.0012216945178806782,0.00129805039614439,0.0005344913806766272
1761370023564993800,6.448993896484375,-0.0012216945178806782,0.0019088976550847292,-0.00015271181473508477
1761370023583604500,6.4676044921875,-0.0006108472589403391,0.0019088976550847292,-0.00015271181473508477
1761370023602216400,6.486216552734375,-0.0006108472589403391,0.0019088976550847292,-0.00015271181473508477
1761370023620827100,6.5048271484375,-0.0012216945178806782,0.0019088976550847292,-0.00015271181473508477
1761370023639439000,6.523439208984375,-0.0012216945178806782,0.0019088976550847292,-0.00015271181473508477
1761370023658049800,6.5420498046875,-0.0006108472589403391,0.000687203137204051,0.0005344913806766272
1761370023676661800,6.560661865234375,-0.0006108472589403391,0.00129805039614439,-0.00015271181473508477
1761370023695272400,6.5792724609375,-0.0006108472589403391,0.00129805039614439,0.0005344913806766272
1761370023713884400,6.597884521484375,-0.0006108472589403391,0.00129805039614439,0.0005344913806766272
1761370023732495000,6.6164951171875,0,0.00129805039614439,-0.0007635590736754239
1761370023751107000,6.635107177734375,-0.0012216945178806782,0.0019088976550847292,-0.00015271181473508477
1761370023769717800,6.6537177734375,-0.0006108472589403391,0.0019088976550847292,-0.00015271181473508477
1761370023788330000,6.672330078125,-0.0006108472589403391,0.0019088976550847292,-0.00015271181473508477
1761370023806940400,6.6909404296875,-0.0006108472589403391,0.0019088976550847292,-0.0007635590736754239
1761370023825552600,6.709552734375,-0.0006108472589403391,0.0025197449140250683,-0.00015271181473508477
1761370023844163000,6.7281630859375,-0.0006108472589403391,0.0019088976550847292,-0.00015271181473508477
1761370023862775300,6.746775390625,-0.0006108472589403391,0.00129805039614439,-0.00015271181473508477
1761370023881385700,6.7653857421875,-0.0012216945178806782,0.0019088976550847292,0.0005344913806766272
1761370023899998000,6.783998046875,0,0.0019088976550847292,-0.00015271181473508477
1761370023918608400,6.8026083984375,-0.0006108472589403391,0.000687203137204051,-0.00015271181473508477
1761370023937220600,6.821220703125,-0.0012216945178806782,0.00129805039614439,-0.00015271181473508477
1761370023955831000,6.8398310546875,-0.0006108472589403391,0.0019088976550847292,-0.00015271181473508477
1761370023974443300,6.858443359375,-0.0012216945178806782,0.000687203137204051,-0.00015271181473508477
1761370023993053700,6.8770537109375,-0.0006108472589403391,0.00129805039614439,-0.00015271181473508477
1761370024011666000,6.895666015625,0,0.000687203137204051,-0.00015271181473508477
1761370024030276400,6.9142763671875,-0.0012216945178806782,0.0019088976550847292,-0.0007635590736754239
1761370024048888600,6.932888671875,-0.0006108472589403391,0.00129805039614439,-0.0007635590736754239
1761370024067499000,6.9514990234375,-0.0006108472589403391,0.0019088976550847292,-0.00015271181473508477
1761370024086111200,6.970111328125,-0.0012216945178806782,0.0019088976550847292,0.0005344913806766272
1761370024104721700,6.9887216796875,-0.0006108472589403391,0.00129805039614439,0.0005344913806766272
1761370024123334000,7.007333984375,-0.0006108472589403391,0.00129805039614439,0.0005344913806766272
1761370024141944300,7.0259443359375,-0.0006108472589403391,0.0025197449140250683,0.0005344913806766272
1761370024160556500,7.044556640625,-0.0006108472589403391,0.0025197449140250683,-0.00015271181473508477
1761370024179167000,7.0631669921875,-0.0006108472589403391,0.00129805039614439,-0.00015271181473508477
1761370024197779200,7.081779296875,-0.0006108472589403391,0.00129805039614439,-0.0007635590736754239
1761370024216389600,7.1003896484375,-0.0006108472589403391,0.00129805039614439,-0.00015271181473508477
1761370024235001900,7.119001953125,-0.0012216945178806782,0.0019088976550847292,-0.00015271181473508477
1761370024253612300,7.1376123046875,-0.0012216945178806782,0.00129805039614439,-0.0007635590736754239
1761370024272224500,7.156224609375,-0.0012216945178806782,0.00129805039614439,-0.00015271181473508477
1761370024290835000,7.1748349609375,0.0006108472589403391,0.0019088976550847292,-0.0007635590736754239
1761370024309447200,7.193447265625,-0.0006108472589403391,0.00129805039614439,-0.00015271181473508477
1761370024328057600,7.2120576171875,-0.0006108472589403391,0.00129805039614439,-0.00015271181473508477
1761370024346669800,7.230669921875,-0.0012216945178806782,0.00129805039614439,-0.00015271181473508477
1761370024365280300,7.2492802734375,-0.0012216945178806782,0.0019088976550847292,-0.00015271181473508477
1761370024383892500,7.267892578125,-0.0006108472589403391,0.0019088976550847292,-0.00015271181473508477
1761370024402503000,7.2865029296875,-0.0012216945178806782,0.00129805039614439,-0.00015271181473508477
1761370024421115100,7.305115234375,-0.0006108472589403391,0.0019088976550847292,0.0005344913806766272
1761370024439725600,7.3237255859375,-0.0012216945178806782,0.0019088976550847292,-0.0007635590736754239
1761370024458337800,7.342337890625,0,0.00129805039614439,-0.00015271181473508477
1761370024476948200,7.3609482421875,-0.0012216945178806782,0.0019088976550847292,-0.00015271181473508477
1761370024495560400,7.379560546875,-0.0006108472589403391,0.0025197449140250683,-0.00015271181473508477
1761370024514171000,7.3981708984375,0,0.00129805039614439,-0.00015271181473508477
1761370024532783000,7.416783203125,-0.0006108472589403391,0.00129805039614439,-0.0007635590736754239
1761370024551393500,7.4353935546875,-0.0006108472589403391,0.0019088976550847292,-0.0007635590736754239
1761370024570005800,7.454005859375,-0.0012216945178806782,0.00129805039614439,-0.00015271181473508477
1761370024588616400,7.472616455078125,-0.0012216945178806782,0.00129805039614439,-0.00015271181473508477
1761370024607228400,7.491228515625,-0.0006108472589403391,0.0019088976550847292,-0.0007635590736754239
1761370024625839000,7.509839111328125,-0.0006108472589403391,0.00129805039614439,-0.00015271181473508477
1761370024644451000,7.528451171875,-0.0006108472589403391,0.00129805039614439,-0.00015271181473508477
1761370024663061800,7.547061767578125,-0.0012216945178806782,0.00129805039614439,-0.0007635590736754239
1761370024681673700,7.565673828125,-0.0012216945178806782,0.0019088976550847292,0.0005344913806766272
1761370024700284400,7.584284423828125,-0.0006108472589403391,0.0019088976550847292,0.0005344913806766272
1761370024718896400,7.602896484375,-0.0006108472589403391,0.0019088976550847292,-0.00015271181473508477
1761370024737507000,7.621507080078125,-0.0006108472589403391,0.0019088976550847292,-0.00015271181473508477
1761370024756119000,7.640119140625,-0.0018325417768210173,0.0019088976550847292,-0.00015271181473508477
1761370024774729700,7.658729736328125,-0.0012216945178806782,0.0019088976550847292,0.0005344913806766272
1761370024793341700,7.677341796875,-0.0006108472589403391,0.00129805039614439,0.0011453386396169662
1761370024811952400,7.695952392578125,-0.0012216945178806782,0.00129805039614439,0.0005344913806766272
1761370024830564400,7.714564453125,-0.0006108472589403391,0.0019088976550847292,-0.00015271181473508477
1761370024849175000,7.733175048828125,-0.0012216945178806782,0.00129805039614439,-0.00015271181473508477
1761370024867787000,7.751787109375,-0.0012216945178806782,0.00129805039614439,-0.00015271181473508477
1761370024886397700,7.770397705078125,-0.0006108472589403391,0.0019088976550847292,-0.00015271181473508477
1761370024905009700,7.789009765625,-0.0006108472589403391,0.0019088976550847292,-0.00015271181473508477
1761370024923620400,7.807620361328125,-0.0012216945178806782,0.0019088976550847292,-0.0007635590736754239
1761370024942232300,7.826232421875,-0.0006108472589403391,0.0019088976550847292,-0.0007635590736754239
1761370024960843000,7.844843017578125,-0.0012216945178806782,0.00129805039614439,-0.00015271181473508477
1761370024979455000,7.863455078125,-0.0012216945178806782,0.00129805039614439,-0.00015271181473508477
1761370024998065700,7.882065673828125,-0.0006108472589403391,0.00129805039614439,-0.00015271181473508477
1761370025016677600,7.900677734375,-0.0006108472589403391,0.0019088976550847292,-0.00015271181473508477
1761370025035288300,7.919288330078125,-0.0012216945178806782,0.0019088976550847292,-0.00015271181473508477
1761370025053900300,7.937900390625,-0.0012216945178806782,0.00129805039614439,-0.00015271181473508477
1761370025072511000,7.956510986328125,-0.0006108472589403391,0.0019088976550847292,-0.00015271181473508477
1761370025091123000,7.975123046875,-0.0006108472589403391,0.0019088976550847292,0.0005344913806766272
1761370025109733600,7.993733642578125,-0.0006108472589403391,0.0019088976550847292,-0.00015271181473508477
1761370025128345600,8.012345703125,-0.0006108472589403391,0.00129805039614439,-0.00015271181473508477
1761370025146956300,8.030956298828125,-0.0006108472589403391,0.000687203137204051,0.0005344913806766272
1761370025165568300,8.049568359375,-0.0006108472589403391,0.0019088976550847292,-0.00015271181473508477
1761370025184179000,8.068178955078125,-0.0006108472589403391,0.00129805039614439,-0.00015271181473508477
1761370025202791000,8.086791015625,-0.0006108472589403391,0.00129805039614439,0.0005344913806766272
1761370025221401600,8.105401611328125,-0.0006108472589403391,0.0019088976550847292,-0.00015271181473508477
1761370025240013600,8.124013671875,-0.0006108472589403391,0.00129805039614439,-0.00015271181473508477
1761370025258624300,8.142624267578125,-0.0012216945178806782,0.00129805039614439,-0.00015271181473508477
1761370025277236200,8.161236328125,-0.0006108472589403391,0.000687203137204051,-0.00015271181473508477
1761370025295847000,8.179846923828125,-0.0012216945178806782,0.00129805039614439,-0.0007635590736754239
1761370025314459000,8.198458984375,-0.0012216945178806782,0.00129805039614439,-0.00015271181473508477
1761370025333069600,8.217069580078125,-0.0006108472589403391,0.00129805039614439,0.0005344913806766272
1761370025351681500,8.235681640625,-0.0012216945178806782,0.00129805039614439,0.0011453386396169662
1761370025370292200,8.254292236328125,-0.0012216945178806782,0.0019088976550847292,-0.00015271181473508477
1761370025388904200,8.272904296875,-0.0006108472589403391,0.0019088976550847292,-0.00015271181473508477
1761370025407515000,8.291514892578125,-0.0006108472589403391,0.00129805039614439,-0.00015271181473508477
1761370025426126800,8.310126953125,-0.0006108472589403391,0.0019088976550847292,-0.00015271181473508477
1761370025444737500,8.328737548828125,-0.0006108472589403391,0.00129805039614439,-0.00015271181473508477
1761370025463349500,8.347349609375,-0.0006108472589403391,0.000687203137204051,0.0005344913806766272
1761370025481960200,8.365960205078125,-0.0006108472589403391,0.00129805039614439,0.0005344913806766272
1761370025500572200,8.384572265625,-0.0012216945178806782,0.00129805039614439,-0.0007635590736754239
1761370025519182800,8.403182861328125,-0.0012216945178806782,0.00129805039614439,-0.0007635590736754239
1761370025537794800,8.421794921875,-0.0006108472589403391,0.00129805039614439,-0.0007635590736754239
1761370025556405500,8.440405517578125,-0.0006108472589403391,0.00129805039614439,-0.00015271181473508477
1761370025575017500,8.459017578125,-0.0006108472589403391,0.0025197449140250683,-0.00015271181473508477
1761370025593628200,8.477628173828125,0,0.0019088976550847292,-0.00015271181473508477
1761370025612240100,8.496240234375,-0.0006108472589403391,0.00129805039614439,0.0005344913806766272
1761370025630850800,8.514850830078124,-0.0012216945178806782,0.0019088976550847292,-0.00015271181473508477
1761370025649462800,8.533462890625,0,0.00129805039614439,0.0005344913806766272
1761370025668073500,8.552073486328124,-0.0006108472589403391,0.0019088976550847292,-0.00015271181473508477
1761370025686685400,8.570685546875,-0.0012216945178806782,0.00129805039614439,-0.00015271181473508477
1761370025705296100,8.589296142578124,-0.0006108472589403391,0.00129805039614439,0.0005344913806766272
1761370025723908000,8.607908203125,-0.0006108472589403391,0.0019088976550847292,-0.0007635590736754239
1761370025742518800,8.626518798828124,0,0.0019088976550847292,-0.0007635590736754239
1761370025761130800,8.645130859375,-0.0006108472589403391,0.0019088976550847292,0.0005344913806766272
1761370025779741400,8.663741455078124,-0.0006108472589403391,0.0025197449140250683,-0.00015271181473508477
1761370025798353400,8.682353515625,-0.0006108472589403391,0.00129805039614439,-0.00015271181473508477
1761370025816964000,8.700964111328124,-0.0006108472589403391,0.00129805039614439,-0.00015271181473508477
1761370025835576000,8.719576171875,-0.0006108472589403391,0.0025197449140250683,-0.00015271181473508477
1761370025854186800,8.738186767578124,-0.0006108472589403391,0.00007635590736754239,0.0005344913806766272
1761370025872798700,8.756798828125,-0.0006108472589403391,0.00129805039614439,-0.00015271181473508477
1761370025891409400,8.775409423828124,-0.0006108472589403391,0.00129805039614439,-0.00015271181473508477
1761370025910021400,8.794021484375,-0.0006108472589403391,0.0019088976550847292,-0.00015271181473508477
1761370025928632000,8.812632080078124,-0.0012216945178806782,0.0019088976550847292,0.0005344913806766272
1761370025947244000,8.831244140625,-0.0006108472589403391,0.0019088976550847292,-0.00015271181473508477
1761370025965854700,8.849854736328124,0,0.00129805039614439,-0.0007635590736754239
1761370025984466700,8.868466796875,-0.0006108472589403391,0.0019088976550847292,-0.0007635590736754239
1761370026003077400,8.887077392578124,-0.0012216945178806782,0.00129805039614439,-0.0007635590736754239
1761370026021689300,8.905689453125,-0.0006108472589403391,0.0019088976550847292,-0.00015271181473508477
1761370026040300000,8.924300048828124,0,0.0025197449140250683,-0.00015271181473508477
1761370026058912000,8.942912109375,-0.0012216945178806782,0.0019088976550847292,-0.00015271181473508477
1761370026077522700,8.961522705078124,0.0006108472589403391,0.0019088976550847292,-0.0007635590736754239
1761370026096134700,8.980134765625,-0.0006108472589403391,0.00129805039614439,-0.0007635590736754239
1761370026114745300,8.998745361328124,-0.0012216945178806782,0.00129805039614439,0.0005344913806766272
1761370026133357300,9.017357421875,0,0.0019088976550847292,-0.00015271181473508477
1761370026151968000,9.035968017578124,-0.0012216945178806782,0.0019088976550847292,0.0005344913806766272
1761370026170580000,9.054580078125,-0.0006108472589403391,0.00129805039614439,-0.00015271181473508477
1761370026189190700,9.073190673828124,-0.0006108472589403391,0.0019088976550847292,-0.0007635590736754239
1761370026207802600,9.091802734375,0,0.0019088976550847292,-0.00015271181473508477
1761370026226413300,9.110413330078124,-0.0012216945178806782,0.000687203137204051,-0.00015271181473508477
1761370026245025300,9.129025390625,-0.0006108472589403391,0.00129805039614439,-0.0007635590736754239
1761370026263636000,9.147635986328124,-0.0012216945178806782,0.00129805039614439,0.0011453386396169662
1761370026282248000,9.166248046875,-0.0006108472589403391,0.000687203137204051,-0.00015271181473508477
1761370026300858600,9.184858642578124,-0.0006108472589403391,0.0025197449140250683,-0.0007635590736754239
1761370026319470600,9.203470703125,-0.0006108472589403391,0.00129805039614439,-0.00015271181473508477
1761370026338081300,9.222081298828124,-0.0012216945178806782,0.000687203137204051,-0.00015271181473508477
1761370026356693200,9.240693359375,-0.0012216945178806782,0.0025197449140250683,-0.00015271181473508477
1761370026375304000,9.259303955078124,-0.0018325417768210173,0.00129805039614439,-0.00015271181473508477
1761370026393916000,9.277916015625,-0.0012216945178806782,0.0019088976550847292,-0.0007635590736754239
1761370026412526600,9.296526611328124,-0.0006108472589403391,0.00129805039614439,0.0005344913806766272
1761370026431138600,9.315138671875,-0.0012216945178806782,0.00129805039614439,0.0005344913806766272
1761370026449749200,9.333749267578124,-0.0012216945178806782,0.0019088976550847292,-0.00015271181473508477
1761370026468361200,9.352361328125,-0.0006108472589403391,0.00129805039614439,-0.00015271181473508477
1761370026486972000,9.370971923828124,-0.0012216945178806782,0.00129805039614439,-0.0007635590736754239
1761370026505583900,9.389583984375,-0.0012216945178806782,0.00129805039614439,-0.00015271181473508477
1761370026524194600,9.408194580078124,0,0.0025197449140250683,-0.00015271181473508477
1761370026542806500,9.426806640625,0,0.00129805039614439,-0.00015271181473508477
1761370026561417200,9.445417236328124,-0.0012216945178806782,0.00129805039614439,-0.00015271181473508477
1761370026580029200,9.464029296875,-0.0006108472589403391,0.0019088976550847292,-0.00015271181473508477
1761370026598639900,9.482639892578124,-0.0006108472589403391,0.0019088976550847292,0.0011453386396169662
1761370026617251800,9.501251953125,-0.0006108472589403391,0.00129805039614439,-0.00015271181473508477
1761370026635862300,9.5198623046875,-0.0006108472589403391,0.00129805039614439,-0.00015271181473508477
1761370026654474500,9.538474609375,-0.0006108472589403391,0.00129805039614439,-0.00015271181473508477
1761370026673085000,9.5570849609375,-0.0006108472589403391,0.00129805039614439,0.0005344913806766272
1761370026691697200,9.575697265625,-0.0018325417768210173,0.00129805039614439,-0.00015271181473508477
1761370026710307600,9.5943076171875,-0.0012216945178806782,0.00129805039614439,0.0005344913806766272
1761370026738224600,9.622224609375,-0.0006108472589403391,0.0019088976550847292,-0.00015271181473508477
1761370026756836900,9.6408369140625,-0.0012216945178806782,0.00129805039614439,-0.00015271181473508477
1761370026775447300,9.659447265625,-0.0006108472589403391,0.0019088976550847292,0.0005344913806766272
1761370026794059500,9.6780595703125,0,0.00129805039614439,-0.0007635590736754239
1761370026812670000,9.696669921875,-0.0018325417768210173,0.00129805039614439,-0.00015271181473508477
1761370026831282200,9.7152822265625,-0.0006108472589403391,0.00129805039614439,0.0005344913806766272
1761370026849892600,9.733892578125,-0.0006108472589403391,0.0019088976550847292,-0.00015271181473508477
1761370026868504800,9.7525048828125,-0.0018325417768210173,0.00129805039614439,-0.00015271181473508477
1761370026887115300,9.771115234375,-0.0012216945178806782,0.0025197449140250683,0.0005344913806766272
1761370026905727500,9.7897275390625,-0.0012216945178806782,0.00129805039614439,-0.00015271181473508477
1761370026924338000,9.808337890625,-0.0012216945178806782,0.0019088976550847292,-0.00015271181473508477
1761370026942950100,9.8269501953125,-0.0006108472589403391,0.0019088976550847292,0.0005344913806766272
1761370026961560600,9.845560546875,-0.0006108472589403391,0.00129805039614439,0.0005344913806766272
1761370026980172800,9.8641728515625,-0.0012216945178806782,0.000687203137204051,-0.00015271181473508477
1761370026998783200,9.882783203125,-0.0012216945178806782,0.0019088976550847292,0.0005344913806766272
1761370027017395500,9.9013955078125,-0.0006108472589403391,0.0019088976550847292,-0.0007635590736754239
1761370027036006000,9.920005859375,-0.0006108472589403391,0.00129805039614439,0.0005344913806766272
1761370027054617900,9.938617919921874,-0.0006108472589403391,0.00129805039614439,-0.0007635590736754239
1761370027073228500,9.957228515625,-0.0012216945178806782,0.0025197449140250683,-0.00015271181473508477
1761370027091840500,9.975840576171874,-0.0012216945178806782,0.0019088976550847292,-0.00015271181473508477
1761370027110451200,9.994451171875,-0.0006108472589403391,0.0019088976550847292,0.0005344913806766272
1761370027129063200,10.013063232421874,-0.0012216945178806782,0.0019088976550847292,-0.00015271181473508477
1761370027147673900,10.031673828125,-0.0006108472589403391,0.00129805039614439,-0.00015271181473508477
1761370027166285800,10.050285888671874,-0.0012216945178806782,0.00129805039614439,-0.00015271181473508477
1761370027184896500,10.068896484375,-0.0006108472589403391,0.00129805039614439,0.0005344913806766272
1761370027203508500,10.087508544921874,-0.0012216945178806782,0.0019088976550847292,-0.00015271181473508477
1761370027222119200,10.106119140625,-0.0012216945178806782,0.0019088976550847292,-0.00015271181473508477
1761370027240731100,10.124731201171874,-0.0012216945178806782,0.0019088976550847292,0.0005344913806766272
1761370027259341800,10.143341796875,-0.0012216945178806782,0.00129805039614439,0.0005344913806766272
1761370027277953800,10.161953857421874,-0.0012216945178806782,0.00129805039614439,-0.00015271181473508477
1761370027296564500,10.180564453125,-0.0012216945178806782,0.0019088976550847292,-0.00015271181473508477
1761370027315176400,10.199176513671874,-0.0006108472589403391,0.0019088976550847292,-0.00015271181473508477
1761370027333787100,10.217787109375,-0.0012216945178806782,0.00129805039614439,-0.00015271181473508477
1761370027352399000,10.236399169921874,-0.0006108472589403391,0.0019088976550847292,-0.00015271181473508477
1761370027371009800,10.255009765625,-0.0012216945178806782,0.0019088976550847292,-0.0007635590736754239
1761370027389621800,10.273621826171874,-0.0006108472589403391,0.00129805039614439,0.0005344913806766272
1761370027408232400,10.292232421875,-0.0006108472589403391,0.00129805039614439,0.0011453386396169662
1761370027426844400,10.310844482421874,-0.0006108472589403391,0.00129805039614439,-0.00015271181473508477
1761370027445455000,10.329455078125,-0.0012216945178806782,0.00129805039614439,-0.00015271181473508477
1761370027464067000,10.348067138671874,-0.0012216945178806782,0.0019088976550847292,-0.0007635590736754239
1761370027482677500,10.366677490234375,-0.0012216945178806782,0.00129805039614439,-0.00015271181473508477
1761370027501289700,10.385289794921874,-0.0006108472589403391,0.00129805039614439,-0.0007635590736754239
1761370027519900200,10.403900146484375,-0.0006108472589403391,0.0019088976550847292,-0.00015271181473508477
1761370027538512400,10.422512451171874,-0.0006108472589403391,0.00129805039614439,-0.0007635590736754239
1761370027557122800,10.441122802734375,-0.0006108472589403391,0.0019088976550847292,-0.00015271181473508477
1761370027575735000,10.459735107421874,0,0.0019088976550847292,-0.00015271181473508477
1761370027594345500,10.478345458984375,-0.0006108472589403391,0.0019088976550847292,0.0005344913806766272
1761370027612957700,10.496957763671874,-0.0006108472589403391,0.0019088976550847292,-0.00015271181473508477
1761370027631568100,10.515568115234375,-0.0006108472589403391,0.00129805039614439,-0.00015271181473508477
1761370027650180400,10.534180419921874,-0.0018325417768210173,0.00129805039614439,-0.00015271181473508477
1761370027668790800,10.552790771484375,-0.0012216945178806782,0.00129805039614439,0.0005344913806766272
1761370027687403000,10.571403076171874,-0.0012216945178806782,0.000687203137204051,-0.00015271181473508477
1761370027706013400,10.590013427734375,-0.0012216945178806782,0.00129805039614439,0.0005344913806766272
1761370027724625700,10.608625732421874,-0.0006108472589403391,0.00129805039614439,-0.00015271181473508477
1761370027743236000,10.627236083984375,-0.0006108472589403391,0.00129805039614439,-0.00015271181473508477
1761370027761848300,10.645848388671874,-0.0006108472589403391,0.0019088976550847292,-0.00015271181473508477
1761370027780458800,10.664458740234375,-0.0006108472589403391,0.00129805039614439,-0.00015271181473508477
1761370027799071000,10.683071044921874,-0.0006108472589403391,0.000687203137204051,0.0005344913806766272
1761370027817681400,10.701681396484375,0,0.0019088976550847292,-0.0007635590736754239
1761370027836293600,10.720293701171874,-0.0006108472589403391,0.00129805039614439,-0.00015271181473508477
1761370027854904000,10.738904052734375,-0.0012216945178806782,0.00129805039614439,0.0005344913806766272
1761370027873516300,10.757516357421874,-0.0012216945178806782,0.0019088976550847292,0.0005344913806766272
1761370027892126700,10.776126708984375,-0.0018325417768210173,0.05199837312102318,0.0029778804164379835
1761370027910739000,10.794739013671874,-0.0018325417768210173,0.014736690558493137,0.0005344913806766272
1761370027929349400,10.813349365234375,-0.0012216945178806782,-0.043293800204992294,-0.0032069480512291193
1761370027947961600,10.831961669921874,-0.0006108472589403391,-0.00908635277301073,-0.001374406274408102
1761370027966572000,10.850572021484375,-0.0012216945178806782,0.0019088976550847292,-0.00015271181473508477
