time,seconds_elapsed,z,y,x
1761753308610996700,0.096996826171875,0,0,0
1761753308648657700,0.13465771484375,0.5667266845703125,-0.12063491344451904,0.13802410662174225
1761753308686318300,0.172318359375,-0.06758689880371094,0.016420722007751465,0.05653683468699455
1761753308723979300,0.209979248046875,-0.3895225524902344,0.08080697059631348,0.167397141456604
1761753308761640000,0.247639892578125,0.14511394500732422,-0.19156861305236816,0.4700795114040375
1761753308799300900,0.28530078125,-1.4889764785766602,-0.09799432754516602,0.46218207478523254
1761753308836961500,0.32296142578125,-1.5041141510009766,-0.2254781723022461,-0.23689624667167664
1761753308874622500,0.36062255859375,0.30272960662841797,-0.5297527313232422,-0.29432159662246704
1761753308912283100,0.398283203125,0.1767711639404297,-0.35505056381225586,-0.8860480785369873
1761753308949944000,0.435944091796875,1.0181379318237305,0.019718647003173828,-1.291619896888733
1761753308987604700,0.473604736328125,1.6748170852661133,0.9578157663345337,0.44810375571250916
1761753309025265700,0.511265625,0.847686767578125,0.7009881734848022,-0.5651191473007202
1761753309062926300,0.54892626953125,0.1574869155883789,0.2537113428115845,-0.34368860721588135
1761753309100587000,0.5865869140625,1.0527381896972656,-0.44433945417404175,1.0840001106262207
1761753309138248000,0.624248046875,1.7880840301513672,-1.0279057025909424,-0.1583394557237625
1761753309175908600,0.66190869140625,-0.6409158706665039,0.06831812858581543,0.7779809832572937
1761753309213569500,0.699569580078125,-0.1785430908203125,-0.12201189994812012,0.02115774154663086
1761753309251230200,0.737230224609375,-0.27622032165527344,-0.09083569049835205,0.3363341689109802
1761753309288891100,0.77489111328125,1.3156652450561523,-0.4023773670196533,2.3106942176818848
1761753309326551800,0.8125517578125,-1.546187400817871,-0.821452260017395,1.0198932886123657
1761753309364212700,0.850212646484375,-1.9828243255615234,0.02209925651550293,0.35780835151672363
1761753309401873400,0.887873291015625,-0.41634368896484375,-0.0966881513595581,0.7643114328384399
1761753309439534300,0.925534423828125,0.3706979751586914,0.24248063564300537,1.8290140628814697
1761753309477195000,0.963195068359375,-0.5161838531494141,0.1554861068725586,0.48451685905456543
1761753309514855700,1.000855712890625,-0.4458780288696289,0.7602730393409729,-0.21963417530059814
1761753309552516600,1.0385166015625,-1.8953208923339844,0.7812975645065308,0.2208726406097412
1761753309590177300,1.07617724609375,0.0012521743774414062,0.8979112505912781,1.1949398517608643
1761753309627838000,1.113837890625,-2.4159603118896484,-0.07515585422515869,0.025374174118041992
1761753309665499000,1.151498779296875,-0.7757186889648438,-1.6232545375823975,-1.2615761756896973
1761753309703159600,1.18915966796875,-1.9128947257995605,0.06381022930145264,-1.6528311967849731
1761753309740820500,1.226820556640625,6.55153751373291,0.0839005708694458,2.2972774505615234
1761753309778481200,1.264481201171875,16.657882690429688,-2.550347089767456,3.9474806785583496
1761753309816141800,1.302141845703125,9.017621040344238,-1.4042681455612183,5.982717514038086
1761753309853802800,1.339802734375,3.760202407836914,1.7118674516677856,1.7708349227905273
1761753309891463400,1.37746337890625,7.366445541381836,0.6024029850959778,-1.7501819133758545
1761753309929124400,1.415124267578125,-6.4821367263793945,3.10296630859375,-0.23337602615356445
1761753309966785000,1.452784912109375,-6.095363616943359,1.8452811241149902,-4.8975043296813965
1761753310004446000,1.490446044921875,-8.269047737121582,1.061816930770874,-5.565110683441162
1761753310042106600,1.528106689453125,-11.259276390075684,1.0497260093688965,-4.352041244506836
1761753310079767300,1.565767333984375,-9.405677795410156,-0.019736826419830322,-3.9247255325317383
1761753310117428200,1.60342822265625,-8.62763786315918,-1.0337400436401367,-2.8616580963134766
1761753310155089000,1.6410888671875,-7.647749900817871,-1.0459356307983398,-1.1286810636520386
1761753310192749800,1.678749755859375,-7.4613237380981445,-1.040544033050537,1.0620737075805664
1761753310230410500,1.716410400390625,4.327605247497559,-1.9907033443450928,0.33857953548431396
1761753310268071200,1.7540712890625,9.038200378417969,0.08385813236236572,3.6754143238067627
1761753310305732000,1.791732177734375,13.443524360656738,-1.823645830154419,1.7220042943954468
1761753310343392800,1.829392822265625,16.376331329345703,-0.5351189970970154,3.461534023284912
1761753310381053400,1.867053466796875,12.096153259277344,0.9131200909614563,4.288663864135742
1761753310418714400,1.90471435546875,5.299317359924316,0.5300270318984985,-1.6270599365234375
1761753310456375000,1.942375,-3.2748279571533203,2.594991683959961,-1.1467955112457275
1761753310494035700,1.98003564453125,-2.904824733734131,1.4585254192352295,-3.921109437942505
1761753310531696400,2.0176962890625,-8.42613697052002,1.0255568027496338,-3.3941924571990967
1761753310569357300,2.055357421875,-12.451421737670898,0.848900556564331,-3.604646682739258
1761753310607018000,2.09301806640625,-9.873869895935059,-0.3544531464576721,-3.4659030437469482
1761753310644679000,2.130678955078125,-7.538241386413574,-1.1549263000488281,-1.5227599143981934
1761753310682339600,2.168339599609375,-9.224793434143066,-1.3306457996368408,-1.1707472801208496
1761753310720000300,2.206000244140625,-8.107125282287598,-1.2477482557296753,-0.7688794136047363
1761753310757661200,2.2436611328125,-1.9964494705200195,0.02925872802734375,-1.3219516277313232
1761753310795321900,2.28132177734375,6.222855567932129,0.8257326483726501,-1.5012221336364746
1761753310832982500,2.318982421875,21.226165771484375,-0.907497227191925,3.12774395942688
1761753310870643500,2.3566435546875,25.144268035888672,-8.185431480407715,9.883173942565918
1761753310908304100,2.39430419921875,7.516030311584473,-4.673305988311768,5.3140950202941895
1761753310945964800,2.43196484375,4.240830421447754,-1.7960143089294434,1.3270002603530884
1761753310983625700,2.469625732421875,-0.14106464385986328,1.2988026142120361,0.3361424207687378
1761753311021286400,2.507286376953125,-3.93257999420166,1.8761515617370605,-2.1198360919952393
1761753311058947000,2.544947021484375,-8.574223518371582,1.2236721515655518,-1.2669317722320557
1761753311096607700,2.582607666015625,-12.396496772766113,1.5911884307861328,-1.3774783611297607
1761753311134268700,2.6202685546875,-11.777276992797852,0.6555676460266113,-1.1986594200134277
1761753311171929300,2.657929443359375,-10.001321792602539,0.1165655180811882,-0.8295144438743591
1761753311209590300,2.69559033203125,-8.450908660888672,-0.48051008582115173,-0.46272334456443787
1761753311247251000,2.7332509765625,-4.4096760749816895,-0.2261202037334442,-0.23820169270038605
1761753311284911600,2.77091162109375,5.160893440246582,-0.7015658617019653,-0.3057824969291687
1761753311322572500,2.808572509765625,7.86043643951416,-0.20381209254264832,0.33756598830223083
1761753311360233200,2.846233154296875,16.88623046875,-0.6822516322135925,2.370891571044922
1761753311397894000,2.883893798828125,18.712371826171875,-1.8355940580368042,5.328726291656494
1761753311435554600,2.921554443359375,11.76273250579834,-1.1339778900146484,1.5615923404693604
1761753311473215200,2.95921533203125,-1.0254545211791992,0.8926888108253479,-0.9279274940490723
1761753311510876200,2.996876220703125,-0.5793895721435547,1.5403627157211304,-3.302285671234131
1761753311548536800,3.034536865234375,-6.3263444900512695,0.867761492729187,-4.3798980712890625
1761753311586197800,3.07219775390625,-11.920806884765625,1.6056715250015259,-2.0529611110687256
1761753311623858400,3.1098583984375,-10.849794387817383,0.9965373277664185,-2.0554773807525635
1761753311661519000,3.14751904296875,-9.623353958129883,0.38968247175216675,-1.677516222000122
1761753311699179800,3.1851796875,-8.830881118774414,-0.08160948753356934,-1.4559624195098877
1761753311736840400,3.22284033203125,-6.467732906341553,-0.32348015904426575,-1.7090601921081543
1761753311774501400,3.26050146484375,-1.608438491821289,-0.5105448365211487,-0.976402997970581
1761753311812162000,3.298162109375,7.587278366088867,-1.7197544574737549,-0.28652533888816833
1761753311849823000,3.335822998046875,9.945669174194336,-1.237738847732544,2.279533624649048
1761753311887483600,3.373483642578125,15.2036771774292,0.3797847628593445,5.537998199462891
1761753311925144300,3.411144287109375,13.82924747467041,-0.6749857664108276,2.291625738143921
1761753311962805000,3.448804931640625,9.137894630432129,0.5492786765098572,2.332491397857666
1761753312000465700,3.486465576171875,1.3509397506713867,0.2632884979248047,0.3563404083251953
1761753312038126600,3.524126708984375,-0.2542839050292969,1.1389583349227905,-3.4989140033721924
1761753312075787300,3.561787353515625,-6.058296203613281,2.085432291030884,-0.6694605946540833
1761753312113448000,3.599447998046875,-12.868903160095215,1.19782555103302,-2.351306915283203
1761753312151108600,3.637108642578125,-12.485076904296875,0.5866572856903076,-1.3241180181503296
1761753312207599900,3.693599853515625,-10.45689582824707,-0.808621883392334,-1.1660019159317017
1761753312245260500,3.731260498046875,-8.542771339416504,-1.3007025718688965,-1.5505695343017578
1761753312282921200,3.768921142578125,-4.9372029304504395,-2.378347635269165,-2.7493650913238525
1761753312320582100,3.80658203125,2.583524703979492,-0.020780332386493683,0.6829162240028381
1761753312358242800,3.844242919921875,16.0135555267334,0.5919168591499329,1.8465046882629395
1761753312395903500,3.881903564453125,12.05428409576416,0.9722972512245178,4.686960220336914
1761753312433564200,3.919564208984375,13.979187965393066,-1.4533448219299316,1.4276587963104248
1761753312471224800,3.957224853515625,15.00451946258545,-1.568877935409546,0.07009351253509521
1761753312508885800,3.9948857421875,3.169954299926758,0.5213442444801331,0.053583741188049316
1761753312546546400,4.03254638671875,-3.0154824256896973,1.0112152099609375,0.6928364038467407
1761753312584207000,4.07020703125,-3.4591012001037598,0.2315216064453125,-2.012248992919922
1761753312621867800,4.10786767578125,-10.357877731323242,1.3052986860275269,-1.6651537418365479
1761753312659528700,4.14552880859375,-13.090116500854492,1.9941648244857788,-1.1071213483810425
1761753312697189400,4.183189453125,-12.045318603515625,1.2140581607818604,-1.2551312446594238
1761753312734850000,4.22085009765625,-9.719539642333984,0.31082087755203247,-1.8022321462631226
1761753312772510700,4.2585107421875,-8.021061897277832,-0.7121514081954956,-2.208087921142578
1761753312810171400,4.29617138671875,-4.710999488830566,-0.9157364368438721,-1.5701701641082764
1761753312847832300,4.333832275390625,5.297536849975586,-1.0095463991165161,0.3512299060821533
1761753312885493000,4.371492919921875,13.187912940979004,-1.7249048948287964,1.3925312757492065
1761753312923153700,4.409153564453125,15.524795532226562,-0.6303173303604126,3.7076430320739746
1761753312960814300,4.446814453125,14.923810005187988,-0.4738340973854065,3.3341550827026367
1761753312998475300,4.484475341796875,14.411025047302246,-0.13912096619606018,0.10822975635528564
1761753313036136000,4.522135986328125,1.1767034530639648,0.5022977590560913,-0.5567833185195923
1761753313073796600,4.559796630859375,-3.4309186935424805,0.5631852149963379,-1.773313283920288
1761753313111457300,4.597457275390625,-2.3263659477233887,-0.43990010023117065,-5.460338115692139
1761753313149118000,4.635117919921875,-11.86641788482666,0.5861080288887024,-2.393203020095825
1761753313186779000,4.67277880859375,-13.421597480773926,1.2408849000930786,-0.26993149518966675
1761753313224439300,4.710439208984375,-10.570294380187988,0.5008370876312256,0.10920703411102295
1761753313262100200,4.748100341796875,-8.785931587219238,-0.1135510578751564,-1.3968279361724854
1761753313299761000,4.785760986328125,-8.921323776245117,-0.7641549110412598,-1.297459602355957
1761753313337421600,4.823421630859375,-7.5866827964782715,-0.9406542181968689,0.4961976408958435
1761753313375082200,4.861082275390625,2.6776514053344727,-2.6395254135131836,1.5809805393218994
1761753313412743200,4.8987431640625,7.720653533935547,0.45421674847602844,3.7971982955932617
1761753313450403800,4.93640380859375,17.076385498046875,-1.3378713130950928,3.802143096923828
1761753313488064500,4.974064453125,23.182594299316406,-1.7834371328353882,0.3357046842575073
1761753313525725200,5.01172509765625,13.798531532287598,2.153149127960205,0.5569474697113037
1761753313563385900,5.0493857421875,4.865194320678711,2.986595630645752,0.5741661190986633
1761753313601046500,5.087046630859375,1.7851648330688477,0.4705057144165039,-5.621621608734131
1761753313638707500,5.12470751953125,-3.84075927734375,-0.3485035300254822,-2.37092924118042
1761753313676368100,5.1623681640625,-10.59304428100586,-0.6186696290969849,0.3662853538990021
1761753313714028800,5.20002880859375,-12.174631118774414,-0.7100215554237366,-0.3008287250995636
1761753313751689500,5.237689453125,-11.61837387084961,-0.7056164741516113,2.2745680809020996
1761753313789350100,5.27535009765625,-11.851552963256836,-0.4981321692466736,2.2236928939819336
1761753313827010800,5.3130107421875,-9.77346420288086,-1.5231719017028809,-1.8614060878753662
1761753313864671500,5.35067138671875,-9.154884338378906,-2.0996134281158447,-2.8905718326568604
1761753313902332400,5.38833251953125,-5.148308277130127,-1.8505222797393799,-0.8151549100875854
1761753313939993000,5.4259931640625,9.50587272644043,-2.286644458770752,0.07600140571594238
1761753313977653800,5.46365380859375,6.6829938888549805,1.1484832763671875,4.7528510093688965
1761753314015314400,5.501314453125,22.860877990722656,-0.13956564664840698,0.5733287334442139
1761753314052975000,5.53897509765625,22.33771514892578,-0.21267271041870117,-3.6646156311035156
1761753314090635800,5.5766357421875,9.22208023071289,1.9198486804962158,-1.8078725337982178
1761753314128296700,5.614296630859375,3.495272636413574,1.1089520454406738,0.5896888375282288
1761753314165957000,5.65195703125,2.826380729675293,1.9061810970306396,-0.5236350297927856
1761753314203618000,5.6896181640625,-10.10554313659668,1.1344964504241943,0.604885458946228
1761753314241278700,5.72727880859375,-14.222206115722656,0.15001651644706726,2.0950613021850586
1761753314278939400,5.764939453125,-15.331635475158691,0.1056976467370987,2.333951473236084
1761753314316600000,5.80260009765625,-11.668234825134277,-0.6015796065330505,1.3742492198944092
1761753314354260700,5.8402607421875,-8.462631225585938,-1.251985788345337,-0.19402486085891724
1761753314391921400,5.87792138671875,-9.74572467803955,-0.6985841393470764,-0.35806798934936523
1761753314429582300,5.915582275390625,-5.767063617706299,-0.35331326723098755,1.3444061279296875
1761753314467242800,5.95324267578125,6.94400691986084,-0.41210341453552246,0.5518829822540283
1761753314504903700,5.990903564453125,11.373190879821777,-0.13750602304935455,1.4908366203308105
1761753314542564400,6.028564453125,16.801128387451172,0.3112109303474426,2.381035089492798
1761753314580225000,6.06622509765625,19.773712158203125,-1.2459577322006226,2.4980735778808594
1761753314617885700,6.1038857421875,13.861446380615234,-0.2395898699760437,0.6605558395385742
1761753314655546400,6.14154638671875,3.0005741119384766,0.18265104293823242,-2.457388401031494
1761753314693207000,6.17920703125,-1.8934497833251953,0.27049732208251953,-2.9983532428741455
1761753314730867700,6.21686767578125,-5.520509719848633,0.20708608627319336,-2.3880574703216553
1761753314768528400,6.2545283203125,-10.788113594055176,0.5236732363700867,-2.192214250564575
1761753314806189000,6.29218896484375,-12.866565704345703,1.2304730415344238,0.18500056862831116
1761753314843849700,6.329849609375,-11.94550609588623,0.9062234163284302,0.4744437038898468
1761753314881510700,6.3675107421875,-9.563369750976562,-0.23460716009140015,-0.29333898425102234
1761753314919171000,6.405171142578125,-8.59309196472168,-0.9186947345733643,0.3813011944293976
1761753314956832000,6.44283203125,-6.009484767913818,-1.3644745349884033,0.4997445344924927
1761753314994492700,6.48049267578125,1.7199897766113281,-0.9626038074493408,-0.14899304509162903
1761753315032153300,6.5181533203125,8.381819725036621,-0.6017143726348877,-0.8744643926620483
1761753315069814000,6.55581396484375,13.38444709777832,1.4445281028747559,3.2655458450317383
1761753315107474700,6.593474609375,18.488445281982422,0.9309759736061096,5.98688268661499
1761753315145135400,6.63113525390625,22.45660400390625,-2.6393699645996094,-5.794760227203369
1761753315182796000,6.668796142578125,1.7172374725341797,1.1633700132369995,-0.5596321225166321
1761753315220456700,6.706456787109375,-1.8185997009277344,-0.2480025291442871,-2.062034845352173
1761753315258117400,6.744117431640625,-5.9609808921813965,-0.8173784017562866,-4.0836896896362305
1761753315295778000,6.781778076171875,-11.459589004516602,0.4056908190250397,0.1208239495754242
1761753315333438700,6.819438720703125,-13.750227928161621,1.1513001918792725,2.527918815612793
1761753315371099400,6.857099365234375,-10.748697280883789,-0.03187517821788788,0.20906394720077515
1761753315408760000,6.894760009765625,-11.00779914855957,-0.5468546748161316,-1.5466114282608032
1761753315446420700,6.932420654296875,-10.274621963500977,-0.7046905159950256,-1.1544076204299927
1761753315484081400,6.970081298828125,-5.491964817047119,-0.7391475439071655,-0.2453944981098175
1761753315521742000,7.0077421875,9.301910400390625,-0.6488174200057983,0.20102712512016296
1761753315559402800,7.04540283203125,15.223654747009277,-0.4184044301509857,2.033482551574707
1761753315597063400,7.0830634765625,12.884613990783691,-0.060943976044654846,4.836329936981201
1761753315634724000,7.12072412109375,14.933533668518066,-0.6445310115814209,3.7425599098205566
1761753315672384800,7.158384765625,12.707154273986816,-1.1552785634994507,-0.4854412078857422
1761753315710045400,7.19604541015625,4.309691429138184,-0.8232165575027466,-2.1286983489990234
1761753315747706000,7.2337060546875,-4.313626289367676,0.6914548873901367,0.4135134220123291
1761753315785367000,7.271366943359375,-3.0032153129577637,-0.44852110743522644,-3.393038749694824
1761753315823027500,7.30902734375,-9.37817096710205,0.2447892725467682,-2.1281652450561523
1761753315860688100,7.346688232421875,-12.946796417236328,0.42404162883758545,-0.2317999005317688
1761753315898348800,7.384348876953125,-11.681598663330078,-0.05822950601577759,-0.759768009185791
1761753315936009500,7.422009521484375,-9.864990234375,-0.5499206781387329,-1.5885539054870605
1761753315973670100,7.459670166015625,-8.7339448928833,-0.13782089948654175,-0.414157509803772
1761753316011330800,7.497330810546875,-6.056680202484131,0.15447503328323364,-0.8140131235122681
1761753316048991500,7.534991455078125,0.26331329345703125,1.0323971509933472,-2.361549139022827
1761753316086652200,7.572652099609375,13.745182991027832,-0.8454722166061401,0.35953009128570557
1761753316124312800,7.610312744140625,14.690537452697754,-2.6837172508239746,5.120640754699707
1761753316161973500,7.647973388671875,22.729812622070312,-2.8726422786712646,6.522148609161377
1761753316199634200,7.68563427734375,13.955978393554688,-2.0591187477111816,-0.32537031173706055
1761753316237294800,7.723294921875,-0.3397712707519531,-1.0293675661087036,-2.546295642852783
1761753316274955500,7.76095556640625,-3.6283435821533203,0.41142356395721436,0.11675596237182617
1761753316312616200,7.7986162109375,-4.421599388122559,2.201751708984375,-0.32463574409484863
1761753316350276900,7.83627685546875,-3.1377487182617188,1.4554882049560547,-1.4470469951629639
1761753316387937500,7.8739375,-5.425358772277832,0.6566999554634094,-2.4547741413116455
1761753316425598200,7.91159814453125,-8.300725936889648,0.5245162844657898,-2.8053150177001953
1761753316463259000,7.9492587890625,-9.245109558105469,-0.06430912017822266,-1.4967914819717407
1761753316500919600,7.98691943359375,-7.564816474914551,-0.5655773282051086,-0.7537294626235962
1761753316538580200,8.024580322265624,-6.309361457824707,-1.2331011295318604,-1.07877779006958
1761753316576241000,8.062240966796875,-4.3858642578125,-1.155000925064087,0.37526237964630127
1761753316613901600,8.099901611328125,0.34661197662353516,-1.036168098449707,0.3916047215461731
1761753316651562200,8.137562255859375,11.658846855163574,-2.72796630859375,-1.2792036533355713
1761753316689222700,8.17522265625,7.685013771057129,-0.5659310817718506,0.9206548929214478
1761753316726883600,8.212883544921874,12.32436752319336,0.16947060823440552,4.562933921813965
1761753316764544000,8.2505439453125,12.569137573242188,0.8024355173110962,1.0233603715896606
1761753316802204700,8.28820458984375,0.8008003234863281,2.404637575149536,2.1651668548583984
1761753316839865300,8.325865234375,-2.3804216384887695,1.7020020484924316,-3.2262187004089355
1761753316877526000,8.363526123046874,-1.2111692428588867,2.277421236038208,-1.9056936502456665
1761753316915186700,8.401186767578125,-4.413190841674805,1.7026225328445435,-1.9884140491485596
1761753316952847400,8.438847412109375,-9.060076713562012,1.3239120244979858,-2.3040084838867188
1761753316990508000,8.476508056640625,-8.626184463500977,0.4480646252632141,-2.386220932006836
1761753317028168700,8.514168701171876,-6.68831729888916,-0.16339588165283203,-2.3215153217315674
1761753317065829000,8.5518291015625,-2.7953577041625977,-1.0896766185760498,0.33450496196746826
1761753317103490000,8.589489990234375,0.45854663848876953,-0.8031136989593506,1.0179030895233154
1761753317141150500,8.627150390625,0.7869749069213867,-1.5718238353729248,1.7006068229675293
1761753317178811100,8.66481103515625,5.197483062744141,-1.7057266235351562,-0.5070502758026123
1761753317216471800,8.702471923828124,5.43094539642334,-0.8088133335113525,2.4040040969848633
