time,seconds_elapsed,z,y,x
1761311740815340300,0.19934033203125,0.10078980028629303,-0.006032116711139679,0.034131091088056564
1761311740833953300,0.217953369140625,0.1050657257437706,-0.052456509321928024,0.10071343928575516
1761311740852567800,0.23656787109375,0.062306419014930725,0.026342788711190224,0.24792763590812683
1761311740871180500,0.2551806640625,0.0036650835536420345,0.25174543261528015,0.40491536259651184
1761311740889795000,0.273795166015625,-0.02993151545524597,0.375747412443161,0.4495072364807129
1761311740908408000,0.292407958984375,-0.01832541823387146,0.21692712604999542,0.33650049567222595
1761311740927022300,0.311022216796875,-0.0006108472589403391,-0.0817771777510643,0.13675342500209808
1761311740945635300,0.32963525390625,0.03665083646774292,-0.32733777165412903,-0.05024218559265137
1761311740964249600,0.34824951171875,0.12216944992542267,-0.43179264664649963,-0.13514995574951172
1761311740982862600,0.366862548828125,0.21929416060447693,-0.3200076222419739,-0.1382041871547699
1761311741001477000,0.38547705078125,0.2644968628883362,-0.07505785673856735,-0.08139539510011673
1761311741020089900,0.40408984375,0.21746163070201874,0.06604786217212677,0.0011453386396169662
1761311741038704400,0.422704345703125,0.08490777015686035,0.07887565344572067,0.07872293889522552
1761311741057317400,0.4413173828125,-0.02993151545524597,0.04527905210852623,0.0946049690246582
1761311741075931600,0.459931640625,-0.07513421028852463,0.10514208674430847,0.03596363216638565
1761311741094544600,0.478544677734375,-0.047646086663007736,0.25479966402053833,-0.0331384651362896
1761311741113159200,0.4971591796875,-0.0024433890357613564,0.27862271666526794,-0.11804623156785965
1761311741131772000,0.51577197265625,0.021990500390529633,0.12407834827899933,-0.2304421216249466
1761311741150386400,0.534386474609375,0.04581354558467865,-0.11659546941518784,-0.34100547432899475
1761311741168999400,0.55299951171875,0.04825693368911743,-0.308401495218277,-0.4124746024608612
1761311741187613700,0.57161376953125,0.011606098152697086,-0.4232407808303833,-0.44790375232696533
1761311741206226700,0.590226806640625,-0.05619794875383377,-0.4629458785057068,-0.44546034932136536
1761311741224841000,0.608841064453125,-0.13682979345321655,-0.3468848764896393,-0.3568875193595886
1761311741243454000,0.627453857421875,-0.20585553348064423,-0.14164020121097565,-0.17363333702087402
1761311741262068500,0.646068359375,-0.2363978922367096,0.01901262067258358,0.02802261710166931
1761311741280681200,0.66468115234375,-0.2345653474330902,0.05016583204269409,0.15019206702709198
1761311741299295700,0.683295654296875,-0.2095206081867218,0.07093463838100433,0.1996707022190094
1761311741317908700,0.70190869140625,-0.16615045070648193,0.06055023521184921,0.19539476931095123
1761311741336523000,0.72052294921875,-0.1447708010673523,0.044668205082416534,0.1617981642484665
1761311741355136000,0.739135986328125,-0.13744063675403595,0.043446511030197144,0.11720632016658783
1761311741373750500,0.75775048828125,-0.12644538283348083,0.022066857665777206,0.06467345356941223
1761311741392363300,0.77636328125,-0.1172826737165451,0.00129805039614439,0.021914144977927208
1761311741410977800,0.794977783203125,-0.11972606182098389,-0.005421269219368696,-0.008704573847353458
1761311741429590800,0.8135908203125,-0.12033691257238388,0.028786176815629005,-0.05024218559265137
1761311741448205000,0.832205078125,-0.10201149433851242,0.10819631814956665,-0.08261708915233612
1761311741466818000,0.850818115234375,-0.10628741979598999,0.2596864402294159,-0.06734590977430344
1761311741485432600,0.8694326171875,-0.12461283802986145,0.3244362473487854,-0.05085303261876106
1761311741504045300,0.88804541015625,-0.12339114397764206,0.3219928741455078,-0.05329642444849014
1761311741522659800,0.906659912109375,-0.1044548824429512,0.33298811316490173,-0.03558185324072838
1761311741541272800,0.92527294921875,-0.08490777015686035,0.38124504685401917,0.006032116711139679
1761311741559887000,0.94388720703125,-0.0525328628718853,0.41117656230926514,0.03596363216638565
1761311741578500000,0.9625,-0.00916270911693573,0.4411080777645111,0.06345175951719284
1761311741597114600,0.981114501953125,0.061084724962711334,0.4710395932197571,0.09155073016881943
1761311741615727400,0.999727294921875,0.1301104724407196,0.5052470564842224,0.11842801421880722
1761311741634342000,1.018341796875,0.15393351018428802,0.5382328033447266,0.1465269923210144
1761311741652955000,1.036954833984375,0.18569757044315338,0.530902624130249,0.16424155235290527
1761311741671569200,1.055569091796875,0.22662433981895447,0.4398863911628723,0.18867544829845428
1761311741690182100,1.07418212890625,0.27854636311531067,0.2865637242794037,0.24304085969924927
1761311741708796400,1.09279638671875,0.3261924386024475,0.1662268042564392,0.3438306450843811
1761311741727409400,1.111409423828125,0.35795649886131287,0.10575293004512787,0.4898231327533722
1761311741746024000,1.13002392578125,0.34940463304519653,0.2309766262769699,0.6327614188194275
1761311741764637000,1.148636962890625,0.2870981991291046,0.39773792028427124,0.6077166795730591
1761311741783251200,1.167251220703125,0.22601348161697388,0.34520506858825684,0.334057092666626
1761311741801864200,1.1858642578125,0.18936264514923096,-0.07689040154218674,-0.149199441075325
1761311741820478500,1.204478515625,0.1716480851173401,-0.5643464922904968,-0.5835118293762207
1761311741839091500,1.223091552734375,0.10873081535100937,-0.782418966293335,-0.7301151752471924
1761311741857706000,1.2417060546875,0.08002099394798279,-0.8734351992607117,-0.6109999418258667
1761311741876318700,1.260318603515625,0.02993151545524597,-0.5582380294799805,-0.2292204350233078
1761311741894933200,1.278933349609375,-0.008551862090826035,0.044668205082416534,0.27297237515449524
1761311741913546200,1.297546142578125,0.04459185153245926,0.5809921026229858,0.6706339120864868
1761311741932160500,1.316160400390625,0.09834641218185425,0.7770740985870361,0.8318976163864136
1761311741950773500,1.3347734375,0.17775654792785645,0.7556943893432617,0.7811973094940186
1761311741969388000,1.353387939453125,0.26877278089523315,0.7318713665008545,0.5594597458839417
1761311741988000800,1.372000732421875,0.3555130958557129,0.632914125919342,0.18989713490009308
1761311742006615300,1.390615234375,0.4489727318286896,0.2871745824813843,-0.2982461750507355
1761311742025228300,1.409228271484375,0.46363306045532227,-0.3016822040081024,-0.8278507590293884
1761311742043842600,1.427842529296875,0.34940463304519653,-0.8123505115509033,-1.2273448705673218
1761311742062455600,1.44645556640625,0.13377554714679718,-0.9497911334037781,-1.3678396940231323
1761311742081070000,1.465070068359375,-0.12827792763710022,-0.6364265084266663,-1.2505570650100708
1761311742099682800,1.483682861328125,-0.3286358118057251,-0.035352785140275955,-0.9683456420898438
1761311742118297300,1.50229736328125,-0.3830012381076813,0.4710395932197571,-0.6323796510696411
1761311742136910300,1.520910400390625,-0.24311721324920654,0.5840463638305664,-0.34405970573425293
1761311742155524600,1.539524658203125,-0.047646086663007736,0.5247941613197327,-0.11682453751564026
1761311742174137600,1.5581376953125,0.11056335270404816,0.3928511440753937,0.035352785140275955
1761311742192752000,1.576752197265625,0.24067382514476776,0.24808034300804138,0.1074327602982521
1761311742211364900,1.59536474609375,0.34512871503829956,0.10636378079652786,0.09277242422103882
1761311742229979400,1.6139794921875,0.38788801431655884,-0.06406260281801224,0.0035887276753783226
1761311742248592100,1.632592041015625,0.33474430441856384,-0.17829103767871857,-0.11315945535898209
1761311742267206700,1.65120654296875,0.22051586210727692,-0.23571068048477173,-0.20600824058055878
1761311742285819600,1.669819580078125,0.13988402485847473,-0.2803025245666504,-0.23899398744106293
1761311742304434000,1.688433837890625,0.09345962852239609,-0.29496288299560547,-0.2157817929983139
1761311742323047000,1.707046875,0.08429691940546036,-0.23387815058231354,-0.13392825424671173
1761311742341661400,1.725661376953125,0.10934165865182877,-0.12026055157184601,-0.030695075169205666
1761311742360274200,1.744274169921875,0.14721418917179108,-0.031076854094862938,0.05856497958302498
1761311742378888700,1.762888671875,0.17225892841815948,-0.0017561858985573053,0.1465269923210144
1761311742397501700,1.781501708984375,0.16126367449760437,-0.017027366906404495,0.2925194799900055
1761311742416116000,1.800115966796875,0.11178504675626755,-0.04146125912666321,0.49226653575897217
1761311742434729000,1.81872900390625,0.07391251623630524,-0.09093988686800003,0.6113817691802979
1761311742453343500,1.837343505859375,0.06719319522380829,-0.14347274601459503,0.6462000608444214
1761311742471956200,1.855956298828125,0.11422843486070633,-0.1483595222234726,0.643756628036499
1761311742490570800,1.87457080078125,0.21990501880645752,-0.11231953650712967,0.6058841347694397
1761311742509183500,1.89318359375,0.284654825925827,-0.15813308954238892,0.5301390886306763
1761311742527798000,1.911798095703125,0.24678228795528412,-0.30901235342025757,0.46722179651260376
1761311742546411000,1.930410888671875,0.20157960057258606,-0.2912977933883667,0.41652145981788635
1761311742565025300,1.949025390625,0.2089097648859024,-0.33588963747024536,0.28335678577423096
1761311742583638300,1.96763818359375,0.21257483959197998,-0.6003865003585815,0.07627955079078674
1761311742602252800,1.986252685546875,0.1423274129629135,-0.7427139282226562,-0.08994726091623306
1761311742620865500,2.004865478515625,0.056808795779943466,-0.6535302400588989,-0.0850604772567749
1761311742639480000,2.02347998046875,0.023823043331503868,-0.4214082658290863,0.044515494257211685
1761311742658093000,2.042093017578125,0.0397050715982914,-0.08544225990772247,0.16301986575126648
1761311742676707300,2.060707275390625,0.09712471067905426,0.26579490303993225,0.2008923888206482
1761311742695320300,2.0793203125,0.17775654792785645,0.5681642889976501,0.18012358248233795
1761311742713934600,2.0979345703125,0.288930743932724,0.7856259346008301,0.12575818598270416
1761311742732547600,2.116547607421875,0.46302223205566406,0.841213047504425,-0.0032069480512291193
1761311742751162000,2.135162109375,0.6347466707229614,0.6946097016334534,-0.16630317270755768
1761311742769774800,2.15377490234375,0.6933879852294922,0.511966347694397,-0.3434488773345947
1761311742788389400,2.172389404296875,0.6823927164077759,0.41239824891090393,-0.5499152541160583
1761311742807002400,2.19100244140625,0.6805602312088013,0.30549997091293335,-0.7545490860939026
1761311742825616600,2.20961669921875,0.6597914099693298,0.24197186529636383,-0.8651124238967896
1761311742844229600,2.228229736328125,0.6121453046798706,0.34398335218429565,-0.8174663186073303
1761311742862844000,2.246843994140625,0.6042042970657349,0.6249731183052063,-0.6342121958732605
1761311742881457000,2.265456787109375,0.6634564995765686,0.9181798100471497,-0.44668206572532654
1761311742900071400,2.284071533203125,0.7532510161399841,1.0690590143203735,-0.3477247953414917
1761311742918684200,2.30268408203125,0.8570950627326965,0.9994224905967712,-0.3367295563220978
1761311742937298700,2.321298583984375,0.9743777513504028,0.771576464176178,-0.3568875193595886
1761311742955911400,2.339911376953125,1.058674693107605,0.5217399001121521,-0.35138988494873047
1761311742974526000,2.35852587890625,1.057452917098999,0.3806341886520386,-0.32573428750038147
1761311742993139000,2.377138916015625,0.9737668633460999,0.3653630316257477,-0.333064466714859
1761311743011753200,2.395753173828125,0.8796964287757874,0.40873315930366516,-0.40636613965034485
1761311743030366200,2.4143662109375,0.8076164126396179,0.4692070484161377,-0.520594596862793
1761311743048980700,2.432980712890625,0.7453100085258484,0.49913856387138367,-0.6158867478370667
1761311743067593500,2.451593505859375,0.7086591720581055,0.6005392074584961,-0.6323796510696411
1761311743086208000,2.4702080078125,0.6848361492156982,0.6781167984008789,-0.598783016204834
1761311743104821000,2.488821044921875,0.6762842535972595,0.7153785228729248,-0.5578562617301941
1761311743123435300,2.507435302734375,0.6487961411476135,0.7068266272544861,-0.5273138880729675
1761311743142048300,2.52604833984375,0.6133670210838318,0.7330930829048157,-0.49982577562332153
1761311743160662500,2.54466259765625,0.569309651851654,0.771576464176178,-0.4894413650035858
1761311743179275500,2.563275634765625,0.5094466209411621,0.7648571133613586,-0.5224271416664124
1761311743197890000,2.58189013671875,0.46851983666419983,0.7068266272544861,-0.6207735538482666
1761311743216502800,2.600502685546875,0.4874561131000519,0.5767161846160889,-0.7569924592971802
1761311743235117300,2.619117431640625,0.5473191738128662,0.3885752260684967,-0.8425110578536987
1761311743253730000,2.63772998046875,0.6378008723258972,0.24075017869472504,-0.8382351398468018
1761311743272344600,2.656344482421875,0.7184327244758606,0.21509459614753723,-0.73255854845047
1761311743290957600,2.67495751953125,0.8338828682899475,0.35436776280403137,-0.5285356044769287
1761311743309571800,2.69357177734375,0.9810970425605774,0.4832565486431122,-0.3110739588737488
1761311743328184800,2.712184814453125,1.0788326263427734,0.45210331678390503,-0.21211670339107513
1761311743346799000,2.730799072265625,1.0305756330490112,0.35558944940567017,-0.2670929729938507
1761311743365412000,2.749412109375,0.8375479578971863,0.10758547484874725,-0.35444411635398865
1761311743384026600,2.768026611328125,0.618253767490387,-0.10071343928575516,-0.3184041380882263
1761311743402639400,2.786639404296875,0.45019441843032837,-0.09949174523353577,-0.18035265803337097
1761311743421254000,2.80525390625,0.3921639323234558,0.09475768357515335,-0.001985253533348441
1761311743439866600,2.82386669921875,0.4343124032020569,0.34337252378463745,0.20639002323150635
1761311743458481200,2.842481201171875,0.5332696437835693,0.47470468282699585,0.4647783935070038
1761311743477094100,2.86109423828125,0.6249731183052063,0.5040253400802612,0.6969003677368164
1761311743495708400,2.87970849609375,0.6524612307548523,0.526626706123352,0.7659261226654053
1761311743514321400,2.8983212890625,0.645741879940033,0.5797703862190247,0.62543123960495
1761311743532936000,2.91693603515625,0.6585696935653687,0.6133670210838318,0.34871742129325867
1761311743551548700,2.935548583984375,0.6591805219650269,0.5553365349769592,0.010308047756552696
1761311743570163200,2.9541630859375,0.6243622303009033,0.38002336025238037,-0.35261157155036926
1761311743588776000,2.97277587890625,0.5577035546302795,0.16011834144592285,-0.6659762263298035
1761311743607390500,2.991390380859375,0.46241137385368347,0.12224581092596054,-0.8370134830474854
1761311743626003200,3.010003173828125,0.3261924386024475,0.24136102199554443,-0.8822161555290222
1761311743644617700,3.02861767578125,0.16798299551010132,0.40690064430236816,-0.8425110578536987
1761311743663230700,3.047230712890625,0.07574506103992462,0.5229616165161133,-0.7850914597511292
1761311743681845000,3.065844970703125,0.09345962852239609,0.6225296854972839,-0.7075138092041016
1761311743700458000,3.0844580078125,0.1844758689403534,0.6359683275222778,-0.594507098197937
1761311743719072300,3.103072265625,0.32252734899520874,0.4698179066181183,-0.46012070775032043
1761311743737685200,3.121685302734375,0.4611896872520447,0.21387289464473724,-0.27442312240600586
1761311743756299800,3.1402998046875,0.546097457408905,-0.009697199799120426,-0.025808297097682953
1761311743774912500,3.15891259765625,0.5363239049911499,-0.11537377536296844,0.2149418741464615
1761311743793527000,3.177527099609375,0.44958359003067017,-0.20394663512706757,0.3474957346916199
1761311743812140000,3.19614013671875,0.34573954343795776,-0.2540360987186432,0.37620556354522705
1761311743830754300,3.21475439453125,0.24433889985084534,-0.22349373996257782,0.36337774991989136
1761311743849367300,3.2333671875,0.15943112969398499,-0.10193513333797455,0.3713187873363495
1761311743867981600,3.251981689453125,0.11117420345544815,0.0025197449140250683,0.37803810834884644
1761311743886594600,3.270594482421875,0.11117420345544815,0.08192989230155945,0.34932827949523926
1761311743905208800,3.289208740234375,0.13927318155765533,0.062993623316288,0.29496288299560547
1761311743923821800,3.30782177734375,0.1563768982887268,0.0067956759594380856,0.2375432252883911
1761311743942436400,3.326436279296875,0.1447708010673523,-0.04512634128332138,0.17157171666622162
1761311743961049000,3.345049072265625,0.13866232335567474,-0.08544225990772247,0.0958266630768776
1761311743979663600,3.36366357421875,0.13744063675403595,-0.11598462611436844,0.05184566229581833
1761311743998276400,3.3822763671875,0.129499614238739,-0.020692450925707817,0.11598462611436844
1761311744016891000,3.400890869140625,0.10201149433851242,0.09109259396791458,0.255257785320282
1761311744035503900,3.41950390625,0.04031591862440109,0.08070819079875946,0.36459946632385254
1761311744054118100,3.4381181640625,-0.0012216945178806782,-0.15141376852989197,0.3328354060649872
1761311744072731100,3.456731201171875,-0.026877280324697495,-0.4488963782787323,0.1880646049976349
1761311744091345400,3.475345458984375,-0.10628741979598999,-0.6852942705154419,-0.04718795046210289
1761311744109958400,3.49395849609375,-0.18630841374397278,-0.773867130279541,-0.3226800560951233
1761311744128572700,3.51257275390625,-0.21562908589839935,-0.6578061580657959,-0.5095993280410767
1761311744147185700,3.531185546875,-0.21318569779396057,-0.36521029472351074,-0.5267030596733093
1761311744165800200,3.54980029296875,-0.1850867122411728,0.026342788711190224,-0.32695600390434265
1761311744184413000,3.568412841796875,-0.16248537600040436,0.3012240529060364,0.009697199799120426
1761311744203027500,3.58702734375,-0.11667182296514511,0.44965994358062744,0.3719296157360077
1761311744221640200,3.60564013671875,-0.024433890357613564,0.4429406225681305,0.6474217176437378
1761311744240254700,3.624254638671875,0.0794101431965828,0.25357797741889954,0.7848623991012573
1761311744258867700,3.64286767578125,0.1557660549879074,0.018401773646473885,0.7873057723045349
1761311744277482000,3.66148193359375,0.16859383881092072,-0.1727934181690216,0.6431457996368408
1761311744296095000,3.680094970703125,0.12339114397764206,-0.31145575642585754,0.39330926537513733
1761311744314709200,3.698709228515625,0.04337015375494957,-0.33955472707748413,0.11537377536296844
1761311744333322200,3.717322265625,-0.04153761267662048,-0.22227205336093903,-0.09116895496845245
1761311744351936800,3.735936767578125,-0.11667182296514511,0.012904148548841476,-0.17241163551807404
1761311744370549500,3.754549560546875,-0.1313321590423584,0.28961795568466187,-0.13514995574951172
1761311744389164000,3.7731640625,-0.05619794875383377,0.4954734742641449,-0.04352286830544472
1761311744407776800,3.79177685546875,0.07391251623630524,0.45210331678390503,0.019470756873488426
1761311744426391300,3.810391357421875,0.18019993603229523,0.28839626908302307,0.054899897426366806
1761311744445004000,3.829004150390625,0.2504473626613617,0.0758214145898819,0.07261446863412857
1761311744463618600,3.84761865234375,0.312142938375473,-0.05856497958302498,0.07933378964662552
1761311744482231600,3.8662314453125,0.367730051279068,-0.061619218438863754,0.0561215914785862
1761311744500845800,3.884845703125,0.36162158846855164,-0.0005344913806766272,0.008475505746901035
1761311744519458800,3.903458740234375,0.3115321099758148,0.07154548168182373,-0.0459662564098835
1761311744538073000,3.922072998046875,0.2473931461572647,0.17538951337337494,-0.07345438003540039
1761311744556686000,3.94068603515625,0.1850867122411728,0.2731250822544098,-0.07711946964263916
1761311744575300600,3.959300537109375,0.14782503247261047,0.3085542321205139,-0.07528692483901978
1761311744593913300,3.977913330078125,0.1325538605451584,0.3256579339504242,-0.055739812552928925
1761311744612527900,3.99652783203125,0.1563768982887268,0.3397074341773987,-0.02641914412379265
1761311744631140600,4.015140625,0.17775654792785645,0.3494809865951538,0.019470756873488426
1761311744649755100,4.033755126953125,0.1704263836145401,0.35620030760765076,0.09338327497243881
1761311744668368100,4.0523681640625,0.14721418917179108,0.2871745824813843,0.15202461183071136
1761311744686982400,4.070982421875,0.1172826737165451,0.1949366331100464,0.1465269923210144
1761311744705595400,4.089595458984375,0.08185353130102158,0.13507360219955444,0.07994463294744492
1761311744724209700,4.108209716796875,0.04581354558467865,0.17172443866729736,0.004199574701488018
1761311744742822700,4.12682275390625,0.014049487188458443,0.28106608986854553,-0.028251685202121735
1761311744761437000,4.14543701171875,0.009773556143045425,0.405678927898407,0.010918894782662392
1761311744780050000,4.1640498046875,0.03298575058579445,0.4802022874355316,0.07933378964662552
1761311744798664200,4.182664306640625,0.07207997888326645,0.40812233090400696,0.12820157408714294
1761311744817277200,4.201277099609375,0.11361759155988693,0.2712925374507904,0.15507884323596954
1761311744835891700,4.2198916015625,0.12155860662460327,0.1289651244878769,0.1471378356218338
1761311744854504400,4.23850439453125,0.04214845970273018,-0.16973918676376343,0.06284090876579285
1761311744873119000,4.257118896484375,-0.08368607610464096,-0.3817031681537628,-0.0850604772567749
1761311744891732000,4.27573193359375,-0.17286977171897888,-0.22960221767425537,-0.1895153671503067
1761311744910346200,4.29434619140625,-0.1979145109653473,0.18699561059474945,-0.13148486614227295
1761311744928959200,4.312959228515625,-0.14171656966209412,0.6561263203620911,0.10010259598493576
1761311744947573500,4.331573486328125,-0.062306419014930725,0.7294279932975769,0.33588963747024536
1761311744966186500,4.3501865234375,0.01832541823387146,0.47531551122665405,0.48249298334121704
1761311744984800800,4.36880078125,0.08185353130102158,0.05444176122546196,0.5075377225875854
1761311745003413800,4.387413818359375,0.12644538283348083,-0.23143476247787476,0.4513397812843323
1761311745022028000,4.406028076171875,0.13927318155765533,-0.2796916961669922,0.32367268204689026
1761311745040641000,4.42464111328125,0.15454435348510742,-0.17096087336540222,0.13980767130851746
1761311745059255600,4.443255615234375,0.18814095854759216,-0.09338327497243881,-0.07711946964263916
1761311745077868300,4.461868408203125,0.19974705576896667,-0.1477486789226532,-0.2689255177974701
1761311745096482800,4.48048291015625,0.17714570462703705,-0.2680855989456177,-0.36910444498062134
1761311745115095800,4.499095703125,0.15332266688346863,-0.36276692152023315,-0.3843756318092346
1761311745133710000,4.5177099609375,0.13805148005485535,-0.34810659289360046,-0.335507869720459
1761311745152323000,4.536322998046875,0.13621893525123596,-0.23571068048477173,-0.21150586009025574
1761311745170937300,4.554937255859375,0.1056765764951706,-0.0695602297782898,-0.06673506647348404
1761311745189550300,4.57355029296875,0.038483377546072006,0.031229566782712936,0.03229855000972748
1761311745208164600,4.59216455078125,-0.009773556143045425,0.0361163429915905,0.052456509321928024
1761311745226777600,4.610777587890625,-0.04031591862440109,-0.05184566229581833,0.03168770298361778
1761311745245392100,4.62939208984375,-0.07452336698770523,-0.13125580549240112,-0.01847812905907631
1761311745264004900,4.6480048828125,-0.0794101431965828,-0.15691138803958893,-0.08689302206039429
1761311745282619400,4.666619384765625,-0.0653606578707695,-0.12636902928352356,-0.1369825005531311
1761311745301232000,4.685232177734375,-0.031153209507465363,-0.05062396824359894,-0.14064757525920868
1761311745319846700,4.7038466796875,-0.008551862090826035,0.03061871975660324,-0.13148486614227295
1761311745338459600,4.722459716796875,-0.034818295389413834,-0.021914144977927208,-0.11010521650314331
1761311745357074000,4.741073974609375,-0.09651386737823486,-0.0817771777510643,-0.04352286830544472
1761311745375687000,4.75968701171875,-0.1954711228609085,-0.11354123055934906,0.013362283818423748
1761311745394301200,4.77830126953125,-0.2870981991291046,-0.11659546941518784,0.028633465990424156
1761311745412914200,4.7969140625,-0.3158080279827118,0.022677704691886902,0.05184566229581833
1761311745431528700,4.81552880859375,-0.2919849753379822,0.2627406716346741,0.13247749209403992
1761311745450141400,4.834141357421875,-0.25411245226860046,0.2602972984313965,0.19478392601013184
1761311745468756000,4.852755859375,-0.22479179501533508,0.05138752609491348,0.19417306780815125
1761311745487369000,4.871368896484375,-0.2376195788383484,-0.23509983718395233,0.13675342500209808
1761311745505983200,4.889983154296875,-0.3139754831790924,-0.5203655362129211,0.019470756873488426
1761311745524596200,4.90859619140625,-0.4367557764053345,-0.7207233905792236,-0.12232216447591782
1761311745543210500,4.92721044921875,-0.5509842038154602,-0.7537091374397278,-0.2664821147918701
1761311745561823500,4.945823486328125,-0.6267293095588684,-0.5368583798408508,-0.3758237659931183
1761311745580437800,4.964437744140625,-0.6731536984443665,-0.10010259598493576,-0.3703261613845825
1761311745599050800,4.98305078125,-0.6584933400154114,0.27801185846328735,-0.2286095917224884
1761311745617665300,5.001665283203125,-0.5607577562332153,0.2731250822544098,-0.028251685202121735
1761311745636278000,5.020278076171875,-0.4294256269931793,0.1283542811870575,0.20394663512706757
1761311745654892500,5.038892578125,-0.29626092314720154,-0.08605311065912247,0.3865899443626404
1761311745673505300,5.05750537109375,-0.183865025639534,-0.30901235342025757,0.42996010184288025
1761311745692119800,5.076119873046875,-0.13621893525123596,-0.5215871930122375,0.29984965920448303
1761311745710732800,5.09473291015625,-0.16248537600040436,-0.671855628490448,0.03962871432304382
1761311745729347000,5.11334716796875,-0.2761029601097107,-0.6706339120864868,-0.23105297982692719
1761311745747960000,5.1319599609375,-0.4416425824165344,-0.4605024755001068,-0.38009971380233765
1761311745766574300,5.15057421875,-0.5876350402832031,-0.06039752438664436,-0.3727695345878601
1761311745785187300,5.169187255859375,-0.6224533319473267,0.26701661944389343,-0.23960483074188232
1761311745803801900,5.1878017578125,-0.5680879354476929,0.31527355313301086,-0.08078455179929733
1761311745822414800,5.206414794921875,-0.46424391865730286,0.19066070020198822,0.05428905040025711
1761311745841029000,5.225029052734375,-0.3689517378807068,0.06421531736850739,0.14530529081821442
1761311745859642000,5.24364208984375,-0.33352261781692505,-0.06223006546497345,0.15080291032791138
1761311745878256400,5.26225634765625,-0.3506263196468353,-0.19295138120651245,0.07261446863412857
1761311745896869400,5.280869384765625,-0.41293275356292725,-0.2803025245666504,-0.023975754156708717
1761311745915484000,5.29948388671875,-0.49417543411254883,-0.280913382768631,-0.09972081333398819
1761311745934096600,5.3180966796875,-0.5589252710342407,-0.22227205336093903,-0.12965233623981476
1761311745952711200,5.336711181640625,-0.5967977643013,-0.16301986575126648,-0.08383878320455551
1761311745971324200,5.35532421875,-0.6322268843650818,-0.10437852889299393,0.052456509321928024
1761311745989938400,5.3739384765625,-0.6615476012229919,-0.08727480471134186,0.18989713490009308
1761311746008551400,5.392551513671875,-0.6639909744262695,-0.12759071588516235,0.28335678577423096
1761311746027165700,5.411165771484375,-0.6591041684150696,-0.17035003006458282,0.32122930884361267
1761311746045778700,5.42977880859375,-0.633448600769043,-0.1465269923210144,0.30046048760414124
1761311746064393200,5.448393310546875,-0.5577035546302795,-0.10193513333797455,0.19417306780815125
1761311746083006000,5.467005859375,-0.44042086601257324,-0.10926530510187149,0.04879142343997955
1761311746101620500,5.485620361328125,-0.32008397579193115,-0.05734328553080559,-0.01725643500685692
1761311746120233500,5.5042333984375,-0.22723518311977386,0.10880716890096664,0.06039752438664436
1761311746138847700,5.52284765625,-0.15943112969398499,0.2975589632987976,0.2625879645347595
1761311746157460700,5.541460693359375,-0.07452336698770523,0.3146626949310303,0.47149771451950073
1761311746176075300,5.5600751953125,-0.021379653364419937,0.06421531736850739,0.5472427606582642
1761311746194688000,5.57868798828125,0.01954711228609085,-0.11109784245491028,0.5276956558227539
1761311746213302500,5.597302490234375,-0.012216945178806782,-0.226547971367836,0.4391228258609772
1761311746231915500,5.61591552734375,-0.07696675509214401,-0.3279486298561096,0.31328830122947693
1761311746250529800,5.63452978515625,-0.16370706260204315,-0.28518930077552795,0.2259371280670166
1761311746269142800,5.653142822265625,-0.2522799074649811,-0.007253811229020357,0.2680855989456177
1761311746287757000,5.671757080078125,-0.2895416021347046,0.3598653972148895,0.45256146788597107
1761311746306370000,5.6903701171875,-0.25289076566696167,0.5614449977874756,0.6822400093078613
1761311746324984600,5.708984619140625,-0.17714570462703705,0.4404972195625305,0.8044095039367676
1761311746343597600,5.72759765625,-0.08307522535324097,0.11613733321428299,0.769591212272644
1761311746362211800,5.7462119140625,-0.0036650835536420345,-0.20211409032344818,0.597943127155304
1761311746380824800,5.764824951171875,0.05497625470161438,-0.45378315448760986,0.32489439845085144
1761311746399439400,5.783439453125,0.04153761267662048,-0.643756628036499,0.05428905040025711
1761311746418052000,5.802052001953125,-0.05803048983216286,-0.7427139282226562,-0.13453911244869232
1761311746436666600,5.82066650390625,-0.2651077210903168,-0.6932352781295776,-0.25060009956359863
1761311746455279600,5.839279541015625,-0.5375455617904663,-0.4721085727214813,-0.3061871826648712
1761311746473894000,5.857893798828125,-0.7605048418045044,-0.17706935107707977,-0.3202366828918457
1761311746492507000,5.8765068359375,-0.8191461563110352,0.027564482763409615,-0.29885703325271606
1761311746511121400,5.895121337890625,-0.7366818189620972,0.09903360903263092,-0.23777230083942413
1761311746529734100,5.913734130859375,-0.6175665855407715,0.0892600566148758,-0.1375933438539505
1761311746548348700,5.9323486328125,-0.5497625470161438,-0.035352785140275955,-0.028251685202121735
1761311746566961700,5.950961669921875,-0.5515950918197632,-0.21005509793758392,0.04756972938776016
1761311746585576200,5.969576171875,-0.5992411375045776,-0.33650049567222595,0.061619218438863754
1761311746604189000,5.98818896484375,-0.6700994372367859,-0.37315133213996887,-0.00259610079228878
1761311746622803500,6.006803466796875,-0.7085828185081482,-0.26930728554725647,-0.10033166408538818
1761311746641416400,6.02541650390625,-0.6859814524650574,-0.20333577692508698,-0.2304421216249466
1761311746660030700,6.04403076171875,-0.6371136903762817,-0.2271588295698166,-0.3709369897842407
1761311746678643700,6.062643798828125,-0.5851916670799255,-0.2613662779331207,-0.45706647634506226
1761311746697258200,6.08125830078125,-0.5369347333908081,-0.2748049199581146,-0.4381301999092102
1761311746715871200,6.099871337890625,-0.45019441843032837,-0.24426254630088806,-0.3226800560951233
1761311746734485500,6.118485595703125,-0.35917818546295166,-0.227769672870636,-0.18401773273944855
1761311746753098500,6.137098388671875,-0.30847787857055664,-0.2259371280670166,-0.07956285774707794
1761311746771713000,6.155713134765625,-0.27854636311531067,-0.276637464761734,-0.02214321307837963
1761311746790325800,6.17432568359375,-0.27121618390083313,-0.37864893674850464,0.015805672854185104
1761311746808940300,6.192940185546875,-0.26694026589393616,-0.41529977321624756,0.06223006546497345
1761311746827553300,6.21155322265625,-0.2583884000778198,-0.359712690114975,0.10071343928575516
1761311746846167800,6.230167724609375,-0.24433889985084534,-0.27297237515449524,0.13980767130851746
1761311746864780500,6.248780517578125,-0.21501824259757996,-0.24914932250976562,0.19234053790569305
1761311746883395000,6.26739501953125,-0.1704263836145401,-0.31389912962913513,0.27052897214889526
1761311746902008000,6.286008056640625,-0.12644538283348083,-0.40552622079849243,0.3957526683807373
1761311746920622600,6.30462255859375,-0.10934165865182877,-0.4342360496520996,0.5496861934661865
1761311746939235300,6.3232353515625,-0.14660334587097168,-0.3926984369754791,0.6474217176437378
1761311746957849900,6.341849853515625,-0.16676130890846252,-0.44339874386787415,0.6297071576118469
1761311746976462800,6.360462890625,-0.15332266688346863,-0.5521295666694641,0.5331932902336121
1761311746995077400,6.379077392578125,-0.1844758689403534,-0.8111287951469421,0.3682645559310913
1761311747013690400,6.3976904296875,-0.314586341381073,-1.0908968448638916,0.19295138120651245
1761311747032304600,6.4163046875,-0.48012593388557434,-1.083566665649414,0.13919681310653687
1761311747050917600,6.434917724609375,-0.5839699506759644,-0.6596387028694153,0.2546469569206238
1761311747069532200,6.4535322265625,-0.6371136903762817,-0.20516832172870636,0.41652145981788635
1761311747088145200,6.472145263671875,-0.6639909744262695,-0.1721825748682022,0.4751628041267395
1761311747106759400,6.490759521484375,-0.6725428104400635,-0.40186113119125366,0.42751672863960266
1761311747125372400,6.509372314453125,-0.6835380792617798,-0.639480710029602,0.2888543903827667
1761311747143987000,6.527987060546875,-0.70308518409729,-0.6730773448944092,0.11048699915409088
1761311747162600000,6.546599853515625,-0.7666133046150208,-0.593667209148407,-0.06673506647348404
1761311747181214200,6.565214111328125,-0.8729007244110107,-0.5038726329803467,-0.19318044185638428
1761311747199827200,6.5838271484375,-0.9846857786178589,-0.39147675037384033,-0.2591519355773926
1761311747218441700,6.602441650390625,-1.0720369815826416,-0.31389912962913513,-0.2585411071777344
1761311747237054700,6.6210546875,-1.1123528480529785,-0.20822255313396454,-0.18157434463500977
1761311747255669200,6.639669189453125,-1.0873081684112549,-0.07017108052968979,-0.05207473039627075
1761311747274282200,6.6582822265625,-0.9761339426040649,0.034283801913261414,0.09949174523353577
1761311747292896500,6.676896484375,-0.8130376935005188,0.0293970238417387,0.24853847920894623
1761311747311509500,6.695509521484375,-0.6719319820404053,-0.09704835712909698,0.33588963747024536
1761311747330124000,6.7141240234375,-0.5729747414588928,-0.32428354024887085,0.3181750774383545
1761311747348737000,6.732737060546875,-0.518609344959259,-0.5472427606582642,0.1984490007162094
1761311747367351600,6.7513515625,-0.4715740978717804,-0.6626929044723511,0.029855160042643547
1761311747385964300,6.76996435546875,-0.4312581717967987,-0.5912237763404846,-0.11621369421482086
1761311747404578800,6.788578857421875,-0.4172086715698242,-0.35116082429885864,-0.18218518793582916
1761311747423191800,6.80719189453125,-0.42392799258232117,-0.10987614840269089,-0.12048961967229843
1761311747441806300,6.825806396484375,-0.4220954477787018,0.052609220147132874,0.06039752438664436
1761311747460419300,6.84441943359375,-0.39949411153793335,0.05932854115962982,0.23082390427589417
1761311747479033600,6.86303369140625,-0.35795649886131287,-0.014583977870643139,0.3334462344646454
1761311747497646600,6.881646484375,-0.3035911023616791,-0.04818057641386986,0.37437301874160767
1761311747516261000,6.90026123046875,-0.24067382514476776,0.00007635590736754239,0.37315133213996887
1761311747534874000,6.9188740234375,-0.17470231652259827,0.1143047958612442,0.359712690114975
1761311747553488600,6.937488525390625,-0.05925218388438225,0.09231429547071457,0.3310028612613678
1761311747572101600,6.9561015625,0.08307522535324097,-0.03229855000972748,0.2925194799900055
1761311747590716000,6.9747158203125,0.14843589067459106,-0.07444700598716736,0.27297237515449524
1761311747609329000,6.993328857421875,0.14110571146011353,0.0031305921729654074,0.31206658482551575
1761311747627943400,7.011943359375,0.08185353130102158,0.08437328040599823,0.38964420557022095
1761311747646556400,7.030556396484375,0.02870982140302658,0.008017370477318764,0.3603235185146332
1761311747665171000,7.0491708984375,-0.02076880633831024,-0.32122930884361267,0.13736428320407867
1761311747683784000,7.067783935546875,-0.0781884491443634,-0.574120044708252,-0.14003673195838928
1761311747702398200,7.086398193359375,-0.16065283119678497,-0.5203655362129211,-0.27320143580436707
1761311747721011200,7.10501123046875,-0.19302773475646973,-0.29496288299560547,-0.2176143378019333
1761311747739625700,7.123625732421875,-0.08307522535324097,0.0892600566148758,0.05734328553080559
1761311747758238700,7.14223876953125,0.05986303091049194,0.4802022874355316,0.4507289230823517
1761311747776853200,7.160853271484375,0.09834641218185425,0.6078693866729736,0.7873057723045349
1761311747795466200,7.17946630859375,0.11056335270404816,0.48753246665000916,0.9278006553649902
1761311747814080800,7.198080810546875,0.16187451779842377,0.29267218708992004,0.8380060791969299
1761311747832693800,7.21669384765625,0.25777754187583923,0.06849125027656555,0.5594597458839417
1761311747851308000,7.23530810546875,0.3805578351020813,-0.10926530510187149,0.20944425463676453
1761311747869921000,7.253921142578125,0.4349232614040375,-0.24304085969924927,-0.11926792562007904
1761311747888535600,7.27253564453125,0.37689274549484253,-0.5747309327125549,-0.42041563987731934
1761311747907148500,7.2911484375,0.18019993603229523,-0.935130774974823,-0.6409314870834351
1761311747925763000,7.30976318359375,-0.0647498071193695,-1.0304229259490967,-0.7624900937080383
1761311747944376000,7.3283759765625,-0.25472331047058105,-0.7091172933578491,-0.7166765332221985
1761311747962990600,7.346990478515625,-0.31825143098831177,-0.10926530510187149,-0.5242596864700317
1761311747981603600,7.365603515625,-0.24678228795528412,0.3262687921524048,-0.2951919436454773
1761311748000217900,7.3842177734375,-0.16492876410484314,0.4264477491378784,-0.08322793990373611
1761311748018830800,7.402830810546875,-0.09834641218185425,0.2975589632987976,0.0946049690246582
1761311748037445400,7.4214453125,-0.037261683493852615,0.03061871975660324,0.1996707022190094
1761311748056058400,7.440058349609375,0.014660334214568138,-0.1752368062734604,0.24853847920894623
1761311748074673000,7.4586728515625,0.07146912813186646,-0.2662530541419983,0.20822255313396454
1761311748093286000,7.477285888671875,0.13621893525123596,-0.33711132407188416,0.09338327497243881
1761311748111900400,7.495900390625,0.1429382562637329,-0.31084489822387695,-0.015423892997205257
1761311748130513400,7.514513427734375,0.10262233763933182,-0.24853847920894623,-0.10033166408538818
1761311748149128000,7.5331279296875,0.04459185153245926,-0.23571068048477173,-0.15775130689144135
1761311748167741000,7.551740966796875,-0.01038440316915512,-0.16485241055488586,-0.1754658818244934
1761311748186355200,7.570355224609375,-0.047646086663007736,-0.053678203374147415,-0.1620272397994995
1761311748204968200,7.58896826171875,-0.04703523963689804,0.04222481697797775,-0.10827267915010452
1761311748223582700,7.607582763671875,-0.007330167107284069,0.08070819079875946,-0.010537114925682545
1761311748242195700,7.62619580078125,0.015271181240677834,0.039170581847429276,0.11231953650712967
1761311748260810200,7.644810302734375,-0.0024433890357613564,-0.028633465990424156,0.23632153868675232
1761311748279423200,7.66342333984375,-0.07330167293548584,-0.12575818598270416,0.3279486298561096
1761311748298037800,7.682037841796875,-0.13988402485847473,-0.15141376852989197,0.3676536977291107
1761311748316650800,7.700650634765625,-0.1557660549879074,-0.09093988686800003,0.36582115292549133
1761311748335265300,7.719265380859375,-0.13560809195041656,0.004352286923676729,0.3334462344646454
1761311748353878300,7.737878173828125,-0.10017894953489304,0.007406522985547781,0.2515927255153656
1761311748372492800,7.756492919921875,-0.05925218388438225,-0.03290939703583717,0.14469444751739502
1761311748391105500,7.77510546875,-0.05008947476744652,-0.1336991935968399,-0.02214321307837963
1761311748409720000,7.793719970703125,-0.10017894953489304,-0.3444415032863617,-0.2707580327987671
1761311748428333000,7.8123330078125,-0.12155860662460327,-0.41041299700737,-0.4405735731124878
1761311748446947600,7.830947509765625,-0.12339114397764206,-0.24243000149726868,-0.41675055027008057
1761311748465560600,7.849560546875,-0.17409147322177887,0.1143047958612442,-0.18035265803337097
1761311748484175000,7.868175048828125,-0.291374146938324,0.44904908537864685,0.16851748526096344
1761311748502788000,7.8867880859375,-0.36162158846855164,0.5883222818374634,0.48127129673957825
1761311748521402600,7.905402587890625,-0.31886225938796997,0.558390736579895,0.671855628490448
1761311748540015600,7.924015625,-0.19119518995285034,0.42217180132865906,0.7127823829650879
1761311748558630100,7.942630126953125,-0.05070032179355621,0.22181391716003418,0.5869478583335876
1761311748577243100,7.9612431640625,0.05619794875383377,-0.013362283818423748,0.33955472707748413
1761311748595857700,7.979857666015625,0.09651386737823486,-0.21799612045288086,0.05978667363524437
1761311748614470700,7.998470703125,0.0390942245721817,-0.32306185364723206,-0.2029540091753006
1761311748633085200,8.017085205078125,-0.025655584409832954,-0.26075541973114014,-0.409420371055603
1761311748651698200,8.0356982421875,-0.06291726976633072,0.05566345527768135,-0.4527905285358429
1761311748670312700,8.054312744140624,-0.046424392610788345,0.3922402858734131,-0.3067980408668518
1761311748688925400,8.072925537109375,0.05497625470161438,0.4514924883842468,-0.09361234307289124
1761311748707540000,8.0915400390625,0.17958909273147583,0.3006131947040558,0.07933378964662552
1761311748726153000,8.110153076171875,0.2883199155330658,0.09964445978403091,0.1727934181690216
1761311748744767500,8.128767578125,0.3701734244823456,-0.05734328553080559,0.19539476931095123
1761311748763380500,8.14738037109375,0.4306473135948181,-0.12270393967628479,0.17829103767871857
1761311748781995000,8.1659951171875,0.44042086601257324,-0.12697987258434296,0.14286190271377563
1761311748800608000,8.18460791015625,0.390942245721817,-0.12453648447990417,0.09827005118131638
1761311748819222500,8.203222412109374,0.3249707520008087,-0.1349208950996399,0.053678203374147415
1761311748837835500,8.22183544921875,0.2644968628883362,-0.09216158092021942,0.010918894782662392
1761311748856450000,8.240449951171875,0.21440738439559937,0.0067956759594380856,-0.020310672000050545
1761311748875063000,8.25906298828125,0.16004198789596558,0.17111359536647797,-0.029473381116986275
1761311748893677600,8.277677490234375,0.14965757727622986,0.2865637242794037,-0.058183200657367706
1761311748912290600,8.29629052734375,0.183865025639534,0.3500918447971344,-0.10338589549064636
1761311748930905000,8.314905029296876,0.21501824259757996,0.3671955466270447,-0.13576079905033112
1761311748949518000,8.33351806640625,0.22540263831615448,0.3507026731967926,-0.14309096336364746
1761311748968132600,8.352132568359375,0.23273280262947083,0.3146626949310303,-0.13514995574951172
1761311748986745600,8.37074560546875,0.2644968628883362,0.31588438153266907,-0.13514995574951172
1761311749005359900,8.38935986328125,0.3396310806274414,0.3201603293418884,-0.16080553829669952
1761311749023973000,8.40797314453125,0.416597843170166,0.30488914251327515,-0.18768282234668732
1761311749042587400,8.42658740234375,0.44958359003067017,0.3335989713668823,-0.16630317270755768
1761311749061200400,8.445200439453124,0.4471401870250702,0.38307759165763855,-0.1107160672545433
1761311749079815000,8.46381494140625,0.4575245976448059,0.4514924883842468,-0.0459662564098835
1761311749098428000,8.482427978515625,0.48012593388557434,0.5510605573654175,0.035352785140275955
1761311749117042400,8.50104248046875,0.5320479869842529,0.6591805219650269,0.12820157408714294
1761311749135655400,8.519655517578125,0.5833591222763062,0.6610130667686462,0.21555273234844208
1761311749154270000,8.53827001953125,0.5992411375045776,0.3751365840435028,0.20516832172870636
1761311749172883000,8.556883056640626,0.577861487865448,0.29206135869026184,0.1080436110496521
1761311749191497500,8.57549755859375,0.5344913601875305,0.32077115774154663,-0.06856760382652283
1761311749210110500,8.5941103515625,0.5070032477378845,0.2822877764701843,-0.3171824514865875
1761311749228725000,8.61272509765625,0.499673068523407,0.22181391716003418,-0.5938962697982788
1761311749247338000,8.631337890625,0.5008947253227234,0.22670069336891174,-0.7411104440689087
1761311749265952500,8.649952392578125,0.527161180973053,0.3751365840435028,-0.6977402567863464
1761311749284565500,8.6685654296875,0.5876350402832031,0.6042042970657349,-0.4656183123588562
1761311749303180000,8.687179931640625,0.642076849937439,0.8448781371116638,-0.07650861889123917
1761311749321793000,8.70579296875,0.6475744247436523,0.8876374363899231,0.30412557721138
1761311749340407600,8.724407470703126,0.6469635963439941,0.6976639032363892,0.5167004466056824
1761311749359020500,8.7430205078125,0.6952205300331116,0.49913856387138367,0.537469208240509
1761311749377635000,8.761635009765625,0.770965576171875,0.36047622561454773,0.38964420557022095
1761311749396248000,8.780248046875,0.8308286070823669,0.27617931365966797,0.13736428320407867
1761311749414862600,8.798862548828126,0.8509865999221802,0.26518407464027405,-0.11682453751564026
1761311749433475600,8.8174755859375,0.8210550546646118,0.3091650605201721,-0.2829749882221222
1761311749452090000,8.836090087890625,0.7446991801261902,0.3488701283931732,-0.3446705639362335
1761311749470703000,8.854703125,0.6378008723258972,0.29022881388664246,-0.36971530318260193
1761311749489317600,8.873317626953124,0.5283828973770142,0.18882815539836884,-0.3978142738342285
1761311749507930600,8.8919306640625,0.4556920528411865,0.2065427303314209,-0.43568679690361023
1761311749526545200,8.910545166015625,0.4471401870250702,0.27984440326690674,-0.4772244095802307
1761311749545158000,8.929157958984375,0.4868452548980713,0.34153997898101807,-0.4662291705608368
1761311749563772400,8.9477724609375,0.5369347333908081,0.3390965759754181,-0.3849864900112152
1761311749582385400,8.966385498046876,0.5583143830299377,0.3244362473487854,-0.2432699203491211
1761311749601000000,8.985,0.5558710098266602,0.28106608986854553,-0.11438114941120148
1761311749619613000,9.003613037109375,0.5387672781944275,0.24808034300804138,-0.03497100621461868
1761311749638227500,9.0222275390625,0.5253286361694336,0.2627406716346741,0.015194825828075409
1761311749656840400,9.04084033203125,0.5253286361694336,0.2737359404563904,0.04756972938776016
1761311749675455000,9.059455078125,0.5277720093727112,0.271903395652771,0.09277242422103882
1761311749694068000,9.07806787109375,0.518609344959259,0.3091650605201721,0.1624090075492859
1761311749712682500,9.0966826171875,0.5015056133270264,0.31832778453826904,0.21555273234844208
1761311749731295500,9.11529541015625,0.47707170248031616,0.25418880581855774,0.20822255313396454
1761311749749910000,9.133909912109376,0.42514967918395996,0.1680593490600586,0.1355317384004593
1761311749768523000,9.15252294921875,0.3561239540576935,0.15767495334148407,0.02924431301653385
1761311749787137500,9.171137451171875,0.32252734899520874,0.1808871477842331,-0.10033166408538818
1761311749805750500,9.18975048828125,0.31825143098831177,0.17050273716449738,-0.20784078538417816
1761311749824365000,9.208364990234376,0.31092125177383423,0.2071535736322403,-0.2414373755455017
1761311749842978000,9.22697802734375,0.32374903559684753,0.31954947113990784,-0.1913478970527649
1761311749861592600,9.245592529296875,0.33535513281822205,0.503414511680603,-0.06978929787874222
1761311749880205600,9.26420556640625,0.3561239540576935,0.45210331678390503,-0.028251685202121735
1761311749898820000,9.282820068359374,0.38788801431655884,0.14301460981369019,-0.13453911244869232
1761311749917433000,9.30143310546875,0.38605546951293945,-0.3835357129573822,-0.3898732662200928
1761311749936047600,9.320047607421875,0.4312581717967987,-0.5588488578796387,-0.6617003083229065
1761311749954660600,9.33866064453125,0.5216635465621948,-0.2656421959400177,-0.7673768401145935
1761311749973275100,9.357275146484374,0.5931326746940613,0.17538951337337494,-0.6641436815261841
1761311749991888100,9.37588818359375,0.5308262705802917,0.48753246665000916,-0.3483356535434723
1761311750010502700,9.394502685546875,0.3701734244823456,0.6738408803939819,0.11231953650712967
1761311750029115600,9.41311572265625,0.3139754831790924,0.8259418606758118,0.5050943493843079
1761311750047730200,9.431730224609375,0.4062134325504303,0.8522082567214966,0.7427139282226562
1761311750066343200,9.45034326171875,0.5858024954795837,0.7880693078041077,0.7934142351150513
1761311750084957700,9.468957763671876,0.771576464176178,0.7355364561080933,0.6339830756187439
1761311750103570700,9.48757080078125,0.896189272403717,0.5724402666091919,0.308401495218277
1761311750122185200,9.506185302734375,0.868701159954071,0.3635304868221283,-0.072232685983181
1761311750140798200,9.524798095703124,0.687890350818634,0.1674485057592392,-0.4387410581111908
1761311750159412700,9.543412841796876,0.4813476502895355,0.1283542811870575,-0.7545490860939026
1761311750178025700,9.562025634765625,0.37567105889320374,0.3348206579685211,-0.987892746925354
1761311750196640300,9.58064013671875,0.40071579813957214,0.6903337836265564,-1.0275977849960327
1761311750215253200,9.599253173828124,0.5430431962013245,0.9786536693572998,-0.8449544906616211
1761311750233867800,9.61786767578125,0.771576464176178,0.9426136612892151,-0.5462501645088196
1761311750252480800,9.636480712890625,0.9908705949783325,0.6640673279762268,-0.2298312783241272
1761311750271095300,9.65509521484375,1.1148725748062134,0.39895960688591003,0.03901786729693413
1761311750289708300,9.673708251953125,1.1625187397003174,0.22181391716003418,0.16790664196014404
1761311750308322800,9.69232275390625,1.1845091581344604,0.11980241537094116,0.12453648447990417
1761311750326935800,9.710935791015626,1.160075306892395,0.13263021409511566,0.006032116711139679
1761311750345550300,9.72955029296875,1.0770000219345093,0.2590755820274353,-0.1107160672545433
1761311750364163300,9.748163330078125,1.0159153938293457,0.46309858560562134,-0.25976279377937317
1761311750382777900,9.76677783203125,0.9994224905967712,0.6976639032363892,-0.40453359484672546
1761311750401390800,9.785390869140626,1.0281323194503784,0.82655268907547,-0.43141087889671326
1761311750420005400,9.80400537109375,1.053176999092102,0.8302177786827087,-0.34405970573425293
1761311750438618400,9.822618408203125,1.0525661706924438,0.7807391285896301,-0.23349636793136597
1761311750457233000,9.84123291015625,1.0201913118362427,0.7801283001899719,-0.13942588865756989
1761311750475846000,9.859845947265624,0.9823187589645386,0.8002862930297852,-0.08872556686401367
1761311750494460400,9.87846044921875,0.9487221240997314,0.8460997939109802,-0.06184828653931618
1761311750513073400,9.897073486328125,0.9248991012573242,0.8851940631866455,-0.07895200699567795
1761311750531688000,9.91568798828125,0.8992435336112976,0.8955784440040588,-0.13331741094589233
1761311750550301000,9.934301025390624,0.8674794435501099,0.8705337047576904,-0.21333840489387512
1761311750568915500,9.95291552734375,0.8558733463287354,0.7697439193725586,-0.3061871826648712
1761311750587528400,9.971528564453125,0.900465190410614,0.7697439193725586,-0.3379512429237366
1761311750606143000,9.99014306640625,0.9487221240997314,0.8589276075363159,-0.2970244884490967
1761311750624756000,10.008755859375,0.974988579750061,0.7605811953544617,-0.2573194205760956
1761311750643370500,10.02737060546875,0.9071845412254333,0.5406761765480042,-0.23471805453300476
1761311750661983500,10.0459833984375,0.7789065837860107,0.4172850251197815,-0.2591519355773926
1761311750680598000,10.064597900390625,0.7172110676765442,0.47348299622535706,-0.29946786165237427
1761311750699211000,10.0832109375,0.747753381729126,0.7721872925758362,-0.2707580327987671
1761311750717825500,10.101825439453124,0.8131140470504761,1.0360733270645142,-0.2041756957769394
1761311750736438500,10.1204384765625,0.8369371294975281,1.062950611114502,-0.15286453068256378
1761311750755053000,10.139052978515625,0.8381587862968445,0.873587965965271,-0.046577103435993195
1761311750773666000,10.157666015625,0.803340494632721,0.687890350818634,0.07566870748996735
1761311750792280600,10.176280517578125,0.8100598454475403,0.6286382079124451,0.10315682739019394
1761311750810893600,10.1948935546875,0.8460997939109802,0.7007181644439697,0.024968381971120834
1761311750829508000,10.213508056640626,0.8430455923080444,0.7752415537834167,-0.06429167091846466
1761311750848121000,10.23212109375,0.8302177786827087,0.9071845412254333,-0.10277505218982697
1761311750866735600,10.250735595703125,0.8314394950866699,0.9578848481178284,-0.12171131372451782
1761311750885348600,10.2693486328125,0.817389965057373,0.8748096227645874,-0.15591876208782196
1761311750903963100,10.287963134765626,0.7929561138153076,0.743477463722229,-0.22494450211524963
1761311750922576100,10.306576171875,0.7953994870185852,0.5919873714447021,-0.31229567527770996
1761311750941190700,10.325190673828125,0.8259418606758118,0.42339351773262024,-0.3990359604358673
1761311750959803600,10.3438037109375,0.8375479578971863,0.29022881388664246,-0.462564080953598
1761311750978418200,10.362418212890624,0.7886801958084106,0.2706816792488098,-0.4815003573894501
1761311750997031200,10.38103125,0.6988856196403503,0.25296711921691895,-0.5230379700660706
1761311751015645700,10.399645751953125,0.6011500358581543,0.3403182923793793,-0.5700731873512268
1761311751034258700,10.4182587890625,0.5662553906440735,0.511966347694397,-0.566408097743988
1761311751052873200,10.436873291015624,0.6072585582733154,0.6616239547729492,-0.47539186477661133
1761311751071486200,10.455486328125,0.6640673279762268,0.7220978140830994,-0.305576354265213
1761311751090100700,10.474100830078125,0.6854469776153564,0.7068266272544861,-0.1375933438539505
1761311751108713700,10.492713623046875,0.6640673279762268,0.5938199162483215,-0.038636088371276855
1761311751127328300,10.511328369140625,0.642076849937439,0.3910185992717743,-0.07528692483901978
1761311751145941200,10.529941162109376,0.6628456115722656,0.3006131947040558,-0.1895153671503067
1761311751164555800,10.5485556640625,0.7056049108505249,0.2865637242794037,-0.32695600390434265
1761311751183168800,10.567168701171875,0.7257629036903381,0.2706816792488098,-0.4246915578842163
1761311751201783300,10.585783203125,0.7043832540512085,0.25113457441329956,-0.4271349310874939
1761311751220396300,10.604396240234376,0.6561263203620911,0.2700708508491516,-0.35627666115760803
1761311751239010800,10.6230107421875,0.5790832042694092,0.29267218708992004,-0.24632415175437927
1761311751257624000,10.6416240234375,0.5381564497947693,0.22425730526447296,-0.1656923145055771
1761311751276238600,10.660238525390625,0.5320479869842529,0.1546207070350647,-0.1363716572523117
1761311751294851600,10.6788515625,0.5393781065940857,0.11919157207012177,-0.11682453751564026
1761311751313466000,10.697466064453126,0.5002838969230652,0.2450261116027832,-0.07834116369485855
1761311751332079000,10.7160791015625,0.46363306045532227,0.4551575779914856,-0.022754060104489326
1761311751350693600,10.734693603515625,0.4563029110431671,0.48631078004837036,0.06406260281801224
1761311751369306600,10.753306640625,0.4563029110431671,0.46248772740364075,0.12942326068878174
1761311751387921200,10.771921142578124,0.47707170248031616,0.5254049897193909,0.19050799310207367
1761311751406534100,10.7905341796875,0.4434750974178314,0.6768951416015625,0.2381540685892105
1761311751425148700,10.809148681640625,0.39827242493629456,0.7459208369255066,0.19295138120651245
1761311751443761700,10.82776171875,0.37200596928596497,0.7019398808479309,0.06284090876579285
1761311751462376200,10.846376220703124,0.2870981991291046,0.4936409294605255,0.02680092304944992
1761311751480989200,10.8649892578125,0.1979145109653473,-0.0011453386396169662,0.018249060958623886
1761311751499603700,10.883603759765625,0.26755109429359436,-0.29618456959724426,0.004199574701488018
1761311751518216700,10.902216796875,0.393385648727417,-0.24914932250976562,-0.031916771084070206
1761311751536831200,10.920831298828125,0.4367557764053345,0.12285665422677994,-0.03008422814309597
1761311751555444200,10.9394443359375,0.43919917941093445,0.60909104347229,-0.005650337319821119
1761311751574058800,10.958058837890626,0.44103172421455383,0.7367581725120544,-0.049020491540431976
1761311751592671700,10.976671630859375,0.4172086715698242,0.6866686940193176,-0.04107947647571564
