time,seconds_elapsed,z,y,x
1761371264798460000,0.2184599609375,-0.004406929016113281,-0.10803437232971191,0.04301521182060242
1761371264807979300,0.227979248046875,-0.052628517150878906,-0.12718605995178223,0.07130047678947449
1761371264817497300,0.237497314453125,-0.10216045379638672,-0.11088955402374268,0.03411775827407837
1761371264827014100,0.24701416015625,-0.18959903717041016,-0.09630036354064941,-0.002944856882095337
1761371264836529700,0.25652978515625,-0.28878021240234375,-0.08869266510009766,0.009805232286453247
1761371264846044200,0.266044189453125,-0.28444385528564453,-0.047930121421813965,0.044228196144104004
1761371264855557400,0.275557373046875,-0.22706127166748047,0.0300520658493042,0.058120518922805786
1761371264865069600,0.285069580078125,-0.22525596618652344,0.12669557332992554,0.059980571269989014
1761371264874580700,0.294580810546875,-0.20981121063232422,0.20965498685836792,0.04418531060218811
1761371264884091100,0.304091064453125,-0.11267948150634766,0.24944347143173218,0.02300778031349182
1761371264893600500,0.3136005859375,0.010105133056640625,0.21616482734680176,0.022679954767227173
1761371264903109000,0.323109130859375,0.07500743865966797,0.09430086612701416,0.04783812165260315
1761371264912616700,0.33261669921875,0.0797119140625,-0.07067084312438965,0.0711221992969513
1761371264922123800,0.342123779296875,0.06783580780029297,-0.19981586933135986,0.08804643154144287
1761371264931629800,0.3516298828125,0.05145835876464844,-0.26683926582336426,0.10449883341789246
1761371264941135400,0.36113525390625,-0.00156402587890625,-0.26878678798675537,0.1206815242767334
1761371264950640000,0.37064013671875,-0.07842731475830078,-0.23940694332122803,0.1380927860736847
1761371264960144400,0.380144287109375,-0.1459493637084961,-0.21346282958984375,0.14579251408576965
1761371264969648000,0.389648193359375,-0.17659568786621094,-0.19001102447509766,0.1255423128604889
1761371264979151000,0.399151123046875,-0.16682720184326172,-0.1733701229095459,0.0782690942287445
1761371264988653800,0.40865380859375,-0.14560413360595703,-0.16996991634368896,0.04707694053649902
1761371264998155800,0.41815576171875,-0.11084747314453125,-0.1607816219329834,0.053597450256347656
1761371265007657500,0.427657470703125,-0.055907249450683594,-0.1298542022705078,0.07333841919898987
1761371265017158700,0.43715869140625,-0.020965576171875,-0.10164880752563477,0.09185981750488281
1761371265026659300,0.446659423828125,-0.007945060729980469,-0.06724727153778076,0.12431254982948303
1761371265036159500,0.456159423828125,-0.011775016784667969,-0.029589533805847168,0.14551964402198792
1761371265055159000,0.475158935546875,-0.02933025360107422,-0.01988661289215088,0.11337155103683472
1761371265074157000,0.494156982421875,-0.026619911193847656,-0.03704023361206055,0.08984577655792236
1761371265093153800,0.51315380859375,-0.01977252960205078,-0.12390482425689697,0.06609401106834412
1761371265112083200,0.532083251953125,-0.025255203247070312,-0.22324585914611816,-0.06733402609825134
1761371265130694100,0.550694091796875,-0.057654380798339844,-0.15624988079071045,-0.039767295122146606
1761371265149306600,0.569306640625,-0.11785125732421875,0.015898942947387695,0.08234706521034241
1761371265167917800,0.587917724609375,-0.0903615951538086,0.19364142417907715,0.14874178171157837
1761371265186530300,0.6065302734375,0.030139923095703125,0.22063851356506348,0.10009917616844177
1761371265205141200,0.625141357421875,0.0048580169677734375,0.22456157207489014,0.09840196371078491
1761371265223753700,0.643753662109375,-0.060929298400878906,0.2586206793785095,0.14140453934669495
1761371265242365000,0.662364990234375,-0.06551551818847656,0.2383044958114624,0.10814332962036133
1761371265260977400,0.680977294921875,0.0025043487548828125,0.11009371280670166,-0.017959952354431152
1761371265279588400,0.69958837890625,0.032692909240722656,-0.08087003231048584,-0.1478988528251648
1761371265298200800,0.718200927734375,0.008127212524414062,-0.25571227073669434,-0.19999530911445618
1761371265316812000,0.73681201171875,-0.031615257263183594,-0.3695497512817383,-0.173415869474411
1761371265335424500,0.755424560546875,-0.04652595520019531,-0.39574766159057617,-0.09349986910820007
1761371265354035500,0.774035400390625,-0.04218864440917969,-0.3477935791015625,-0.07842428982257843
1761371265372648200,0.792648193359375,-0.0004520416259765625,-0.236220121383667,-0.15596428513526917
1761371265391259100,0.811259033203125,0.07433319091796875,-0.10374188423156738,-0.22000592947006226
1761371265409871600,0.82987158203125,0.06677913665771484,-0.038271427154541016,-0.10866165161132812
1761371265428482800,0.84848291015625,-0.03600311279296875,-0.004882693290710449,0.03250324726104736
1761371265447095300,0.86709521484375,-0.1411142349243164,0.07078886032104492,0.14512112736701965
1761371265465706200,0.885706298828125,-0.10645484924316406,0.1393125057220459,0.207706481218338
1761371265484318700,0.904318603515625,0.054579734802246094,0.14396536350250244,0.26767146587371826
1761371265502930000,0.922929931640625,0.11741828918457031,0.08975601196289062,0.2705240547657013
1761371265521542400,0.94154248046875,0.009257316589355469,0.04003500938415527,0.20501190423965454
1761371265540153300,0.9601533203125,-0.09700775146484375,0.00607752799987793,0.04474356770515442
1761371265558766000,0.97876611328125,-0.11463546752929688,-0.002330303192138672,-0.11076070368289948
1761371265577377000,0.997376953125,-0.00025653839111328125,-0.008056640625,-0.15676264464855194
1761371265595989500,1.015989501953125,0.08429336547851562,-0.03247427940368652,-0.11886954307556152
1761371265614600400,1.034600341796875,0.04901885986328125,-0.0594710111618042,-0.037547916173934937
1761371265633213200,1.053213134765625,-0.0460357666015625,-0.03729748725891113,0.002778947353363037
1761371265651824000,1.07182421875,-0.08195304870605469,0.018837332725524902,-0.018081605434417725
1761371265670436900,1.090436767578125,-0.03962135314941406,0.04966592788696289,-0.04297253489494324
1761371265689047800,1.1090478515625,0.03851032257080078,0.035337090492248535,-0.035911500453948975
1761371265707660300,1.127660400390625,0.060515403747558594,-0.014426589012145996,-0.019406944513320923
1761371265726271200,1.146271240234375,0.004994392395019531,-0.06226623058319092,-0.0004055500030517578
1761371265744884000,1.164884033203125,-0.04359912872314453,-0.10929489135742188,0.0013841986656188965
1761371265763495000,1.183494873046875,-0.046126365661621094,-0.12811744213104248,0.04010272026062012
1761371265782107400,1.202107421875,-0.0045795440673828125,-0.12221109867095947,0.07757565379142761
1761371265800718600,1.220718505859375,0.013715744018554688,-0.058507442474365234,0.10052946209907532
1761371265819331000,1.2393310546875,-0.01279449462890625,0.0423123836517334,0.04126599431037903
1761371265837942000,1.25794189453125,-0.010243415832519531,0.08751392364501953,0.034924715757369995
1761371265856554800,1.2765546875,0.0022020339965820312,0.07697761058807373,0.0695328414440155
1761371265875165700,1.295165771484375,0.028478622436523438,0.04821813106536865,0.0751778781414032
1761371265893778200,1.313778076171875,0.023110389709472656,0.022708535194396973,0.05050751566886902
1761371265912389000,1.33238916015625,-0.02684497833251953,-0.004439234733581543,0.017866849899291992
1761371265931001900,1.351001953125,-0.05234050750732422,-0.01681387424468994,0.006660670042037964
1761371265949612800,1.36961279296875,-0.029941558837890625,-0.01686549186706543,-0.02939915657043457
1761371265968225500,1.3882255859375,0.010976791381835938,0.015986323356628418,-0.07271674275398254
1761371265986836500,1.40683642578125,0.05305957794189453,0.021912813186645508,-0.10108569264411926
1761371266005449000,1.425448974609375,0.026025772094726562,0.0123213529586792,-0.09510868787765503
1761371266024060000,1.444059814453125,-0.016524314880371094,-0.016820788383483887,-0.03584924340248108
1761371266042672600,1.462672607421875,-0.044051170349121094,-0.044853925704956055,0.03875851631164551
1761371266061283600,1.48128369140625,-0.026551246643066406,-0.045538902282714844,0.07864448428153992
1761371266079896000,1.49989599609375,-0.004765510559082031,-0.02685260772705078,0.0696617066860199
1761371266098507300,1.51850732421875,0.032708168029785156,-0.0041658878326416016,0.049392491579055786
1761371266117119700,1.53711962890625,0.01778411865234375,0.0007154941558837891,0.025350511074066162
1761371266135730700,1.555730712890625,0.0056304931640625,-0.011969804763793945,0.01515015959739685
1761371266154343400,1.574343505859375,-0.024965286254882812,-0.04343211650848389,0.01891431212425232
1761371266172954400,1.592954345703125,-0.033576011657714844,-0.05919063091278076,0.009593278169631958
1761371266191566800,1.61156689453125,-0.03243732452392578,-0.04221820831298828,0.005749911069869995
1761371266210177800,1.630177734375,0.004036903381347656,-0.01777780055999756,0.0024909377098083496
1761371266228790500,1.64879052734375,0.04148387908935547,-0.002135157585144043,-0.0059677958488464355
1761371266247401500,1.6674013671875,0.02616596221923828,0.004347681999206543,-0.006092578172683716
1761371266266014000,1.686013916015625,-0.007359504699707031,0.014927387237548828,-0.018745899200439453
1761371266284625200,1.704625244140625,-0.03042125701904297,0.04182016849517822,-0.02360549569129944
1761371266303237600,1.723237548828125,-0.03409290313720703,0.04281198978424072,-0.04813039302825928
1761371266321848600,1.7418486328125,-0.0047435760498046875,0.030442237854003906,-0.07300877571105957
1761371266340461300,1.76046142578125,0.03761482238769531,0.004294276237487793,-0.06652683019638062
1761371266359072300,1.779072265625,0.04356575012207031,-0.04447627067565918,-0.04208841919898987
1761371266377684700,1.797684814453125,0.007449150085449219,-0.05398905277252197,-0.005554318428039551
1761371266396296000,1.8162958984375,-0.015600204467773438,-0.04596900939941406,0.046150267124176025
1761371266414908400,1.834908447265625,-0.021495819091796875,-0.012061476707458496,0.08230817317962646
1761371266433519400,1.853519287109375,-0.009078025817871094,0.0169677734375,0.10696256160736084
1761371266452132000,1.872132080078125,0.009471893310546875,0.025975704193115234,0.0946352481842041
1761371266470743000,1.890742919921875,-0.007877349853515625,0.02183997631072998,0.08355295658111572
1761371266489355500,1.90935546875,-0.019588470458984375,0.009733438491821289,0.03939518332481384
1761371266507966500,1.927966552734375,-0.009517669677734375,0.0006679296493530273,0.0014240443706512451
1761371266526579200,1.9465791015625,0.016686439514160156,-0.012227535247802734,0.004387348890304565
1761371266545190100,1.965190185546875,0.023195266723632812,-0.023621320724487305,-0.010363608598709106
1761371266563803000,1.983802978515625,0.008318901062011719,-0.038405656814575195,-0.004839301109313965
1761371266582413800,2.002413818359375,-0.024931907653808594,-0.03238654136657715,-0.016214460134506226
1761371266601026300,2.0210263671875,-0.01963043212890625,-0.02371811866760254,0.008451610803604126
1761371266619637200,2.03963720703125,-0.007361412048339844,-0.009744048118591309,0.005142152309417725
1761371266638250000,2.05825,0.011713981628417969,0.03533661365509033,0.01828920841217041
1761371266656861000,2.07686083984375,0.02327442169189453,0.04865860939025879,0.01603025197982788
1761371266675473700,2.0954736328125,0.020272254943847656,0.05640053749084473,0.023219943046569824
1761371266694084600,2.114084716796875,-0.0041027069091796875,0.028037667274475098,0.027036964893341064
1761371266712697000,2.132697021484375,-0.008869171142578125,-0.004112601280212402,0.0100172758102417
1761371266731308000,2.15130810546875,0.007344245910644531,-0.04201459884643555,-0.02966749668121338
1761371266749920800,2.169920654296875,0.01406097412109375,-0.07088649272918701,-0.062848299741745
1761371266768531700,2.18853173828125,0.0066928863525390625,-0.05563151836395264,-0.06257292628288269
1761371266787144200,2.207144287109375,0.0020132064819335938,-0.022075414657592773,-0.03099614381790161
1761371266805755100,2.225755126953125,0.002086639404296875,0.03991973400115967,0.013799697160720825
1761371266824367900,2.244367919921875,0.0042362213134765625,0.06862413883209229,0.03005528450012207
1761371266842978800,2.262978759765625,-0.0076351165771484375,0.061516523361206055,0.016343265771865845
1761371266861591600,2.281591552734375,-0.0027866363525390625,0.03660619258880615,0.021886557340621948
1761371266880202500,2.300202392578125,0.002094268798828125,-0.0008221864700317383,0.023900985717773438
1761371266898815000,2.31881494140625,0.013813972473144531,-0.03515326976776123,0.02208077907562256
1761371266917426000,2.337426025390625,0.008751869201660156,-0.06008601188659668,-0.005825996398925781
1761371266936038700,2.35603857421875,0.0012426376342773438,-0.06638979911804199,0.0033542513847351074
1761371266954649600,2.374649658203125,-0.01995563507080078,-0.04685258865356445,0.0076171159744262695
1761371266973262000,2.393261962890625,-0.01912975311279297,-0.01237034797668457,-0.01010081171989441
1761371266991873300,2.411873291015625,0.009871482849121094,0.03664827346801758,-0.030739516019821167
1761371267010485800,2.43048583984375,0.047196388244628906,0.054828643798828125,-0.014181196689605713
1761371267029096700,2.4490966796875,0.0267181396484375,0.03742969036102295,-0.0021563470363616943
1761371267047709400,2.46770947265625,-0.009591102600097656,0.0233534574508667,-0.02267003059387207
1761371267066320400,2.4863203125,-0.023833274841308594,-0.0018868446350097656,-0.04284262657165527
1761371267084932900,2.504932861328125,-0.03455924987792969,0.0026426315307617188,-0.01270204782485962
1761371267103544000,2.5235439453125,0.016241073608398438,0.0002313852310180664,0.017659246921539307
1761371267122156500,2.542156494140625,0.037201881408691406,-0.02009272575378418,0.034965693950653076
1761371267140767500,2.560767578125,0.016884803771972656,-0.01763749122619629,0.06653201580047607
1761371267159380200,2.579380126953125,-0.024137496948242188,-0.006090998649597168,0.0814104676246643
1761371267177991200,2.5979912109375,-0.05222129821777344,-0.02696824073791504,0.0799194872379303
1761371267196603600,2.616603759765625,-0.027099609375,-0.04466354846954346,0.0386984646320343
1761371267215214600,2.635214599609375,0.044127464294433594,-0.06194889545440674,0.014283299446105957
1761371267233827300,2.653827392578125,0.044533729553222656,-0.037464141845703125,0.000876694917678833
1761371267252438300,2.672438232421875,-0.03917980194091797,0.017061829566955566,-0.011486232280731201
1761371267271051000,2.691051025390625,-0.05443000793457031,0.06088411808013916,-0.0327705442905426
1761371267289662000,2.709661865234375,0.0010347366333007812,0.07227134704589844,-0.03280869126319885
1761371267308274400,2.7282744140625,0.03858375549316406,0.044063568115234375,-0.032887548208236694
1761371267326885400,2.746885498046875,0.011734962463378906,0.03335702419281006,-0.031266361474990845
1761371267345498000,2.765498046875,-0.0258331298828125,0.02414262294769287,-0.008130759000778198
1761371267364109000,2.784109130859375,-0.006300926208496094,0.013147950172424316,-0.01405876874923706
1761371267382721800,2.8027216796875,0.019439697265625,-0.015009284019470215,-0.03270876407623291
1761371267401332700,2.821332763671875,0.009385108947753906,-0.04511058330535889,-0.04868152737617493
1761371267419945200,2.8399453125,-0.009357452392578125,-0.06651878356933594,-0.05096757411956787
1761371267438556200,2.85855615234375,-0.032100677490234375,-0.08232176303863525,0.0018999278545379639
1761371267457169000,2.8771689453125,0.001789093017578125,-0.08861386775970459,0.06688430905342102
1761371267475779800,2.89577978515625,0.008479118347167969,-0.03722059726715088,0.11631783843040466
1761371267494392300,2.914392333984375,-0.0035247802734375,0.0036919116973876953,0.10961201786994934
1761371267513003300,2.933003173828125,-0.024105072021484375,0.05826067924499512,0.0840628445148468
1761371267531616000,2.951615966796875,-0.011697769165039062,0.06584334373474121,0.05627554655075073
1761371267550227000,2.97022705078125,0.03071880340576172,0.04730546474456787,0.0272790789604187
1761371267568839700,2.988839599609375,0.048323631286621094,0.0036535263061523438,-0.002361387014389038
1761371267587450600,3.00745068359375,-0.0025072097778320312,-0.034941911697387695,-0.024837523698806763
1761371267606063000,3.02606298828125,-0.03306293487548828,-0.02329850196838379,-0.05826163291931152
1761371267624674000,3.044674072265625,-0.02716827392578125,-0.003924131393432617,-0.05637058615684509
1761371267643286800,3.063286865234375,0.008883476257324219,0.004496574401855469,-0.04209345579147339
1761371267661897700,3.081897705078125,0.027614593505859375,0.02963888645172119,-0.00955769419670105
1761371267680510200,3.10051025390625,0.027082443237304688,0.039376139640808105,0.039665430784225464
1761371267699121400,3.119121337890625,-0.004298210144042969,0.02177739143371582,0.08206367492675781
1761371267717734000,3.13773388671875,-0.014037132263183594,-0.010724067687988281,0.06421053409576416
1761371267736344800,3.1563447265625,-0.02578258514404297,-0.049437522888183594,0.03647702932357788
1761371267754957600,3.17495751953125,-0.0017910003662109375,-0.05796182155609131,-0.020137667655944824
1761371267773568500,3.193568603515625,0.02375507354736328,-0.028485417366027832,-0.03189226984977722
1761371267792181000,3.212180908203125,0.008881568908691406,0.011110782623291016,-0.021182149648666382
1761371267810792000,3.2307919921875,0.010822296142578125,0.04861319065093994,-0.027295440435409546
1761371267829404700,3.24940478515625,-0.0037050247192382812,0.0780038833618164,-0.04436412453651428
1761371267848015600,3.268015625,-0.001392364501953125,0.059273719787597656,-0.07002684473991394
1761371267866628400,3.28662841796875,0.001041412353515625,0.03539168834686279,-0.08991974592208862
1761371267885239300,3.3052392578125,0.023759841918945312,-0.04910457134246826,-0.07875475287437439
1761371267903851800,3.323851806640625,-0.016450881958007812,-0.03753185272216797,-0.005936086177825928
1761371267922462700,3.342462646484375,-0.02655792236328125,-0.033632755279541016,-0.0002237260341644287
1761371267941075500,3.361075439453125,0.009828567504882812,-0.04978132247924805,0.015305519104003906
1761371267959686400,3.379686279296875,0.02808094024658203,-0.020871758460998535,0.0145530104637146
1761371267978299100,3.398299072265625,-0.013141632080078125,0.0037239789962768555,0.02505326271057129
1761371267996910000,3.41691015625,-0.02457714080810547,0.010391831398010254,0.023846715688705444
1761371268015522600,3.4355224609375,-0.0048694610595703125,-0.000043272972106933594,0.04463276267051697
1761371268034133500,3.454133544921875,0.03318309783935547,-0.00257110595703125,0.07137656211853027
1761371268052746200,3.472746337890625,0.013865470886230469,0.003768324851989746,0.07062661647796631
1761371268071357200,3.491357177734375,-0.005129814147949219,0.015822172164916992,0.0480802059173584
1761371268089969700,3.5099697265625,-0.007717132568359375,0.009558320045471191,0.025422334671020508
1761371268108580600,3.52858056640625,-0.017559051513671875,0.00037670135498046875,0.02105158567428589
1761371268127193300,3.547193359375,-0.012658119201660156,-0.0030645132064819336,0.01927095651626587
1761371268145804300,3.56580419921875,-0.0003223419189453125,0.009155511856079102,0.008852839469909668
1761371268164417000,3.5844169921875,0.02824878692626953,0.03133344650268555,-0.004365682601928711
1761371268183028000,3.603028076171875,0.02772808074951172,0.04053342342376709,-0.006480783224105835
1761371268201640400,3.621640380859375,0.005719184875488281,0.022518038749694824,-0.00429263710975647
1761371268220251400,3.64025146484375,-0.03456687927246094,0.0022809505462646484,-0.025422275066375732
1761371268238864100,3.658864013671875,-0.024591445922851562,-0.006095170974731445,-0.0392146110534668
1761371268257475000,3.67747509765625,-0.005442619323730469,-0.01198434829711914,-0.02019035816192627
1761371268276087600,3.696087646484375,0.02057361602783203,-0.01641690731048584,-0.017601460218429565
1761371268294698800,3.71469873046875,0.018172264099121094,-0.018924474716186523,-0.03306525945663452
1761371268313311200,3.733311279296875,0.013349533081054688,-0.012030720710754395,-0.02540561556816101
1761371268331922200,3.751922119140625,-0.010529518127441406,0.00028455257415771484,0.0019586384296417236
1761371268350535000,3.770534912109375,-0.0341033935546875,0.024725675582885742,0.012585341930389404
1761371268369145900,3.789145751953125,-0.021587371826171875,0.011099815368652344,0.013541728258132935
1761371268387758300,3.80775830078125,0.009482383728027344,0.008243560791015625,0.01837635040283203
1761371268406369300,3.826369384765625,0.019034385681152344,-0.002496957778930664,0.019026130437850952
1761371268424982000,3.84498193359375,0.011836051940917969,-0.013133406639099121,0.020018309354782104
1761371268443593000,3.863593017578125,-0.0048389434814453125,-0.02691805362701416,0.03434103727340698
1761371268462205700,3.882205810546875,-0.02139568328857422,-0.017835140228271484,0.047872453927993774
1761371268480816600,3.900816650390625,-0.007019996643066406,-0.004099488258361816,0.05326166749000549
1761371268499429000,3.91942919921875,0.0022344589233398438,0.004291415214538574,0.03839394450187683
1761371268518040000,3.9380400390625,0.0020170211791992188,0.009823322296142578,0.004517555236816406
1761371268536652800,3.95665283203125,-0.01897907257080078,0.008530020713806152,-0.0157279372215271
1761371268555263700,3.975263671875,-0.011286735534667969,0.015265107154846191,-0.03476032614707947
1761371268573876500,3.99387646484375,-0.0016908645629882812,0.005801677703857422,-0.03481242060661316
1761371268592487400,4.0124873046875,0.007518768310546875,-0.0037043094635009766,-0.019453197717666626
1761371268611100000,4.031099853515625,0.0046901702880859375,-0.01141512393951416,0.020351916551589966
1761371268629710800,4.0497109375,-0.00728607177734375,-0.00737154483795166,0.02484932541847229
1761371268648323600,4.068323486328125,-0.03721809387207031,0.0018770694732666016,0.014211177825927734
1761371268666934500,4.0869345703125,-0.02406787872314453,0.009517788887023926,-0.026347815990447998
1761371268685547000,4.105547119140625,0.01629352569580078,0.005405068397521973,-0.045920759439468384
1761371268704158000,4.124157958984375,0.027260780334472656,-0.0019072294235229492,-0.03670486807823181
1761371268722770700,4.142770751953125,0.028516769409179688,-0.016588211059570312,-0.023250550031661987
1761371268741381600,4.161381591796875,-0.016826629638671875,-0.021204829216003418,-0.0008873641490936279
1761371268759994400,4.179994384765625,-0.027622222900390625,-0.008294343948364258,0.02005147933959961
1761371268778605300,4.198605224609375,-0.017128944396972656,0.011832714080810547,0.04069477319717407
1761371268797217800,4.2172177734375,-0.0023946762084960938,0.0478053092956543,0.012936681509017944
1761371268815828700,4.235828857421875,0.007039070129394531,0.04713296890258789,-0.00012248754501342773
1761371268834441500,4.25444140625,0.030038833618164062,0.036392807960510254,0.023545056581497192
1761371268853052400,4.273052490234375,0.012513160705566406,0.0036629438400268555,0.05059570074081421
1761371268871665200,4.2916650390625,-0.016178131103515625,-0.0069272518157958984,0.0420650839805603
1761371268890276000,4.310276123046875,-0.024845123291015625,-0.01824665069580078,0.0318833589553833
1761371268908888600,4.328888671875,-0.009629249572753906,-0.023676395416259766,0.038568198680877686
1761371268927499500,4.34749951171875,0.004525184631347656,-0.015251517295837402,0.028287231922149658
1761371268946112300,4.3661123046875,-0.014414787292480469,-0.007827043533325195,0.022359520196914673
1761371268964723200,4.38472314453125,-0.01621246337890625,-0.0027620792388916016,0.015919417142868042
1761371268983335700,4.403335693359375,-0.001575469970703125,-0.011652708053588867,-0.019697457551956177
1761371269001947000,4.42194677734375,0.024186134338378906,-0.003906965255737305,-0.03646045923233032
1761371269020559400,4.440559326171875,0.004825592041015625,-0.001135110855102539,-0.03446778655052185
1761371269039170300,4.45917041015625,-0.009166717529296875,0.004311084747314453,-0.028022557497024536
1761371269057783000,4.477782958984375,-0.013268470764160156,0.02183210849761963,-0.037816762924194336
1761371269076394000,4.49639404296875,0.010706901550292969,0.010271072387695312,-0.018758535385131836
1761371269095006500,4.51500634765625,-0.0013933181762695312,0.0031926631927490234,-0.01621416211128235
1761371269113617700,4.53361767578125,0.010357856750488281,-0.0084458589553833,0.0029275119304656982
1761371269132230100,4.552230224609375,0.005358695983886719,-0.019659757614135742,0.02173823118209839
1761371269150841000,4.570841064453125,0.0005598068237304688,-0.006562232971191406,0.02790924906730652
1761371269169453800,4.589453857421875,-0.0015344619750976562,0.006195187568664551,0.02133464813232422
1761371269188064800,4.608064697265625,-0.008349418640136719,0.0063629150390625,0.013753116130828857
1761371269206677200,4.62667724609375,-0.012643814086914062,-0.0030423402786254883,0.01071542501449585
1761371269225288400,4.645288330078125,-0.0121002197265625,-0.0028188228607177734,0.006604552268981934
1761371269243901000,4.66390087890625,0.011641502380371094,0.0071250200271606445,0.01375928521156311
1761371269262511900,4.682511962890625,0.013472557067871094,0.0119248628616333,0.016525566577911377
1761371269281124600,4.70112451171875,0.013047218322753906,0.01409447193145752,0.016126960515975952
1761371269299735600,4.719735595703125,0.0009508132934570312,0.006160855293273926,0.010798662900924683
1761371269318348000,4.73834814453125,-0.01780223846435547,-0.01118612289428711,0.008525371551513672
1761371269336959200,4.756959228515625,-0.019723892211914062,-0.025072336196899414,0.005104392766952515
1761371269355571700,4.77557177734375,-0.0026865005493164062,-0.018779516220092773,-0.014405965805053711
1761371269374182700,4.7941826171875,0.020859718322753906,-0.0029751062393188477,-0.03189659118652344
1761371269392795400,4.81279541015625,0.022520065307617188,0.004452943801879883,-0.02599942684173584
1761371269411406300,4.83140625,0.00984954833984375,0.012916803359985352,-0.006023883819580078
1761371269430018800,4.850018798828125,-0.009145736694335938,0.011626839637756348,0.0013628900051116943
1761371269448630000,4.868630126953125,-0.015771865844726562,-0.0074634552001953125,0.012630373239517212
1761371269467242500,4.887242431640625,-0.010512351989746094,-0.02271866798400879,0.002683013677597046
1761371269485853400,4.905853515625,0.006186485290527344,-0.007367968559265137,0.024442285299301147
1761371269504466200,4.924466064453125,0.015166282653808594,-0.0051048994064331055,0.027526140213012695
1761371269523077000,4.9430771484375,0.0029954910278320312,0.008654594421386719,0.01111900806427002
1761371269541689900,4.96168994140625,0.00522613525390625,0.029448747634887695,0.0012225508689880371
1761371269560300800,4.98030078125,0.005169868469238281,0.035871267318725586,-0.008548468351364136
1761371269578913300,4.998913330078125,-0.009001731872558594,0.03520607948303223,-0.02034848928451538
1761371269597524200,5.017524169921875,-0.006302833557128906,0.01311492919921875,-0.022784799337387085
1761371269616137000,5.036136962890625,-0.006028175354003906,-0.010641217231750488,-0.02337747812271118
1761371269634748000,5.054747802734375,0.003658294677734375,-0.01235949993133545,-0.0038871169090270996
1761371269653360600,5.073360595703125,0.008460044860839844,-0.00873112678527832,0.014225274324417114
1761371269671971600,5.0919716796875,0.022394180297851562,-0.005361080169677734,0.016071617603302002
1761371269690584000,5.110583984375,0.012226104736328125,0.006265521049499512,0.01754671335220337
1761371269709195000,5.129195068359375,0.0023012161254882812,-0.01348423957824707,0.008432567119598389
1761371269727807700,5.147807861328125,-0.00481414794921875,-0.030053377151489258,0.01399916410446167
1761371269746418700,5.166418701171875,-0.007124900817871094,-0.045633673667907715,0.009699493646621704
1761371269765031400,5.185031494140625,0.004725456237792969,-0.03753495216369629,0.007384389638900757
1761371269783642400,5.203642333984375,0.0021295547485351562,-0.025541305541992188,0.018304169178009033
1761371269802254800,5.2222548828125,-0.009573936462402344,-0.006432294845581055,0.02098780870437622
1761371269820865800,5.24086572265625,-0.0044574737548828125,0.012855887413024902,0.013806462287902832
1761371269839478500,5.259478515625,0.005116462707519531,0.015021085739135742,0.007526993751525879
1761371269858089500,5.27808935546875,0.004769325256347656,0.016208410263061523,-0.006293237209320068
1761371269876702200,5.2967021484375,-0.00022983551025390625,0.031409621238708496,-0.027497559785842896
1761371269895313200,5.315313232421875,0.011361122131347656,0.04413497447967529,-0.028851032257080078
1761371269913925600,5.333925537109375,0.020288467407226562,0.03772568702697754,-0.01986047625541687
1761371269932536600,5.35253662109375,-0.0013246536254882812,0.02941906452178955,-0.007105886936187744
1761371269951149300,5.3711494140625,0.005833625793457031,0.002832651138305664,0.026052385568618774
1761371269969760300,5.38976025390625,0.0008840560913085938,-0.030179977416992188,0.04629465937614441
1761371269988373000,5.408373046875,-0.013326644897460938,-0.04583477973937988,0.04256844520568848
1761371270006984000,5.42698388671875,-0.013057708740234375,-0.047071099281311035,0.025811821222305298
1761371270025596400,5.445596435546875,-0.005702972412109375,-0.04337894916534424,0.027435302734375
1761371270044207400,5.464207275390625,0.003688812255859375,-0.01874685287475586,0.027160465717315674
1761371270062820000,5.482820068359375,0.0036792755126953125,-0.006483793258666992,0.030190646648406982
1761371270081431000,5.50143115234375,0.0013179779052734375,0.010367155075073242,-0.004470735788345337
1761371270100043800,5.520043701171875,-0.0010013580322265625,0.031211256980895996,-0.03494581580162048
1761371270118654700,5.53865478515625,0.006041526794433594,0.032264113426208496,-0.04482808709144592
1761371270137267200,5.55726708984375,0.0032911300659179688,0.004758000373840332,-0.028069525957107544
1761371270155878400,5.57587841796875,0.009944915771484375,-0.01266181468963623,-0.038306355476379395
1761371270174491000,5.594490966796875,0.0026140213012695312,-0.006011605262756348,-0.026086509227752686
1761371270193101800,5.613101806640625,-0.006814002990722656,0.006082653999328613,-0.01074451208114624
1761371270211714600,5.631714599609375,-0.013251304626464844,0.03308415412902832,0.004162967205047607
1761371270230325500,5.650325439453125,-0.00307464599609375,0.029126763343811035,0.030848711729049683
1761371270248938000,5.66893798828125,0.011063575744628906,0.005615711212158203,0.0461115837097168
1761371270267549200,5.687549072265625,0.005919456481933594,-0.010883331298828125,0.03343510627746582
1761371270286161700,5.70616162109375,-0.0012712478637695312,-0.017888784408569336,0.019137084484100342
1761371270304772600,5.724772705078125,-0.0013399124145507812,-0.006257772445678711,0.026073038578033447
1761371270323385300,5.74338525390625,-0.012991905212402344,0.002874135971069336,0.02749648690223694
1761371270341996300,5.761996337890625,-0.0030574798583984375,0.010037064552307129,0.026196300983428955
1761371270360608800,5.78060888671875,0.0017032623291015625,0.007784843444824219,0.034418582916259766
1761371270379220000,5.799219970703125,0.010944366455078125,-0.013278722763061523,0.015011578798294067
1761371270397832400,5.81783251953125,0.01973438262939453,-0.03914356231689453,0.00024321675300598145
1761371270416443400,5.836443359375,0.009477615356445312,-0.05539238452911377,-0.02758905291557312
1761371270435056000,5.85505615234375,-0.00041484832763671875,-0.0409696102142334,-0.030136853456497192
1761371270453667000,5.8736669921875,-0.019159317016601562,-0.012217402458190918,-0.019821077585220337
1761371270472279600,5.892279541015625,-0.01605224609375,0.02602827548980713,-0.012736082077026367
1761371270490890800,5.910890869140625,0.014966964721679688,0.032855868339538574,-0.0034236013889312744
1761371270509503200,5.929503173828125,0.02151966094970703,0.0227125883102417,-0.017966002225875854
1761371270528114200,5.9481142578125,0.009119033813476562,0.019654273986816406,-0.010411977767944336
1761371270546727000,5.966726806640625,0.004101753234863281,0.021290302276611328,-0.013942807912826538
1761371270565337900,5.985337890625,0.010862350463867188,0.03696882724761963,0.0024055540561676025
1761371270583950300,6.003950439453125,-0.0036497116088867188,0.03538203239440918,0.022414475679397583
1761371270602561300,6.022561279296875,-0.0012054443359375,0.02201712131500244,0.04048529267311096
1761371270621174000,6.041174072265625,-0.005806922912597656,-0.013984203338623047,0.030973851680755615
1761371270639785000,6.059784912109375,-0.005599021911621094,-0.05569624900817871,0.011933654546737671
1761371270658397700,6.078397705078125,-0.00070953369140625,-0.06118917465209961,-0.005815863609313965
1761371270677008600,6.097008544921875,-0.007729530334472656,-0.038548827171325684,-0.012497544288635254
1761371270695621000,6.11562109375,0.004238128662109375,-0.009386062622070312,-0.009517431259155273
1761371270714232000,6.134232177734375,0.011088371276855469,0.023410320281982422,0.0020483434200286865
1761371270732844800,6.1528447265625,-0.0009708404541015625,0.022255659103393555,0.014725446701049805
1761371270751455700,6.171455810546875,-0.0055751800537109375,0.011775612831115723,-0.0036833584308624268
1761371270770068500,6.190068359375,-0.007697105407714844,0.006460070610046387,-0.02043050527572632
1761371270788679400,6.208679443359375,-0.0005931854248046875,-0.01255500316619873,-0.016055256128311157
1761371270807292000,6.2272919921875,-0.007737159729003906,-0.01486504077911377,0.02447006106376648
1761371270825902800,6.24590283203125,0.008685111999511719,0.011044621467590332,0.04232335090637207
1761371270844515600,6.264515625,0.006018638610839844,0.015203356742858887,0.03742247819900513
1761371270863126500,6.28312646484375,0.008142471313476562,0.00989675521850586,0.04583102464675903
1761371270881739300,6.3017392578125,-0.0039157867431640625,0.0024977922439575195,0.037525683641433716
1761371270900350200,6.32035009765625,-0.015470504760742188,-0.0045288801193237305,0.033038556575775146
1761371270918962700,6.338962646484375,-0.0057697296142578125,-0.01625239849090576,0.013584524393081665
1761371270937573600,6.35757373046875,0.012956619262695312,-0.001953601837158203,-0.005736321210861206
1761371270956186400,6.376186279296875,0.012445449829101562,0.004667043685913086,-0.019763290882110596
1761371270974797300,6.39479736328125,-0.0019140243530273438,0.015759825706481934,-0.013847410678863525
1761371270993410000,6.41341015625,0.0004100799560546875,0.021398305892944336,-0.012624472379684448
1761371271012021000,6.43202099609375,0.0026464462280273438,0.01973891258239746,-0.010377734899520874
1761371271030633500,6.450633544921875,0.00006771087646484375,0.0044699907302856445,-0.023418784141540527
1761371271049244400,6.469244384765625,0.004727363586425781,-0.014231562614440918,-0.024499505758285522
1761371271067857200,6.487857177734375,0.014008522033691406,-0.012978315353393555,-0.02145671844482422
1761371271086468000,6.506468017578125,0.0019979476928710938,-0.011954188346862793,-0.01206427812576294
1761371271105080800,6.525080810546875,-0.0027561187744140625,-0.00006663799285888672,-0.01653456687927246
1761371271123691800,6.54369189453125,-0.014431953430175781,-0.0003809928894042969,-0.02236500382423401
1761371271142304300,6.56230419921875,-0.018548011779785156,0.0049898624420166016,-0.00728219747543335
1761371271160915200,6.580915283203125,-0.0058269500732421875,0.011106014251708984,0.0073570311069488525
1761371271179528000,6.59952783203125,0.0016832351684570312,0.007966160774230957,0.0050186216831207275
1761371271198139000,6.618138916015625,-0.000141143798828125,0.008074283599853516,-0.005106210708618164
1761371271216751600,6.636751708984375,0.0051116943359375,0.008127450942993164,0.008973091840744019
1761371271235362600,6.655362548828125,0.005446434020996094,-0.0016132593154907227,0.02603989839553833
1761371271253975000,6.67397509765625,0.014997482299804688,0.007311820983886719,0.061546921730041504
1761371271272586000,6.6925859375,-0.0013227462768554688,0.011157751083374023,0.06726914644241333
1761371271291198700,6.71119873046875,0.04785728454589844,0.0032052993774414062,0.11024338006973267
1761371271309809700,6.7298095703125,0.024173736572265625,0.011081218719482422,0.04814445972442627
1761371271328422400,6.74842236328125,-0.061260223388671875,0.015346765518188477,0.0040627121925354
1761371271347033300,6.767033447265625,-0.061669349670410156,0.010854244232177734,-0.026871949434280396
1761371271365645800,6.785645751953125,0.012987136840820312,-0.018352746963500977,-0.01329144835472107
1761371271384256800,6.8042568359375,0.056824684143066406,-0.03190815448760986,0.01045265793800354
1761371271402869500,6.822869384765625,0.028993606567382812,-0.03268325328826904,0.006621956825256348
1761371271421480400,6.84148046875,-0.023652076721191406,-0.009955883026123047,-0.005571573972702026
1761371271440093200,6.86009326171875,-0.025409698486328125,-0.00581967830657959,-0.005134493112564087
1761371271458704100,6.8787041015625,-0.010868072509765625,0.005639433860778809,-0.011417090892791748
1761371271477316600,6.897316650390625,0.010319709777832031,0.01636648178100586,-0.02429988980293274
1761371271495927600,6.915927490234375,0.01675701141357422,0.016951322555541992,-0.02622663974761963
1761371271514540300,6.934540283203125,-0.011839866638183594,0.01093912124633789,-0.0190657377243042
1761371271533151200,6.953151123046875,-0.03217887878417969,0.011203527450561523,-0.009880512952804565
1761371271551764000,6.971763916015625,-0.02837848663330078,0.014778614044189453,0.0010065138339996338
1761371271570375000,6.990375,0.0007982254028320312,0.006930232048034668,-0.01025208830833435
1761371271588987400,7.0089873046875,0.005517005920410156,0.0010508298873901367,-0.014914751052856445
1761371271607598300,7.027598388671875,0.001007080078125,-0.02107560634613037,0.00899195671081543
1761371271626211000,7.046211181640625,0.05276775360107422,-0.02951657772064209,0.008353590965270996
1761371271644822000,7.064822021484375,0.043374061584472656,-0.0020102262496948242,-0.003642171621322632
1761371271663434800,7.083434814453125,-0.01663494110107422,0.020537614822387695,-0.01340407133102417
1761371271682045700,7.102045654296875,-0.04172039031982422,0.029696226119995117,-0.01589679718017578
1761371271700658200,7.120658203125,-0.016808509826660156,0.01309657096862793,0.013155877590179443
1761371271719269000,7.13926904296875,0.01658344268798828,0.013063788414001465,0.02310013771057129
1761371271737881900,7.1578818359375,0.027708053588867188,0.0026236772537231445,0.06407192349433899
1761371271756492800,7.176492919921875,0.0010557174682617188,-0.011780261993408203,0.06631314754486084
1761371271775105500,7.19510546875,-0.0035943984985351562,-0.03440296649932861,0.059310317039489746
1761371271793716500,7.213716552734375,-0.0059032440185546875,-0.04202103614807129,0.04226565361022949
1761371271812329000,7.232328857421875,-0.012995719909667969,-0.02637159824371338,0.0024044811725616455
1761371271830940000,7.25093994140625,0.0035305023193359375,-0.0026050806045532227,-0.016321033239364624
1761371271849552600,7.269552734375,0.010164260864257812,0.007634878158569336,-0.0263386070728302
1761371271868163600,7.28816357421875,0.00043487548828125,0.01751530170440674,-0.053077757358551025
1761371271886776000,7.306776123046875,0.0004405975341796875,0.01175391674041748,-0.06774219870567322
1761371271905387000,7.325386962890625,0.0029191970825195312,-0.004131436347961426,-0.03801879286766052
1761371271923999700,7.343999755859375,0.0006046295166015625,-0.0071103572845458984,-0.027923107147216797
1761371271942610700,7.362610595703125,0.007592201232910156,-0.015414118766784668,-0.011345118284225464
1761371271961223400,7.381223388671875,0.005057334899902344,-0.024283766746520996,0.006197541952133179
1761371271979834400,7.39983447265625,-0.004183769226074219,-0.0047380924224853516,0.017935574054718018
1761371271998446800,7.41844677734375,-0.006129264831542969,-0.0015503168106079102,0.015758752822875977
1761371272017057800,7.437057861328125,0.005864143371582031,0.015384554862976074,0.024202287197113037
1761371272035670500,7.45567041015625,-0.006161689758300781,0.01987600326538086,0.023127585649490356
1761371272054281500,7.474281494140625,-0.005961418151855469,0.019743680953979492,0.010494828224182129
1761371272072894200,7.492894287109375,0.010626792907714844,0.007687926292419434,-0.010727465152740479
1761371272091505200,7.511505126953125,0.02428150177001953,-0.014269232749938965,-0.01676809787750244
1761371272110117600,7.53011767578125,0.009267807006835938,-0.0221177339553833,0.005382180213928223
1761371272128728600,7.548728515625,-0.005103111267089844,-0.013093113899230957,0.013746887445449829
1761371272147341300,7.56734130859375,-0.039886474609375,0.006504178047180176,0.03842568397521973
1761371272165952300,7.5859521484375,-0.021920204162597656,0.02408754825592041,0.026619136333465576
1761371272184565000,7.60456494140625,0.013963699340820312,0.010040521621704102,0.015943586826324463
1761371272203176000,7.623176025390625,0.020343780517578125,0.002333521842956543,0.01116800308227539
1761371272221788400,7.641788330078125,0.007922172546386719,-0.002925276756286621,0.007438838481903076
1761371272240399400,7.6603994140625,-0.0041294097900390625,-0.009937167167663574,0.01813492178916931
1761371272259012000,7.67901220703125,0.0006818771362304688,-0.0023658275604248047,0.03268849849700928
1761371272277623000,7.697623046875,-0.0016727447509765625,0.016643166542053223,0.006865859031677246
1761371272296235500,7.716235595703125,-0.004012107849121094,0.02304255962371826,-0.019795119762420654
1761371272314846700,7.7348466796875,0.0005693435668945312,0.021951675415039062,-0.010009139776229858
1761371272333459200,7.753459228515625,-0.013537406921386719,0.004391908645629883,0.015000790357589722
1761371272352070100,7.772070068359375,0.0032854080200195312,-0.0024536848068237305,0.017168909311294556
1761371272370683000,7.790682861328125,-0.0014276504516601562,-0.011089682579040527,0.013735443353652954
1761371272389293800,7.8092939453125,0.010419845581054688,-0.0057572126388549805,-0.0039289891719818115
1761371272407906300,7.82790625,-0.0062694549560546875,-0.0054132938385009766,-0.02255570888519287
1761371272426517500,7.846517578125,-0.0060939788818359375,0.006524324417114258,-0.02165234088897705
1761371272445130000,7.8651298828125,-0.00121307373046875,0.013401985168457031,-0.006860077381134033
1761371272463741000,7.883740966796875,-0.0010957717895507812,0.0013524293899536133,-0.007083773612976074
1761371272482353700,7.902353759765625,-0.0032444000244140625,-0.0026781558990478516,-0.0032674670219421387
1761371272500964600,7.920964599609375,-0.005340576171875,-0.01108241081237793,0.0024832487106323242
1761371272519577000,7.9395771484375,0.006722450256347656,-0.0051043033599853516,0.010832071304321289
1761371272538188000,7.95818798828125,0.006618499755859375,0.003035426139831543,0.01291966438293457
1761371272556800800,7.97680078125,0.0018749237060546875,0.003954052925109863,0.017627358436584473
1761371272575411700,7.99541162109375,0.008860588073730469,0.002555370330810547,0.015202939510345459
1761371272594024400,8.0140244140625,-0.0005769729614257812,0.02265310287475586,0.002940744161605835
1761371272612635400,8.032635498046876,-0.0001010894775390625,0.04982602596282959,0.002436399459838867
1761371272631248000,8.051247802734375,0.006966590881347656,0.03809154033660889,-0.006727874279022217
1761371272649858800,8.06985888671875,0.013692855834960938,0.0019763708114624023,0.00014030933380126953
1761371272668471600,8.088471435546875,0.01769542694091797,-0.04776489734649658,-0.04270687699317932
1761371272687082500,8.10708251953125,-0.00159454345703125,-0.058788418769836426,-0.024443089962005615
1761371272705695000,8.125695068359375,-0.01756000518798828,-0.0707937479019165,0.03023242950439453
1761371272724306000,8.144305908203124,-0.0326690673828125,-0.050444602966308594,0.08142530918121338
1761371272742918700,8.162918701171876,-0.03567028045654297,0.009785294532775879,0.0906059741973877
1761371272761529600,8.181529541015625,-0.013379096984863281,0.05531013011932373,0.031145572662353516
1761371272780142300,8.200142333984376,0.012587547302246094,0.05829942226409912,-0.06297877430915833
1761371272798753300,8.218753173828125,0.039989471435546875,0.01879751682281494,-0.08778291940689087
1761371272817365800,8.23736572265625,0.03196907043457031,-0.023691773414611816,-0.07297730445861816
1761371272835976700,8.255976806640625,0.019415855407714844,-0.041549086570739746,-0.04468521475791931
1761371272854589400,8.27458935546875,-0.022968292236328125,-0.026583313941955566,-0.020001888275146484
1761371272873200400,8.293200439453125,-0.038501739501953125,-0.011626720428466797,0.017401278018951416
1761371272891812900,8.311812744140624,-0.011376380920410156,0.013087272644042969,0.04971796274185181
1761371272910424000,8.330424072265625,0.042530059814453125,0.02679896354675293,0.07499969005584717
1761371272929036500,8.34903662109375,0.014992713928222656,0.03004622459411621,0.023800253868103027
1761371272947647500,8.3676474609375,-0.02030467987060547,0.024576902389526367,0.013549506664276123
1761371272966260200,8.38626025390625,-0.005455970764160156,0.008350610733032227,0.006599783897399902
1761371272984871200,8.40487109375,0.00650787353515625,-0.005457639694213867,0.02827519178390503
1761371273003483600,8.423483642578125,0.008573532104492188,-0.007935404777526855,0.030326008796691895
1761371273022094600,8.442094482421876,-0.0104217529296875,-0.0008671283721923828,0.03807169198989868
1761371273040707300,8.460707275390625,0.0015230178833007812,-0.012453436851501465,0.030975639820098877
1761371273059318300,8.479318359375,0.02448749542236328,-0.010720014572143555,0.016779959201812744
1761371273077931000,8.497930908203125,-0.023123741149902344,-0.009088993072509766,0.00014716386795043945
1761371273096542000,8.5165419921875,-0.024575233459472656,-0.010914325714111328,-0.016728639602661133
1761371273115154400,8.535154541015626,0.0022401809692382812,-0.0069580078125,-0.030565083026885986
1761371273133765400,8.553765380859375,0.023141860961914062,-0.006241440773010254,-0.036058008670806885
1761371273152378000,8.572378173828126,0.012738227844238281,-0.013793587684631348,-0.03776171803474426
1761371273170989000,8.590989013671875,-0.0065059661865234375,-0.00014281272888183594,-0.04187098145484924
1761371273189601500,8.6096015625,-0.003907203674316406,0.0044078826904296875,-0.037664830684661865
1761371273208212500,8.62821240234375,-0.0036401748657226562,0.016701459884643555,-0.006662487983703613
1761371273226825200,8.6468251953125,0.005962371826171875,0.03136444091796875,0.020291805267333984
1761371273245436200,8.665436279296875,0.005839347839355469,0.021457433700561523,0.030063867568969727
1761371273264048600,8.684048583984374,-0.008395195007324219,0.006258368492126465,0.012160003185272217
1761371273282659800,8.702659912109375,-0.01044464111328125,0.0006242990493774414,0.005352437496185303
1761371273301272300,8.721272216796875,0.0013589859008789062,-0.011554241180419922,0.00016194581985473633
1761371273319883300,8.73988330078125,0.01757335662841797,-0.008850932121276855,0.025317728519439697
1761371273338496000,8.75849609375,0.007568359375,-0.001639723777770996,0.03386569023132324
1761371273357107000,8.77710693359375,-0.006641387939453125,-0.0184401273727417,0.03756976127624512
1761371273375719400,8.795719482421875,-0.020359039306640625,-0.04202449321746826,0.029039084911346436
1761371273394330400,8.814330322265626,-0.019629478454589844,-0.05288660526275635,0.0059822797775268555
1761371273412943000,8.832943115234375,-0.0004940032958984375,-0.04417240619659424,-0.007092475891113281
1761371273431554000,8.851553955078124,0.020509719848632812,-0.01934373378753662,-0.016992926597595215
1761371273450166800,8.870166748046875,0.022202491760253906,0.007090210914611816,-0.01166623830795288
1761371273468777700,8.88877783203125,0.009859085083007812,0.013846278190612793,0.008148491382598877
1761371273487390200,8.90739013671875,0.0002498626708984375,0.011052131652832031,-0.007446169853210449
1761371273506001200,8.926001220703125,-0.011507034301757812,0.040660858154296875,-0.02246752381324768
1761371273524614000,8.94461376953125,-0.01361846923828125,0.04134058952331543,-0.01662886142730713
1761371273543224800,8.963224853515625,0.002979278564453125,0.0325702428817749,0.0005304217338562012
1761371273561837300,8.98183740234375,0.014514923095703125,0.010202884674072266,-0.0029940009117126465
1761371273580448300,9.0004482421875,0.011627197265625,0.021570563316345215,0.015155553817749023
1761371273599061000,9.01906103515625,0.009206771850585938,0.030827641487121582,0.024156510829925537
1761371273617672000,9.037671875,-0.007275581359863281,0.03241539001464844,0.03544360399246216
1761371273636284400,9.056284423828124,-0.02113819122314453,0.003141164779663086,0.03649097681045532
1761371273654895600,9.0748955078125,-0.008840560913085938,-0.01610851287841797,0.03261983394622803
1761371273673508000,9.093508056640625,-0.0016574859619140625,-0.02762305736541748,0.012209773063659668
1761371273692119000,9.112119140625,0.024079322814941406,-0.01987278461456299,-0.012573063373565674
1761371273710731800,9.130731689453125,0.020956039428710938,-0.026720285415649414,-0.028432399034500122
1761371273729342700,9.1493427734375,-0.007786750793457031,-0.016987204551696777,-0.0256480872631073
1761371273747955200,9.167955078125,-0.028611183166503906,0.00007176399230957031,0.0004898309707641602
1761371273766566100,9.186566162109376,-0.01373291015625,0.00528264045715332,0.0010822415351867676
1761371273785179000,9.205178955078125,0.012348175048828125,-0.0020407438278198242,-0.0015082955360412598
1761371273803789800,9.223789794921874,0.018754959106445312,-0.016666889190673828,-0.007804989814758301
1761371273822402300,9.24240234375,0.013296127319335938,-0.035860657691955566,-0.007415175437927246
1761371273841013500,9.261013427734374,-0.022184371948242188,-0.03234601020812988,-0.001920938491821289
1761371273859626000,9.2796259765625,-0.02134227752685547,-0.0023195743560791016,-0.0032930970191955566
1761371273878237000,9.29823681640625,-0.006366729736328125,0.031680941581726074,0.008706808090209961
1761371273896849400,9.316849365234376,0.021820068359375,0.04006373882293701,0.018917620182037354
1761371273915460600,9.335460693359375,0.009285926818847656,0.0300828218460083,0.011978447437286377
1761371273934073000,9.354072998046876,-0.009926795959472656,0.027280330657958984,-0.0212613046169281
1761371273952684000,9.37268408203125,-0.009746551513671875,0.025580525398254395,-0.007332444190979004
1761371273971296800,9.391296875,0.013790130615234375,0.029217243194580078,0.006952464580535889
1761371273989907700,9.40990771484375,0.03651237487792969,0.015755295753479004,0.011989057064056396
1761371274008520200,9.428520263671874,-0.0048618316650390625,-0.019917845726013184,0.0498661994934082
1761371274027131100,9.447131103515625,-0.09072017669677734,-0.045084595680236816,0.06795042753219604
1761371274045743900,9.465743896484375,-0.028997421264648438,-0.05328571796417236,-0.0006082057952880859
1761371274064354800,9.484354736328125,0.0255279541015625,-0.05509054660797119,-0.041259050369262695
1761371274082967300,9.50296728515625,0.03819561004638672,-0.0282442569732666,-0.047981202602386475
1761371274101578200,9.521578125,0.008699417114257812,-0.004911065101623535,-0.05513313412666321
1761371274120191000,9.54019091796875,-0.0009031295776367188,-0.005367755889892578,-0.02319273352622986
1761371274138802000,9.558802001953126,-0.023881912231445312,-0.012132525444030762,0.03002309799194336
1761371274157414700,9.57741455078125,-0.036757469177246094,0.016939282417297363,0.04414612054824829
1761371274176025600,9.596025634765626,-0.00760650634765625,0.047434091567993164,0.04611802101135254
1761371274194638000,9.61463818359375,0.004151344299316406,0.050679922103881836,0.027460873126983643
1761371274213249000,9.6332490234375,0.0036602020263671875,0.03209662437438965,0.03053915500640869
1761371274231861800,9.65186181640625,0.005837440490722656,0.018819332122802734,0.028420448303222656
1761371274250472700,9.67047265625,0.007959365844726562,-0.015280604362487793,0.02101033926010132
1761371274269085200,9.689085205078126,-0.02033710479736328,-0.019916892051696777,0.008362352848052979
1761371274287696100,9.707696044921875,-0.04294109344482422,-0.012013077735900879,-0.0013968348503112793
1761371274306308900,9.726308837890626,-0.013414382934570312,0.00959014892578125,-0.015123337507247925
1761371274324919800,9.744919921875,0.026485443115234375,0.014169454574584961,-0.016594260931015015
1761371274343532300,9.7635322265625,0.023230552673339844,0.007120728492736816,-0.01382395625114441
1761371274362143200,9.782143310546875,0.008592605590820312,-0.011769652366638184,-0.023051083087921143
1761371274380756000,9.800755859375,-0.014983177185058594,-0.021124839782714844,-0.026679694652557373
1761371274399367000,9.819366943359375,-0.0192108154296875,-0.00409698486328125,-0.034369587898254395
1761371274417979600,9.837979736328125,-0.004642486572265625,0.014516472816467285,-0.011965245008468628
1761371274436590600,9.856590576171875,0.011640548706054688,0.020528435707092285,0.0019401311874389648
1761371274455203000,9.875203125,0.013519287109375,0.019225716590881348,0.015164017677307129
1761371274473814000,9.89381396484375,-0.007946968078613281,0.015761852264404297,0.02416306734085083
1761371274492426800,9.9124267578125,-0.014492034912109375,0.010567665100097656,0.027675092220306396
1761371274511037700,9.93103759765625,-0.011615753173828125,0.0005584955215454102,0.034653544425964355
1761371274529650200,9.949650146484375,-0.034885406494140625,-0.02328956127166748,0.043290019035339355
1761371274548261000,9.96826123046875,-0.0123748779296875,-0.033971428871154785,0.035594642162323
1761371274566873900,9.986873779296875,0.02758026123046875,-0.023778200149536133,0.016624927520751953
1761371274585484800,10.00548486328125,0.024041175842285156,-0.007897019386291504,-0.0043111443519592285
1761371274604097300,10.02409716796875,-0.000354766845703125,0.0024938583374023438,-0.015962541103363037
1761371274622708200,10.042708251953124,-0.016643524169921875,0.018273234367370605,-0.017135262489318848
1761371274641321000,10.061321044921876,-0.006503105163574219,0.04121279716491699,-0.030305862426757812
1761371274659932000,10.079931884765625,0.0075778961181640625,0.03919351100921631,-0.04757469892501831
1761371274678544600,10.098544677734376,0.023221969604492188,0.03316032886505127,-0.029457449913024902
1761371274697155600,10.117155517578125,0.0008172988891601562,-0.008756279945373535,0.03132951259613037
1761371274715768000,10.13576806640625,-0.02284717559814453,-0.03929698467254639,0.08393245935440063
1761371274734379000,10.15437890625,-0.04530811309814453,-0.020552873611450195,0.04990190267562866
1761371274752991700,10.17299169921875,0.008038520812988281,0.002498626708984375,-0.017452865839004517
1761371274771602700,10.191602783203125,0.05160808563232422,-0.026891708374023438,-0.039467304944992065
1761371274790215200,10.210215087890624,0.0023975372314453125,-0.03431248664855957,-0.001631319522857666
1761371274808826000,10.228826171875,-0.025557518005371094,-0.029706120491027832,-0.0197409987449646
1761371274827438800,10.24743896484375,0.015150070190429688,-0.05465960502624512,-0.015772461891174316
1761371274846049800,10.2660498046875,0.01900768280029297,-0.04522085189819336,0.039364635944366455
1761371274864662300,10.284662353515625,0.0039653778076171875,0.0002034902572631836,0.058465421199798584
1761371274883273200,10.303273193359376,-0.022008895874023438,-0.00876009464263916,0.06472337245941162
1761371274901886000,10.321885986328125,-0.026291847229003906,-0.03896129131317139,0.04917168617248535
1761371274920497000,10.340496826171876,-0.020740509033203125,0.008433341979980469,0.003010571002960205
1761371274939109600,10.359109619140625,0.038420677185058594,0.07127499580383301,-0.04949799180030823
1761371274957720600,10.377720458984374,0.022558212280273438,0.04691648483276367,-0.08433043956756592
1761371274976333000,10.3963330078125,-0.039015769958496094,0.04328274726867676,-0.05624669790267944
1761371274994944000,10.414944091796874,0.0024595260620117188,0.0606534481048584,-0.022380471229553223
1761371275013556700,10.433556640625,0.04945850372314453,0.05794095993041992,-0.059047192335128784
1761371275032167700,10.452167724609374,0.015539169311523438,0.096091628074646,-0.06441304087638855
1761371275050780200,10.4707802734375,-0.012249946594238281,0.11535227298736572,-0.025276899337768555
1761371275069391000,10.48939111328125,-0.020880699157714844,0.050997138023376465,0.033594608306884766
1761371275088003800,10.50800390625,-0.055350303649902344,-0.055574893951416016,0.0250416100025177
1761371275106614800,10.52661474609375,-0.02772808074951172,-0.11047589778900146,-0.0404239296913147
1761371275125227500,10.5452275390625,0.07682323455810547,-0.05050170421600342,-0.09935849905014038
1761371275143838200,10.563838134765625,0.15624332427978516,-0.016881704330444336,-0.11351004242897034
1761371275162451000,10.582450927734374,0.03608417510986328,-0.03704953193664551,-0.006022781133651733
1761371275181062000,10.601061767578125,-0.12888431549072266,-0.016442060470581055,0.10454821586608887
1761371275199674600,10.619674560546875,-0.14038658142089844,0.01109766960144043,0.11829566955566406
1761371275218285600,10.63828564453125,-0.04179573059082031,-0.03188800811767578,0.12367534637451172
1761371275236898000,10.65689794921875,0.07629966735839844,-0.10812640190124512,0.0936274528503418
1761371275255509000,10.675509033203125,0.11332511901855469,-0.1098177433013916,0.10388988256454468
1761371275274121700,10.694121826171875,0.02330493927001953,-0.06056714057922363,0.14906787872314453
1761371275292732700,10.712732666015626,-0.07532978057861328,-0.012441873550415039,0.1522778868675232
1761371275311345200,10.73134521484375,-0.0822296142578125,0.04344773292541504,0.13633960485458374
1761371275329956000,10.7499560546875,-0.024285316467285156,0.08223569393157959,0.12091439962387085
1761371275348568800,10.76856884765625,0.047745704650878906,0.08147597312927246,0.05432695150375366
1761371275367179800,10.7871796875,0.06186962127685547,0.02975642681121826,-0.03763014078140259
1761371275385792800,10.805792724609375,0.026704788208007812,-0.03211557865142822,-0.09434041380882263
1761371275404403700,10.82440380859375,-0.014127731323242188,-0.0843743085861206,-0.11623930931091309
1761371275423016200,10.84301611328125,-0.03717613220214844,-0.0700453519821167,-0.15150752663612366
1761371275441627100,10.861627197265625,0.0031728744506835938,0.05088531970977783,-0.19249191880226135
1761371275460240000,10.880239990234376,0.01988506317138672,0.13661956787109375,-0.1022779643535614
1761371275478850800,10.898850830078125,0.009952545166015625,0.10480427742004395,0.003450751304626465
1761371275497463300,10.91746337890625,0.017592430114746094,0.025771737098693848,0.014668911695480347
1761371275516074200,10.93607421875,0.0023279190063476562,-0.0409470796585083,-0.0393352210521698
1761371275534687000,10.95468701171875,-0.02637481689453125,-0.02863025665283203,-0.0843731164932251
1761371275553298000,10.9732978515625,-0.0028791427612304688,-0.024388909339904785,-0.1744365394115448
1761371275571910400,10.991910400390625,0.04768848419189453,-0.050459861755371094,-0.13964954018592834
