time,seconds_elapsed,z,y,x
1761371132326511900,0.111511962890625,-1.5252856016159058,-0.2405974566936493,-0.6036698222160339
1761371132354429400,0.139429443359375,-1.530172348022461,-0.12942326068878174,-0.6140542030334473
1761371132373042200,0.158042236328125,-1.508792757987976,-0.20394663512706757,-0.59023118019104
1761371132391653000,0.176653076171875,-1.4483188390731812,-0.44034451246261597,-0.5560237169265747
1761371132410265900,0.195265869140625,-1.342031478881836,-0.676742434501648,-0.488219678401947
1761371132428876800,0.213876708984375,-1.2406307458877563,-0.7818081378936768,-0.3733803927898407
1761371132447489500,0.232489501953125,-1.1593880653381348,-0.7543200254440308,-0.23838314414024353
1761371132466100500,0.2511005859375,-1.0842539072036743,-0.6730773448944092,-0.11865708231925964
1761371132484713200,0.269713134765625,-1.050046443939209,-0.5576272010803223,-0.038636088371276855
1761371132503324200,0.28832421875,-0.9767447710037231,-0.37681639194488525,-0.010537114925682545
1761371132521937000,0.30693701171875,-0.9034430980682373,-0.010918894782662392,-0.0032069480512291193
1761371132540547800,0.3255478515625,-0.8594620823860168,0.25479966402053833,-0.001985253533348441
1761371132559160600,0.34416064453125,-0.8576295375823975,0.4563792645931244,0.0029778804164379835
1761371132577771500,0.362771484375,-0.8741224408149719,0.711713433265686,0.012751436792314053
1761371132596384000,0.381384033203125,-0.9040539264678955,0.8980218172073364,0.026190076023340225
1761371132614995200,0.3999951171875,-0.911384105682373,0.8534299731254578,0.0555107444524765
1761371132633607700,0.418607666015625,-0.9339854717254639,0.7599703669548035,0.10437852889299393
1761371132652219000,0.437218994140625,-1.02683424949646,0.6500178575515747,0.12636902928352356
1761371132670831400,0.455831298828125,-1.0677610635757446,0.5284592509269714,0.10132429003715515
1761371132689442600,0.474442626953125,-1.0524898767471313,0.4576009511947632,0.021914144977927208
1761371132708055000,0.493054931640625,-0.9614735841751099,0.5651100873947144,-0.05329642444849014
1761371132726666200,0.511666259765625,-0.8148702383041382,0.46004435420036316,-0.04840964451432228
1761371132745278700,0.53027880859375,-0.6438329815864563,0.014736690558493137,0.05123481526970863
1761371132763890000,0.548889892578125,-0.5442649126052856,0.19738002121448517,0.1471378356218338
1761371132782502400,0.56750244140625,-0.5008947253227234,0.8338828682899475,0.28335678577423096
1761371132801113600,0.586113525390625,-0.38910970091819763,1.1154834032058716,0.593056321144104
1761371132819726000,0.60472607421875,-0.237008735537529,1.1716814041137695,1.0151517391204834
1761371132838337300,0.623337158203125,-0.11361759155988693,1.291483759880066,1.3053042888641357
1761371132856949800,0.64194970703125,0.047646086663007736,1.2670499086380005,1.3865469694137573
1761371132875560700,0.660560791015625,0.2339545041322708,0.770965576171875,1.2167314291000366
1761371132894173400,0.67917333984375,0.36039987206459045,0.09964445978403091,0.875267744064331
1761371132912784400,0.697784423828125,0.4489727318286896,-0.3016822040081024,0.6877376437187195
1761371132931397000,0.716397216796875,0.29687178134918213,-0.3975852131843567,0.7066739201545715
1761371132950008000,0.735008056640625,0.1563768982887268,-0.0823880210518837,0.852055549621582
1761371132968620800,0.753620849609375,0.11972606182098389,0.39346200227737427,0.990717887878418
1761371132987231700,0.772231689453125,0.19180603325366974,0.7208760976791382,1.01942777633667
1761371133005844500,0.790844482421875,0.32130566239356995,0.8528191447257996,0.958953857421875
1761371133024455400,0.809455322265625,0.3500154912471771,0.7367581725120544,0.7830298542976379
1761371133043068200,0.828068115234375,0.40193748474121094,0.6518504023551941,0.5252522826194763
1761371133061679000,0.84667919921875,0.5082249045372009,0.35620030760765076,0.25647950172424316
1761371133080291800,0.865291748046875,0.5289937257766724,-0.021914144977927208,0.0817771777510643
1761371133098902800,0.88390283203125,0.5021164417266846,-0.16851748526096344,0.03901786729693413
1761371133117515500,0.902515625,0.4856235682964325,-0.2931303381919861,0.07689040154218674
1761371133136126500,0.92112646484375,0.4428642690181732,-0.4519506096839905,0.12820157408714294
1761371133154739200,0.9397392578125,0.32069480419158936,-0.5020400881767273,0.18501035869121552
1761371133173350100,0.95835009765625,0.18081079423427582,-0.5234197378158569,0.20394663512706757
1761371133191963000,0.976962890625,0.08490777015686035,-0.5918346643447876,0.19417306780815125
1761371133210573800,0.99557373046875,-0.012216945178806782,-0.5997756719589233,0.17829103767871857
1761371133229186600,1.0141865234375,-0.09407047927379608,-0.5014292597770691,0.11903885751962662
1761371133247797500,1.032797607421875,-0.16248537600040436,-0.27419406175613403,0.015805672854185104
1761371133266410200,1.05141015625,-0.20768806338310242,-0.045737188309431076,-0.11254860460758209
1761371133285021200,1.070021240234375,-0.24311721324920654,0.05688514932990074,-0.2438807636499405
1761371133303634000,1.088634033203125,-0.28404396772384644,0.0019088976550847292,-0.3458922505378723
1761371133322244900,1.107244873046875,-0.30847787857055664,-0.19722731411457062,-0.3965925872325897
1761371133340857600,1.125857666015625,-0.367730051279068,-0.2900761067867279,-0.4289674758911133
1761371133359468500,1.144468505859375,-0.4214846193790436,-0.23082390427589417,-0.4112529158592224
1761371133378081300,1.163081298828125,-0.43981003761291504,-0.15019206702709198,-0.35444411635398865
1761371133396692200,1.181692138671875,-0.4489727318286896,-0.10682191699743271,-0.2964136302471161
1761371133415305000,1.200304931640625,-0.4837910234928131,-0.16546325385570526,-0.23960483074188232
1761371133433916000,1.218916015625,-0.5369347333908081,-0.09888090193271637,-0.17974179983139038
1761371133452528600,1.237528564453125,-0.5534276366233826,0.05199837312102318,-0.13576079905033112
1761371133471139600,1.2561396484375,-0.5405998229980469,0.1405712217092514,-0.11315945535898209
1761371133489752300,1.27475244140625,-0.5265503525733948,0.1149156391620636,-0.125987246632576
1761371133508363300,1.29336328125,-0.5302154421806335,0.04100312292575836,-0.15530791878700256
1761371133526976000,1.31197607421875,-0.5357130169868469,-0.0555107444524765,-0.16752485930919647
1761371133545587000,1.3305869140625,-0.5381564497947693,-0.1477486789226532,-0.13331741094589233
1761371133564199700,1.34919970703125,-0.5668662786483765,-0.32611608505249023,-0.06429167091846466
1761371133582810600,1.367810546875,-0.624896764755249,-0.4916556775569916,0.035352785140275955
1761371133601423400,1.38642333984375,-0.6896465420722961,-0.4995967149734497,0.14530529081821442
1761371133620034300,1.405034423828125,-0.7232431769371033,-0.37864893674850464,0.23082390427589417
1761371133638647000,1.42364697265625,-0.726908266544342,-0.29618456959724426,0.2644205093383789
1761371133657258000,1.442258056640625,-0.7434011101722717,-0.33711132407188416,0.2405974566936493
1761371133675870700,1.46087060546875,-0.8057075142860413,-0.4653892517089844,0.18378867208957672
1761371133694481700,1.479481689453125,-0.8814526200294495,-0.5808393955230713,0.15813308954238892
1761371133713094400,1.498094482421875,-0.8521319031715393,-0.5539621114730835,0.23021306097507477
1761371133731705300,1.516705322265625,-0.7385143637657166,-0.3029038906097412,0.3951418101787567
1761371133750318000,1.535318115234375,-0.6517740488052368,0.09781191498041153,0.5521295666694641
1761371133768929000,1.553928955078125,-0.6108472347259521,0.3012240529060364,0.6009973287582397
1761371133787541800,1.572541748046875,-0.6090146899223328,0.16072918474674225,0.5270848274230957
1761371133806152700,1.591152587890625,-0.6780404448509216,-0.20211409032344818,0.3841465711593628
1761371133824765400,1.609765380859375,-0.7824953198432922,-0.5808393955230713,0.2558686435222626
1761371133843376400,1.62837646484375,-0.8264763355255127,-0.72683185338974,0.1984490007162094
1761371133861989000,1.646989013671875,-0.8289197087287903,-0.6578061580657959,0.20577916502952576
1761371133880600000,1.66560009765625,-0.8008207678794861,-0.4482855200767517,0.23448899388313293
1761371133899212800,1.684212890625,-0.7012526392936707,-0.26197710633277893,0.23204560577869415
1761371133917823700,1.70282373046875,-0.5363239049911499,-0.21799612045288086,0.16546325385570526
1761371133936436500,1.7214365234375,-0.3561239540576935,-0.28702184557914734,0.06406260281801224
1761371133955047400,1.74004736328125,-0.21807247400283813,-0.4580591022968292,-0.016645587980747223
1761371133973660200,1.75866015625,-0.15515519678592682,-0.6260420680046082,-0.0325276181101799
1761371133992271400,1.777271240234375,-0.15454435348510742,-0.703619658946991,0.010918894782662392
1761371134010883800,1.7958837890625,-0.17775654792785645,-0.6700230836868286,0.07627955079078674
1761371134029494800,1.814494873046875,-0.19974705576896667,-0.6327614188194275,0.1349208950996399
1761371134048107500,1.833107421875,-0.20096874237060547,-0.5893912315368652,0.17890189588069916
1761371134066718500,1.851718505859375,-0.20341213047504425,-0.5032618045806885,0.1984490007162094
1761371134085331200,1.870331298828125,-0.1973036676645279,-0.2631988227367401,0.18928629159927368
1761371134103942400,1.8889423828125,-0.1698155403137207,0.06849125027656555,0.14225105941295624
1761371134122555000,1.907554931640625,-0.10689827054738998,0.4160633385181427,0.06223006546497345
1761371134141166000,1.926166015625,-0.004275931045413017,0.687890350818634,-0.03802524134516716
1761371134159778600,1.944778564453125,0.10628741979598999,0.8748096227645874,-0.1363716572523117
1761371134178389800,1.9633896484375,0.19913621246814728,0.8803072571754456,-0.22494450211524963
1761371134197002200,1.982002197265625,0.24617144465446472,0.766689658164978,-0.28786176443099976
1761371134215613400,2.000613525390625,0.2510582208633423,0.5712185502052307,-0.2951919436454773
1761371134234226000,2.019225830078125,0.2339545041322708,0.3335989713668823,-0.22189027070999146
1761371134252837000,2.037837158203125,0.2363978922367096,0.24746949970722198,-0.06673506647348404
1761371134271449600,2.05644970703125,0.27915719151496887,0.34276166558265686,0.11476293206214905
1761371134290060800,2.075060791015625,0.3561239540576935,0.4722612798213959,0.2399866133928299
1761371134308673300,2.09367333984375,0.4343124032020569,0.47592636942863464,0.23632153868675232
1761371134327284500,2.112284423828125,0.4886777997016907,0.3372640311717987,0.15630054473876953
1761371134345897000,2.13089697265625,0.5021164417266846,0.1527881771326065,0.10315682739019394
1761371134364508200,2.149508056640625,0.48989951610565186,0.1533990204334259,0.13186664879322052
1761371134383120600,2.16812060546875,0.4813476502895355,0.2975589632987976,0.2149418741464615
1761371134401731800,2.18673193359375,0.4691306948661804,0.46065518260002136,0.2674747407436371
1761371134420344300,2.20534423828125,0.43981003761291504,0.5510605573654175,0.19356222450733185
1761371134438955500,2.22395556640625,0.4214846193790436,0.5706077218055725,-0.008093725889921188
1761371134457568000,2.242568115234375,0.42881476879119873,0.4539358615875244,-0.27320143580436707
1761371134476179200,2.26117919921875,0.41171106696128845,0.21020781993865967,-0.5242596864700317
1761371134494792000,2.2797919921875,0.33291175961494446,-0.1599656194448471,-0.6671979427337646
1761371134513403000,2.29840283203125,0.2089097648859024,-0.3029038906097412,-0.6824691295623779
1761371134532015600,2.317015625,0.10689827054738998,-0.29557371139526367,-0.5993938446044922
1761371134550626600,2.33562646484375,0.030542362481355667,-0.15324631333351135,-0.4766135811805725
1761371134569239300,2.3542392578125,0.021990500390529633,0.02145601063966751,-0.3721587061882019
1761371134587850200,2.372850341796875,0.10811996459960938,0.13263021409511566,-0.3184041380882263
1761371134606463000,2.391462890625,0.21318569779396057,0.15767495334148407,-0.2921377122402191
1761371134625074000,2.410073974609375,0.2742704153060913,0.1020878478884697,-0.2548760175704956
1761371134643686700,2.428686767578125,0.2602209448814392,0.009849912486970425,-0.17302247881889343
1761371134662297600,2.447297607421875,0.18936264514923096,-0.024968381971120834,-0.05024218559265137
1761371134680910300,2.465910400390625,0.10628741979598999,0.009239064529538155,0.06528430432081223
1761371134699521300,2.484521240234375,0.04581354558467865,0.022066857665777206,0.12820157408714294
1761371134718134000,2.503134033203125,-0.0030542362947016954,-0.05856497958302498,0.12881241738796234
1761371134736745000,2.521744873046875,-0.04703523963689804,-0.21982865035533905,0.09338327497243881
1761371134755357700,2.540357666015625,-0.09040539711713791,-0.3798706531524658,0.07566870748996735
1761371134773968600,2.55896875,-0.14904673397541046,-0.4721085727214813,0.11781716346740723
1761371134792581400,2.577581298828125,-0.2211267054080963,-0.44339874386787415,0.20394663512706757
1761371134811192300,2.5961923828125,-0.2907632887363434,-0.30412557721138,0.2925194799900055
1761371134829805000,2.61480517578125,-0.3695625960826874,-0.19417306780815125,0.33588963747024536
1761371134848416000,2.633416015625,-0.46851983666419983,-0.13797512650489807,0.32428354024887085
1761371134867028700,2.65202880859375,-0.578472375869751,-0.11781716346740723,0.2821350693702698
1761371134885639700,2.6706396484375,-0.6792621612548828,-0.07566870748996735,0.22899135947227478
1761371134904252400,2.68925244140625,-0.7623373866081238,0.0165692325681448,0.1624090075492859
1761371134922863400,2.70786328125,-0.8209787011146545,0.12468919903039932,0.07505785673856735
1761371134941476000,2.72647607421875,-0.8276980519294739,0.193104088306427,0.0005344913806766272
1761371134960087000,2.745087158203125,-0.7739434838294983,0.2841203212738037,-0.009315420873463154
1761371134978699800,2.76369970703125,-0.6639909744262695,0.46126604080200195,0.03352024406194687
1761371134997310700,2.782310791015625,-0.5210527181625366,0.6555154919624329,0.06223006546497345
1761371135015923500,2.80092333984375,-0.3555130958557129,0.6671215891838074,0.012140588834881783
1761371135034534400,2.819534423828125,-0.16431790590286255,0.4032355546951294,-0.10949437320232391
1761371135053147100,2.838147216796875,0.0525328628718853,-0.03229855000972748,-0.22127941250801086
1761371135071758000,2.856758056640625,0.25350162386894226,-0.4250733256340027,-0.24876753985881805
1761371135090370800,2.875370849609375,0.3817795515060425,-0.6700230836868286,-0.1907370537519455
1761371135108981800,2.893981689453125,0.38483378291130066,-0.7451573014259338,-0.10277505218982697
1761371135127594500,2.912594482421875,0.3176405727863312,-0.676131546497345,-0.014202198944985867
1761371135146205400,2.931205322265625,0.2363978922367096,-0.561292290687561,0.06528430432081223
1761371135164818200,2.949818115234375,0.1716480851173401,-0.39208757877349854,0.11109784245491028
1761371135183429400,2.968429443359375,0.13621893525123596,-0.2686964273452759,0.06223006546497345
1761371135202041900,2.987041748046875,0.11117420345544815,-0.23632153868675232,-0.072232685983181
1761371135220653000,3.005653076171875,0.0787992998957634,-0.2613662779331207,-0.19684553146362305
1761371135239265500,3.024265625,0.025655584409832954,-0.29862794280052185,-0.2176143378019333
1761371135257876700,3.042876708984375,-0.02504473738372326,-0.2937411665916443,-0.09727742522954941
1761371135276489200,3.0614892578125,-0.0659715011715889,-0.253425270318985,0.09277242422103882
1761371135295100400,3.080100341796875,-0.0787992998957634,-0.15630054473876953,0.24120831489562988
1761371135313713000,3.098712890625,-0.02626643143594265,-0.017027366906404495,0.2888543903827667
1761371135332324000,3.117323974609375,0.13377554714679718,0.06971294432878494,0.28702184557914734
1761371135350936600,3.1359365234375,0.3567348122596741,0.13629528880119324,0.3169533610343933
1761371135369547800,3.1545478515625,0.6072585582733154,0.20165595412254333,0.41896486282348633
1761371135388160300,3.17316015625,0.872977077960968,0.28045526146888733,0.5637356638908386
1761371135406771500,3.191771484375,1.1441932916641235,0.30305659770965576,0.6510868072509766
1761371135425384000,3.210384033203125,1.3653199672698975,0.1271325796842575,0.6352047920227051
1761371135443995100,3.2289951171875,1.4709964990615845,-0.2131093442440033,0.5857261419296265
1761371135462607600,3.247607666015625,1.35798978805542,-0.3853682577610016,0.6425349712371826
1761371135481218800,3.26621875,1.0409600734710693,-0.23265644907951355,0.7634826898574829
1761371135499831300,3.284831298828125,0.7129350900650024,-0.34810659289360046,0.7353837490081787
1761371135518442500,3.3034423828125,0.4856235682964325,-0.352993369102478,0.5869478583335876
1761371135537055000,3.322054931640625,0.3799470067024231,0.022677704691886902,0.46600010991096497
1761371135555666200,3.340666259765625,0.3836120665073395,0.5565581917762756,0.37437301874160767
1761371135574279000,3.35927880859375,0.4416425824165344,0.9016869068145752,0.20516832172870636
1761371135592889900,3.377889892578125,0.45447036623954773,0.9902597665786743,-0.05635065957903862
1761371135611502300,3.39650244140625,0.4367557764053345,0.8528191447257996,-0.28786176443099976
1761371135630113500,3.415113525390625,0.40193748474121094,0.6823927164077759,-0.3507790267467499
1761371135648726000,3.43372607421875,0.34818294644355774,0.5791595578193665,-0.2548760175704956
1761371135667337200,3.452337158203125,0.265718549489975,0.428891122341156,-0.15286453068256378
1761371135685950000,3.470949951171875,0.1313321590423584,0.07337802648544312,-0.1644706279039383
1761371135704561000,3.489560791015625,-0.05741964280605316,-0.5124244689941406,-0.2548760175704956
1761371135723173600,3.508173583984375,-0.25533416867256165,-1.0212602615356445,-0.3049654960632324
1761371135741784600,3.52678466796875,-0.41110020875930786,-1.1739721298217773,-0.2011214643716812
1761371135760397300,3.545397216796875,-0.5070032477378845,-0.8343409895896912,0.0231358390301466
1761371135779008300,3.56400830078125,-0.5369347333908081,-0.1862320601940155,0.19172967970371246
1761371135797621000,3.58262109375,-0.4703523814678192,0.3494809865951538,0.1624090075492859
1761371135816232000,3.60123193359375,-0.3567348122596741,0.6536829471588135,-0.05390727147459984
1761371135834844700,3.6198447265625,-0.24372805655002594,0.743477463722229,-0.3458922505378723
1761371135853455600,3.63845556640625,-0.12216944992542267,0.665289044380188,-0.5725166201591492
1761371135872068400,3.657068359375,-0.02504473738372326,0.5449520945549011,-0.649483323097229
1761371135890679300,3.67567919921875,0.07146912813186646,0.41117656230926514,-0.5609105229377747
1761371135909292000,3.6942919921875,0.16370706260204315,0.2334200143814087,-0.33856210112571716
1761371135927903000,3.712903076171875,0.18142163753509521,-0.036574479192495346,-0.07650861889123917
1761371135946515700,3.731515625,0.10628741979598999,-0.4476746916770935,0.10254598408937454
1761371135965126700,3.750126708984375,-0.03298575058579445,-0.9455152153968811,0.17706935107707977
1761371135983739400,3.768739501953125,-0.22662433981895447,-1.2448303699493408,0.18989713490009308
1761371136002350300,3.787350341796875,-0.40071579813957214,-1.1984059810638428,0.19356222450733185
1761371136020963000,3.805963134765625,-0.5491516590118408,-0.8911498188972473,0.1721825748682022
1761371136039574000,3.824573974609375,-0.684759795665741,-0.5050943493843079,0.06467345356941223
1761371136058186800,3.843186767578125,-0.7769976854324341,-0.23632153868675232,-0.14125843346118927
1761371136076797700,3.861797607421875,-0.8356390595436096,-0.23571068048477173,-0.38071054220199585
1761371136095410400,3.880410400390625,-0.8545753359794617,-0.34016555547714233,-0.543806791305542
1761371136114021400,3.899021484375,-0.8845068216323853,-0.4721085727214813,-0.617719292640686
1761371136132634000,3.917634033203125,-0.9132166504859924,-0.6156576871871948,-0.6311579346656799
1761371136151245000,3.9362451171875,-0.9486457705497742,-0.7640935778617859,-0.5932853817939758
1761371136169857800,3.95485791015625,-0.9681929349899292,-0.7298861145973206,-0.46012070775032043
1761371136188468700,3.97346875,-0.9303203821182251,-0.41529977321624756,-0.22738789021968842
1761371136207081500,3.99208154296875,-0.8393041491508484,0.0293970238417387,0.008475505746901035
1761371136225692400,4.0106923828125,-0.7049177289009094,0.35742199420928955,0.12636902928352356
1761371136244305200,4.02930517578125,-0.5619794726371765,0.38124504685401917,0.09338327497243881
1761371136262916000,4.047916015625,-0.4446968138217926,0.1014770045876503,-0.05512896552681923
1761371136281528800,4.06652880859375,-0.4349232614040375,-0.36398860812187195,-0.23410721123218536
1761371136300139800,4.085139892578125,-0.4556920528411865,-0.6956786513328552,-0.2958027720451355
1761371136318752500,4.10375244140625,-0.4355340898036957,-0.7146149277687073,-0.17363333702087402
1761371136337363500,4.122363525390625,-0.3689517378807068,-0.32428354024887085,0.11964970827102661
1761371136355976200,4.14097607421875,-0.22662433981895447,0.2578538954257965,0.4134672284126282
1761371136374587100,4.159587158203125,0.017714571207761765,0.6243622303009033,0.5478536486625671
1761371136393199900,4.178199951171875,0.26755109429359436,0.7147676348686218,0.5435777306556702
1761371136411810800,4.196810791015625,0.46485477685928345,0.6481853127479553,0.5228089094161987
1761371136430423600,4.215423583984375,0.5998520255088806,0.5150206089019775,0.5484644770622253
1761371136449034500,4.234034423828125,0.6494069695472717,0.3635304868221283,0.6009973287582397
1761371136467647200,4.252647216796875,0.6231405735015869,0.17172443866729736,0.6425349712371826
1761371136486258200,4.271258056640625,0.5662553906440735,-0.08666395395994186,0.6547518968582153
1761371136504871000,4.289870849609375,0.5436540842056274,-0.32550522685050964,0.6425349712371826
1761371136523481900,4.30848193359375,0.5754181146621704,-0.46966519951820374,0.6052733063697815
1761371136542094600,4.327094482421875,0.605426013469696,-0.5136461853981018,0.5454102754592896
1761371136560705500,4.34570556640625,0.5845808386802673,-0.4727194309234619,0.4739411175251007
1761371136579318300,4.364318359375,0.5436540842056274,-0.29740625619888306,0.4214082658290863
1761371136597929200,4.38292919921875,0.5094466209411621,-0.0029778804164379835,0.3835357129573822
1761371136616542000,4.4015419921875,0.5137225389480591,0.2987806797027588,0.30901235342025757
1761371136635153000,4.42015283203125,0.5674771070480347,0.4924192428588867,0.19417306780815125
1761371136653765600,4.438765625,0.605426013469696,0.5486171841621399,0.07078192383050919
1761371136672376600,4.45737646484375,0.6115344762802124,0.47165045142173767,-0.03436015918850899
1761371136690989300,4.4759892578125,0.5870242118835449,0.2877854108810425,-0.06795676052570343
1761371136709600300,4.494600341796875,0.5100574493408203,0.1552315652370453,0.0029778804164379835
1761371136728213000,4.513212890625,0.3946073353290558,0.1540098637342453,0.11964970827102661
1761371136746824000,4.531823974609375,0.29320669174194336,0.28106608986854553,0.18867544829845428
1761371136765436700,4.550436767578125,0.22906772792339325,0.4007921516895294,0.16607409715652466
1761371136784047600,4.569047607421875,0.19302773475646973,0.43377789855003357,0.0683385357260704
1761371136802660400,4.587660400390625,0.1704263836145401,0.46309858560562134,-0.07406523078680038
1761371136821271300,4.606271240234375,0.1698155403137207,0.37086063623428345,-0.2548760175704956
1761371136839884000,4.624884033203125,0.16492876410484314,0.1295759677886963,-0.41919392347335815
1761371136858495000,4.643494873046875,0.11545012891292572,-0.12636902928352356,-0.4888305068016052
1761371136877107700,4.662107666015625,0.025655584409832954,-0.3016822040081024,-0.4815003573894501
1761371136895718700,4.68071875,-0.09040539711713791,-0.3737621605396271,-0.44423866271972656
1761371136914331400,4.699331298828125,-0.20768806338310242,-0.4354577362537384,-0.3965925872325897
1761371136932942300,4.7179423828125,-0.2901524603366852,-0.3853682577610016,-0.32939937710762024
1761371136951555000,4.73655517578125,-0.31886225938796997,-0.19783815741539001,-0.27503398060798645
1761371136970166000,4.755166015625,-0.28343313932418823,0.05199837312102318,-0.3049654960632324
1761371136988778800,4.77377880859375,-0.21623992919921875,0.23036576807498932,-0.4387410581111908
1761371137007389700,4.7923896484375,-0.14904673397541046,0.24013933539390564,-0.5951179265975952
1761371137026002400,4.81100244140625,-0.10750912129878998,0.1259108930826187,-0.6659762263298035
1761371137044613400,4.82961328125,-0.09284878522157669,-0.005421269219368696,-0.6152759194374084
1761371137063226000,4.84822607421875,-0.1301104724407196,-0.10132429003715515,-0.5181511640548706
1761371137081837000,4.866837158203125,-0.23028941452503204,-0.253425270318985,-0.4643966257572174
1761371137100449800,4.88544970703125,-0.37444937229156494,-0.5289173722267151,-0.47294849157333374
1761371137119060700,4.904060791015625,-0.5454866290092468,-0.856942355632782,-0.47172680497169495
1761371137137673500,4.922673583984375,-0.7006418108940125,-0.9992697834968567,-0.3715478479862213
1761371137156284400,4.941284423828125,-0.8283088803291321,-0.8807653784751892,-0.1626380831003189
1761371137174897200,4.959897216796875,-0.8796200752258301,-0.4983749985694885,0.0823880210518837
1761371137193508000,4.978508056640625,-0.8044858574867249,-0.14225105941295624,0.24609509110450745
1761371137212120800,4.997120849609375,-0.6652126908302307,-0.006642963737249374,0.2650313675403595
1761371137230731800,5.015731689453125,-0.573585569858551,0.00862821750342846,0.16668494045734406
1761371137249344300,5.03434423828125,-0.5595360994338989,-0.08788564801216125,0.023746687918901443
1761371137267955500,5.05295556640625,-0.5790832042694092,-0.1336991935968399,-0.0850604772567749
1761371137286568200,5.071568115234375,-0.6212316751480103,-0.13186664879322052,-0.15836215019226074
1761371137305179100,5.09017919921875,-0.6652126908302307,-0.28274592757225037,-0.24754585325717926
1761371137323791600,5.10879150390625,-0.7146912813186646,-0.6431457996368408,-0.35138988494873047
1761371137342402800,5.12740283203125,-0.7189671993255615,-0.8960365653038025,-0.3764346241950989
1761371137361015300,5.146015380859375,-0.633448600769043,-0.9204704761505127,-0.27197974920272827
1761371137379626500,5.16462646484375,-0.45080527663230896,-0.7708128690719604,-0.028251685202121735
1761371137398239000,5.183239013671875,-0.26755109429359436,-0.5228089094161987,0.28335678577423096
1761371137416850200,5.20185009765625,-0.15332266688346863,-0.19295138120651245,0.46966519951820374
1761371137435462700,5.220462646484375,-0.047646086663007736,0.055052608251571655,0.41285640001296997
1761371137454073900,5.239073974609375,0.08124268800020218,0.045889899134635925,0.18867544829845428
1761371137472686300,5.257686279296875,0.2217375487089157,-0.2131093442440033,-0.07895200699567795
1761371137491297500,5.276297607421875,0.3249707520008087,-0.5179221034049988,-0.30374380946159363
1761371137509910000,5.294909912109375,0.39888325333595276,-0.5625139474868774,-0.3868190348148346
1761371137528521200,5.313521240234375,0.45508119463920593,-0.3322245478630066,-0.27686652541160583
1761371137547133700,5.3321337890625,0.5259394645690918,0.09720107167959213,-0.009315420873463154
1761371137565745000,5.350744873046875,0.5998520255088806,0.5290700793266296,0.2912977933883667
1761371137584357400,5.369357421875,0.6591805219650269,0.743477463722229,0.5032618045806885
1761371137602968300,5.38796826171875,0.7147676348686218,0.7599703669548035,0.5588488578796387
1761371137621581000,5.4065810546875,0.7587486505508423,0.6756734251976013,0.4879906177520752
1761371137640192300,5.425192138671875,0.7581378221511841,0.5333459973335266,0.36582115292549133
1761371137658804700,5.4438046875,0.711713433265686,0.3476484417915344,0.2790808379650116
1761371137677415700,5.462415771484375,0.6274164915084839,0.20409934222698212,0.24670593440532684
1761371137696028400,5.4810283203125,0.5302154421806335,0.09048175066709518,0.227769672870636
1761371137714639400,5.499639404296875,0.47829338908195496,0.0361163429915905,0.1868429034948349
1761371137733252000,5.518252197265625,0.48989951610565186,0.06726955622434616,0.13858596980571747
1761371137751863000,5.536863037109375,0.5497625470161438,0.11369394510984421,0.11903885751962662
1761371137770475800,5.555475830078125,0.6316924095153809,0.18271969258785248,0.14897038042545319
1761371137789086700,5.574086669921875,0.6915554404258728,0.2682383060455322,0.22288289666175842
1761371137807699500,5.592699462890625,0.7056049108505249,0.36780640482902527,0.32245099544525146
1761371137826310400,5.611310302734375,0.6408551335334778,0.3794125020503998,0.406137079000473
1761371137844923100,5.629923095703125,0.5137225389480591,0.42278265953063965,0.44156619906425476
1761371137863534000,5.6485341796875,0.41171106696128845,0.42156097292900085,0.3969743549823761
1761371137882146800,5.667146728515625,0.2919849753379822,0.45027077198028564,0.28702184557914734
1761371137900757800,5.6857578125,0.208298921585083,0.2749576270580292,0.1874537467956543
1761371137919370500,5.70437060546875,0.15149012207984924,0.22792237997055054,0.11964970827102661
1761371137937981400,5.7229814453125,0.01038440316915512,0.22731153666973114,0.011529741808772087
1761371137956594200,5.74159423828125,-0.12888877093791962,0.10697462409734726,-0.149199441075325
1761371137975205000,5.760205078125,-0.2473931461572647,-0.07811209559440613,-0.31229567527770996
1761371137993817900,5.77881787109375,-0.29259583353996277,-0.024968381971120834,-0.36666107177734375
1761371138012428800,5.7974287109375,-0.2852656841278076,0.194325789809227,-0.32939937710762024
1761371138031041300,5.816041259765625,-0.21868331730365753,0.46187686920166016,-0.2921377122402191
1761371138049652500,5.834652587890625,-0.1447708010673523,0.590765655040741,-0.32512345910072327
1761371138068265000,5.853264892578125,-0.10140064358711243,0.47348299622535706,-0.3855973184108734
1761371138086876200,5.871876220703125,-0.15210096538066864,0.22242476046085358,-0.3972034156322479
1761371138105488600,5.890488525390625,-0.26999449729919434,-0.07017108052968979,-0.30130040645599365
1761371138124099800,5.909099853515625,-0.3683409094810486,-0.2546469569206238,-0.1119377613067627
1761371138142712300,5.92771240234375,-0.43981003761291504,-0.27358320355415344,0.07200361788272858
1761371138161323500,5.946323486328125,-0.45202696323394775,-0.23448899388313293,0.1605764776468277
1761371138179936000,5.96493603515625,-0.42331716418266296,-0.16668494045734406,0.1477486789226532
1761371138198547200,5.983547119140625,-0.41293275356292725,-0.10254598408937454,0.07261446863412857
1761371138217159700,6.00215966796875,-0.42759308218955994,-0.08910734206438065,-0.02092151902616024
1761371138235770600,6.0207705078125,-0.4428642690181732,-0.10560022294521332,-0.08628217875957489
1761371138254383400,6.03938330078125,-0.4422534108161926,-0.12026055157184601,-0.10216420143842697
1761371138272994300,6.057994384765625,-0.41537612676620483,-0.13919681310653687,-0.06917845457792282
1761371138291607000,6.07660693359375,-0.36223241686820984,-0.14469444751739502,0.0005344913806766272
1761371138310218000,6.095218017578125,-0.2883199155330658,-0.15813308954238892,0.10071343928575516
1761371138328830700,6.113830810546875,-0.25777754187583923,-0.2015032321214676,0.2002815455198288
1761371138347441700,6.132441650390625,-0.29748260974884033,-0.24914932250976562,0.27297237515449524
1761371138366054400,6.151054443359375,-0.38483378291130066,-0.30901235342025757,0.32733777165412903
1761371138384665300,6.169665283203125,-0.4850127100944519,-0.36215606331825256,0.37498384714126587
1761371138403278000,6.188278076171875,-0.5467082858085632,-0.40369367599487305,0.40491536259651184
1761371138421889000,6.206888916015625,-0.5668662786483765,-0.35238251090049744,0.44400960206985474
1761371138440501800,6.225501708984375,-0.6035171151161194,-0.26075541973114014,0.4983749985694885
1761371138459112700,6.24411279296875,-0.6829272508621216,-0.14164020121097565,0.5105919241905212
1761371138477725200,6.26272509765625,-0.7452336549758911,-0.03290939703583717,0.43118181824684143
1761371138496336400,6.28133642578125,-0.7464553713798523,0.09842276573181152,0.2906869351863861
1761371138514948900,6.299948974609375,-0.6835380792617798,0.2053210288286209,0.1349208950996399
1761371138533560000,6.31856005859375,-0.5931326746940613,0.2731250822544098,-0.014813045971095562
1761371138552172500,6.337172607421875,-0.49112120270729065,0.17172443866729736,-0.1901262104511261
1761371138570783700,6.35578369140625,-0.4337015450000763,-0.2650313675403595,-0.388651579618454
1761371138589396200,6.374396240234375,-0.4092676639556885,-0.6981220841407776,-0.5193728804588318
1761371138608007200,6.393007080078125,-0.3500154912471771,-0.9015341997146606,-0.5126535892486572
1761371138626620000,6.411619873046875,-0.2339545041322708,-0.7683694958686829,-0.3184041380882263
1761371138645231000,6.430231201171875,-0.09407047927379608,-0.30656898021698,-0.039857782423496246
1761371138663843600,6.448843505859375,0.026877280324697495,0.05993938818573952,0.0958266630768776
1761371138682454500,6.46745458984375,0.17592400312423706,0.11186140775680542,-0.014202198944985867
1761371138701067300,6.4860673828125,0.3823903799057007,-0.10621106624603271,-0.2426590770483017
1761371138719678200,6.50467822265625,0.6109235882759094,-0.32611608505249023,-0.39292749762535095
1761371138738291000,6.523291015625,0.7605811953544617,-0.2631988227367401,-0.33856210112571716
1761371138756902000,6.54190185546875,0.8063947558403015,-0.09949174523353577,-0.1626380831003189
1761371138775514600,6.5605146484375,0.7636354565620422,0.07215633243322372,0.04390464723110199
1761371138794125600,6.57912548828125,0.6610130667686462,0.18394137918949127,0.24120831489562988
1761371138812738300,6.59773828125,0.550373375415802,0.23769593238830566,0.359712690114975
1761371138831349200,6.616349365234375,0.4282039403915405,0.19860170781612396,0.3316137194633484
1761371138849962000,6.6349619140625,0.30725616216659546,0.03978142887353897,0.15019206702709198
1761371138868573000,6.653572998046875,0.2107423096895218,-0.15202461183071136,-0.09910997003316879
1761371138887185400,6.672185302734375,0.12522368133068085,-0.227769672870636,-0.2725905776023865
1761371138905796600,6.690796630859375,0.07513421028852463,-0.2253262847661972,-0.3092414140701294
1761371138924409000,6.7094091796875,0.05741964280605316,-0.19234053790569305,-0.26464956998825073
1761371138943020300,6.728020263671875,0.07269082218408585,-0.1214822456240654,-0.20845162868499756
1761371138961632800,6.7466328125,0.10750912129878998,-0.012751436792314053,-0.15775130689144135
1761371138980244000,6.765243896484375,0.17225892841815948,0.09903360903263092,-0.0850604772567749
1761371138998856400,6.7838564453125,0.258999228477478,0.22242476046085358,0.022524992004036903
1761371139017467400,6.80246728515625,0.3268032968044281,0.31893861293792725,0.12881241738796234
1761371139036080000,6.821080078125,0.35795649886131287,0.32993388175964355,0.2124984860420227
1761371139054691000,6.839691162109375,0.3249707520008087,0.2871745824813843,0.2772482931613922
1761371139073303800,6.8583037109375,0.2486148327589035,0.22547899186611176,0.32367268204689026
1761371139091914800,6.876914794921875,0.1563768982887268,0.2205922156572342,0.3456631898880005
1761371139110527500,6.895527587890625,0.061084724962711334,0.2731250822544098,0.3218401372432709
1761371139129138400,6.914138427734375,-0.018936265259981155,0.3348206579685211,0.24731677770614624
1761371139147751200,6.932751220703125,-0.0794101431965828,0.39529454708099365,0.12697987258434296
1761371139166362000,6.951362060546875,-0.09895725548267365,0.4514924883842468,-0.01725643500685692
1761371139184974800,6.969974853515625,-0.11422843486070633,0.3348206579685211,-0.21150586009025574
1761371139203585800,6.988585693359375,-0.13682979345321655,-0.09338327497243881,-0.4369085133075714
1761371139222198300,7.0071982421875,-0.129499614238739,-0.5112028121948242,-0.5071559548377991
1761371139240809500,7.0258095703125,-0.04459185153245926,-0.48004958033561707,-0.28602921962738037
1761371139259422000,7.044421875,0.09956810623407364,0.035505495965480804,0.120871402323246
1761371139278033200,7.063033203125,0.2498365342617035,0.6341357827186584,0.4733302593231201
1761371139296645600,7.081645751953125,0.3646758198738098,0.7092700004577637,0.5710658431053162
1761371139315256800,7.1002568359375,0.42514967918395996,0.3000023663043976,0.40063944458961487
1761371139333869300,7.118869384765625,0.3897205591201782,-0.226547971367836,0.14469444751739502
1761371139352480300,7.137480224609375,0.2730487287044525,-0.514867901802063,0.0420721061527729
1761371139371093000,7.156093017578125,0.09468132257461548,-0.39208757877349854,0.12759071588516235
1761371139389704000,7.174703857421875,-0.09773556143045425,0.0067956759594380856,0.280913382768631
1761371139408316700,7.193316650390625,-0.24067382514476776,0.30305659770965576,0.31389912962913513
1761371139426927600,7.211927734375,-0.2730487287044525,0.3476484417915344,0.1624090075492859
1761371139445540400,7.230540283203125,-0.24617144465446472,0.2193705290555954,-0.09055810421705246
1761371139464151300,7.2491513671875,-0.261442631483078,-0.12820157408714294,-0.3721587061882019
1761371139482764000,7.267763916015625,-0.3268032968044281,-0.5735092163085938,-0.5725166201591492
1761371139501375000,7.286375,-0.38483378291130066,-0.7714237570762634,-0.5676298141479492
1761371139519987700,7.30498779296875,-0.41048935055732727,-0.7341620326042175,-0.3489464819431305
1761371139538598700,7.3235986328125,-0.37689274549484253,-0.5228089094161987,-0.005650337319821119
1761371139557211100,7.342211181640625,-0.2883199155330658,-0.3462740480899811,0.24670593440532684
1761371139575822300,7.360822265625,-0.16004198789596558,-0.2118876427412033,0.3206184506416321
1761371139594434800,7.379434814453125,-0.05375456064939499,-0.0952158197760582,0.2387649267911911
1761371139613046000,7.3980458984375,0.009773556143045425,-0.010308047756552696,0.07627955079078674
1761371139631658500,7.416658447265625,0.0036650835536420345,0.07704310864210129,-0.08078455179929733
1761371139650269700,7.435269775390625,-0.07635590434074402,0.10636378079652786,-0.2011214643716812
1761371139668882200,7.453882080078125,-0.18875180184841156,0.0293970238417387,-0.2921377122402191
1761371139687493000,7.4724931640625,-0.2901524603366852,-0.10498937219381332,-0.3581092059612274
1761371139706105900,7.49110595703125,-0.3402419090270996,-0.21616357564926147,-0.4149180054664612
1761371139724716800,7.509716796875,-0.3512371778488159,-0.28396761417388916,-0.4534013867378235
1761371139743329500,7.52832958984375,-0.3573456406593323,-0.2515927255153656,-0.43202173709869385
1761371139761940500,7.5469404296875,-0.3506263196468353,-0.09827005118131638,-0.33856210112571716
1761371139780553200,7.56555322265625,-0.3261924386024475,0.07215633243322372,-0.22677704691886902
1761371139799164200,7.5841640625,-0.29259583353996277,0.14973393082618713,-0.16874656081199646
1761371139817777000,7.60277685546875,-0.25472331047058105,0.16928105056285858,-0.1632489264011383
1761371139836387800,7.621387939453125,-0.2217375487089157,0.1424037665128708,-0.16019469499588013
1761371139855000600,7.64000048828125,-0.2095206081867218,0.18821731209754944,-0.12354385852813721
1761371139873611500,7.658611572265625,-0.24006296694278717,0.29511559009552,-0.12720894813537598
1761371139892224300,7.677224365234375,-0.3164188861846924,0.30549997091293335,-0.24937839806079865
1761371139910835200,7.695835205078125,-0.3958290219306946,0.10392039269208908,-0.46012070775032043
1761371139929447700,7.71444775390625,-0.4202629029750824,-0.19661645591259003,-0.6024481058120728
1761371139948059000,7.733058837890625,-0.40132665634155273,-0.3426089584827423,-0.5218162536621094
1761371139966671400,7.75167138671875,-0.3805578351020813,-0.2778591513633728,-0.2695363461971283
1761371139985282600,7.770282470703125,-0.34512871503829956,-0.03596363216638565,-0.0032069480512291193
1761371140003895000,7.78889501953125,-0.28037887811660767,0.16195088624954224,0.11842801421880722
1761371140022506200,7.80750634765625,-0.23212195932865143,0.1784437596797943,0.0561215914785862
1761371140041118700,7.82611865234375,-0.21257483959197998,0.09781191498041153,-0.13453911244869232
1761371140059730000,7.84472998046875,-0.15087927877902985,-0.03596363216638565,-0.35261157155036926
1761371140078342400,7.86334228515625,-0.028098974376916885,-0.21005509793758392,-0.47294849157333374
1761371140096953600,7.88195361328125,0.11972606182098389,-0.3474957346916199,-0.44668206572532654
1761371140115566000,7.900566162109375,0.2754921019077301,-0.308401495218277,-0.2664821147918701
1761371140134177000,7.919177001953125,0.38483378291130066,-0.07261446863412857,0.0023670331574976444
1761371140152789800,7.937789794921875,0.42637139558792114,0.1808871477842331,0.23509983718395233
1761371140171400700,7.956400634765625,0.43858832120895386,0.3354314863681793,0.36521029472351074
1761371140190013400,7.975013427734375,0.45080527663230896,0.4178958833217621,0.3926984369754791
1761371140208624400,7.993624267578125,0.45141613483428955,0.46309858560562134,0.33527877926826477
1761371140227237000,8.012237060546875,0.4312581717967987,0.405678927898407,0.2137201875448227
1761371140245848000,8.03084814453125,0.393385648727417,0.25235626101493835,0.05428905040025711
1761371140264460800,8.049460693359375,0.3408527672290802,0.07093463838100433,-0.08872556686401367
1761371140283071700,8.06807177734375,0.29565006494522095,-0.05856497958302498,-0.17180079221725464
1761371140301684500,8.0866845703125,0.26999449729919434,-0.06284090876579285,-0.19989976286888123
1761371140320295400,8.10529541015625,0.284654825925827,-0.03962871432304382,-0.2029540091753006
1761371140338908200,8.123908203125,0.3408527672290802,-0.03168770298361778,-0.1772984117269516
1761371140357519000,8.14251904296875,0.41354358196258545,-0.019470756873488426,-0.11010521650314331
1761371140376131800,8.1611318359375,0.4679090082645416,0.03489464893937111,-0.008704573847353458
1761371140394742800,8.17974267578125,0.46668729186058044,0.1295759677886963,0.09338327497243881
1761371140413355300,8.198355224609376,0.4349232614040375,0.2584647536277771,0.1587439328432083
1761371140431966500,8.216966552734375,0.42331716418266296,0.35681116580963135,0.19722731411457062
1761371140450579000,8.235578857421874,0.41232189536094666,0.4398863911628723,0.227769672870636
1761371140469190100,8.254190185546875,0.4074351191520691,0.47653722763061523,0.24304085969924927
1761371140487802600,8.272802734375,0.4062134325504303,0.4527141749858856,0.21677441895008087
1761371140506413800,8.291413818359375,0.3811686933040619,0.3671955466270447,0.11415208131074905
1761371140525026300,8.3100263671875,0.3310792148113251,0.34581589698791504,-0.022754060104489326
1761371140543637500,8.328637451171875,0.2651077210903168,0.3238253891468048,-0.17180079221725464
1761371140562250000,8.34725,0.2217375487089157,0.1937149316072464,-0.3202366828918457
1761371140580861000,8.36586083984375,0.20096874237060547,0.0019088976550847292,-0.4265241026878357
1761371140599473700,8.3844736328125,0.19974705576896667,-0.021914144977927208,-0.40758782625198364
1761371140618084600,8.403084716796876,0.22479179501533508,0.10819631814956665,-0.2811424434185028
1761371140636697300,8.421697265625,0.24250635504722595,0.13018682599067688,-0.1760767251253128
1761371140655308300,8.440308349609374,0.2522799074649811,0.05138752609491348,-0.20906247198581696
1761371140673921000,8.458921142578125,0.2492256760597229,-0.03901786729693413,-0.33978378772735596
1761371140692532000,8.477531982421874,0.17836740612983704,-0.1465269923210144,-0.4509579837322235
1761371140711144700,8.496144775390626,0.0653606578707695,-0.2131093442440033,-0.4381301999092102
1761371140729755600,8.514755615234375,-0.04825693368911743,-0.2515927255153656,-0.27320143580436707
1761371140748368400,8.533368408203126,-0.1557660549879074,-0.23326729238033295,-0.03680354729294777
1761371140766979300,8.551979248046875,-0.23090025782585144,-0.20333577692508698,0.11964970827102661
1761371140785592000,8.570592041015624,-0.24372805655002594,-0.21616357564926147,0.15019206702709198
1761371140804203000,8.589203125,-0.21501824259757996,-0.2760266065597534,0.1459161341190338
1761371140822815700,8.607815673828124,-0.19974705576896667,-0.31084489822387695,0.1868429034948349
1761371140841426700,8.6264267578125,-0.23273280262947083,-0.2546469569206238,0.2375432252883911
1761371140860039200,8.6450390625,-0.26877278089523315,-0.15385715663433075,0.22349373996257782
1761371140878650400,8.663650390625,-0.2773246467113495,-0.018249060958623886,0.15019206702709198
1761371140897262800,8.682262939453125,-0.24494975805282593,0.11919157207012177,0.08360971510410309
1761371140915874000,8.7008740234375,-0.20402298867702484,0.14484715461730957,0.06100837141275406
1761371140934486500,8.719486572265625,-0.2107423096895218,0.023899398744106293,0.04695888236165047
1761371140953097500,8.738097412109376,-0.26816195249557495,-0.15691138803958893,0.009697199799120426
1761371140971710200,8.756710205078125,-0.33352261781692505,-0.2674747407436371,-0.004428642801940441
1761371140990321200,8.775321044921874,-0.41110020875930786,-0.253425270318985,0.030466007068753242
1761371141008934000,8.793933837890625,-0.4691306948661804,-0.13247749209403992,0.10437852889299393
1761371141027544800,8.812544921875,-0.48806697130203247,0.005573981441557407,0.1593547761440277
1761371141046157600,8.831157470703126,-0.4715740978717804,0.04650074616074562,0.17096087336540222
1761371141064768500,8.8497685546875,-0.47707170248031616,0.013514995574951172,0.16607409715652466
1761371141083381200,8.86838134765625,-0.469741553068161,0.023288551717996597,0.17768019437789917
1761371141101992200,8.8869921875,-0.4202629029750824,0.014125842601060867,0.19478392601013184
1761371141120605000,8.90560498046875,-0.37200596928596497,-0.14225105941295624,0.17584764957427979
1761371141139216000,8.9242158203125,-0.3426853120326996,-0.4904339909553528,0.07689040154218674
1761371141157828600,8.94282861328125,-0.29626092314720154,-0.8990908265113831,-0.045355409383773804
1761371141176439600,8.961439453125,-0.29442837834358215,-1.2472738027572632,-0.09666658192873001
1761371141195052300,8.98005224609375,-0.29748260974884033,-1.3578370809555054,0.018249060958623886
1761371141213663200,8.998663330078125,-0.3005368411540985,-1.2460520267486572,0.3193967640399933
1761371141232275700,9.017275634765625,-0.34757208824157715,-0.852666437625885,0.6657471656799316
1761371141250887000,9.035886962890626,-0.3695625960826874,-0.3175642192363739,0.8508338928222656
1761371141269499400,9.05449951171875,-0.31886225938796997,0.008017370477318764,0.7708128690719604
1761371141288110300,9.0731103515625,-0.2583884000778198,0.017180079594254494,0.4757736623287201
1761371141306723000,9.09172314453125,-0.1966928243637085,-0.14347274601459503,0.09827005118131638
1761371141325334000,9.110333984375,-0.19058434665203094,-0.255257785320282,-0.22433365881443024
1761371141343946800,9.12894677734375,-0.20646637678146362,-0.24731677770614624,-0.38193225860595703
1761371141362557700,9.1475576171875,-0.20707722008228302,-0.17706935107707977,-0.3843756318092346
1761371141381170400,9.16617041015625,-0.17592400312423706,-0.07017108052968979,-0.2945810854434967
1761371141399781400,9.184781494140625,-0.12033691257238388,-0.021303297951817513,-0.19501298666000366
1761371141418394000,9.20339404296875,-0.06047387793660164,-0.06711684167385101,-0.13576079905033112
1761371141437005000,9.222005126953125,-0.030542362481355667,-0.1587439328432083,-0.09422318637371063
1761371141455617800,9.24061767578125,-0.06963659077882767,-0.14164020121097565,-0.056961506605148315
1761371141474228700,9.259228759765625,-0.15515519678592682,-0.06528430432081223,-0.04352286830544472
1761371141492841500,9.277841552734374,-0.22845686972141266,-0.012751436792314053,-0.06001574173569679
1761371141511452400,9.296452392578125,-0.2223484069108963,-0.03779617324471474,-0.08872556686401367
1761371141530065000,9.31506494140625,-0.16492876410484314,-0.1214822456240654,-0.11315945535898209
1761371141548676000,9.333676025390625,-0.12400199472904205,-0.21066594123840332,-0.12171131372451782
1761371141567288600,9.35228857421875,-0.1441599577665329,-0.25953373312950134,-0.09483403712511063
1761371141585899800,9.370899658203125,-0.20707722008228302,-0.23632153868675232,-0.037414394319057465
1761371141604512300,9.38951220703125,-0.25533416867256165,-0.17096087336540222,0.014583977870643139
1761371141623123200,9.408123291015626,-0.24433889985084534,-0.061619218438863754,0.045737188309431076
1761371141641736000,9.42673583984375,-0.18936264514923096,0.08987089991569519,0.07017108052968979
1761371141660347000,9.445346923828126,-0.12888877093791962,0.1918824017047882,0.09949174523353577
1761371141678959600,9.463959716796875,-0.09468132257461548,0.21509459614753723,0.1361425817012787
1761371141697570600,9.482570556640624,-0.08429691940546036,0.1821088343858719,0.16790664196014404
1761371141716183300,9.501183349609375,-0.07391251623630524,0.10880716890096664,0.19722731411457062
1761371141734794200,9.519794189453124,-0.05864133685827255,0.09414683282375336,0.23632153868675232
1761371141753407000,9.538406982421876,-0.038483377546072006,0.12407834827899933,0.3016822040081024
1761371141772018000,9.557017822265625,0.0006108472589403391,0.2975589632987976,0.39208757877349854
1761371141790630400,9.57563037109375,0.08307522535324097,0.5480063557624817,0.44156619906425476
1761371141809241600,9.59424169921875,0.19363857805728912,0.6017609238624573,0.3963635265827179
1761371141827854000,9.61285400390625,0.34757208824157715,0.5260158181190491,0.28396761417388916
1761371141846465000,9.631465087890625,0.4282039403915405,0.03245126083493233,0.05428905040025711
1761371141865077800,9.650077880859374,0.35856732726097107,-0.5606814026832581,-0.2554868757724762
1761371141883688700,9.668688720703125,0.22784602642059326,-0.8037986159324646,-0.42957833409309387
1761371141902301400,9.687301513671875,0.0525328628718853,-0.6248204112052917,-0.36543938517570496
1761371141920912400,9.705912353515625,-0.06902574002742767,-0.1727934181690216,-0.10399674624204636
1761371141939525000,9.724525146484375,-0.05619794875383377,0.33115556836128235,0.1856212168931961
1761371141958136000,9.743135986328125,0.07024743407964706,0.7984537482261658,0.36093437671661377
1761371141976748800,9.761748779296875,0.18019993603229523,1.061728835105896,0.37559470534324646
1761371141995359700,9.78035986328125,0.2761029601097107,1.0592855215072632,0.24120831489562988
1761371142013972200,9.79897216796875,0.3549022674560547,0.7770740985870361,-0.0331384651362896
1761371142032583400,9.81758349609375,0.4080459773540497,0.43561044335365295,-0.2805316150188446
1761371142051196000,9.83619580078125,0.41232189536094666,0.13690614700317383,-0.3312319219112396
1761371142069807000,9.85480712890625,0.3823903799057007,-0.012751436792314053,-0.1882936656475067
1761371142088419600,9.873419677734375,0.3658975064754486,-0.006642963737249374,0.02924431301653385
1761371142107030800,9.89203076171875,0.367730051279068,0.000687203137204051,0.18195612728595734
1761371142125643300,9.910643310546876,0.3646758198738098,-0.030466007068753242,0.19722731411457062
1761371142144254200,9.929254150390625,0.3402419090270996,-0.021303297951817513,0.1086544543504715
1761371142162867000,9.947866943359376,0.32008397579193115,0.000687203137204051,-0.00259610079228878
1761371142181478000,9.966477783203125,0.2870981991291046,0.05688514932990074,-0.047798797488212585
1761371142200090600,9.985090576171874,0.22845686972141266,0.14545799791812897,-0.02764083817601204
1761371142218701600,10.00370166015625,0.16370706260204315,0.2187596708536148,0.022524992004036903
1761371142237314300,10.022314208984374,0.09590301662683487,0.26579490303993225,0.07444700598716736
1761371142255925200,10.04092529296875,0.0647498071193695,0.18455222249031067,0.11293038725852966
1761371142274538000,10.0595380859375,0.07391251623630524,0.034283801913261414,0.13125580549240112
1761371142293149000,10.07814892578125,0.08307522535324097,-0.10560022294521332,0.12697987258434296
1761371142311761400,10.096761474609375,0.06719319522380829,-0.17096087336540222,0.09216158092021942
1761371142330372600,10.11537255859375,0.05008947476744652,-0.17584764957427979,0.04146125912666321
1761371142348985000,10.133985107421875,0.02748812735080719,-0.1220930963754654,0.011529741808772087
1761371142367596000,10.152595947265626,-0.007941014133393764,-0.021914144977927208,0.03840702027082443
1761371142386208800,10.171208740234375,-0.05803048983216286,0.11919157207012177,0.11598462611436844
1761371142404819700,10.18981982421875,-0.08063183724880219,0.1668376624584198,0.20272493362426758
1761371142423432400,10.208432373046875,-0.04153761267662048,0.1527881771326065,0.2131093442440033
1761371142442043400,10.22704345703125,-0.04092676565051079,-0.018249060958623886,0.09093988686800003
1761371142460655900,10.24565576171875,-0.10750912129878998,-0.3810923397541046,-0.12904147803783417
1761371142479267000,10.26426708984375,-0.1960819661617279,-0.8386169075965881,-0.3232909142971039
1761371142497879600,10.282879638671876,-0.3255815804004669,-1.060354471206665,-0.37948885560035706
1761371142516490500,10.301490478515625,-0.4355340898036957,-0.982166051864624,-0.22127941250801086
1761371142535103200,10.320103271484374,-0.45508119463920593,-0.5991647839546204,0.11048699915409088
1761371142553714200,10.338714111328125,-0.37383851408958435,0.008017370477318764,0.4519506096839905
1761371142572327000,10.357326904296874,-0.2351761907339096,0.5547256469726562,0.6681905388832092
1761371142590937900,10.375937744140625,-0.13744063675403595,0.7141568064689636,0.6956786513328552
1761371142609550600,10.394550537109374,-0.08674030750989914,0.40995487570762634,0.542356014251709
1761371142628161500,10.41316162109375,-0.03665083646774292,-0.11537377536296844,0.2680855989456177
1761371142646774300,10.431774169921875,0.004275931045413017,-0.47882789373397827,0.0029778804164379835
1761371142665385200,10.45038525390625,-0.0012216945178806782,-0.5509078502655029,-0.13026317954063416
1761371142683997700,10.468997802734375,-0.028098974376916885,-0.46661093831062317,-0.12354385852813721
1761371142702609000,10.48760888671875,-0.04092676565051079,-0.3584909737110138,-0.02764083817601204
1761371142721221400,10.506221435546875,-0.06719319522380829,-0.24243000149726868,0.07811209559440613
1761371142739832300,10.524832275390626,-0.10995250940322876,-0.0420721061527729,0.13064496219158173
1761371142758445000,10.543445068359375,-0.1569877415895462,0.1540098637342453,0.08605311065912247
1761371142777056000,10.562055908203124,-0.17592400312423706,0.22181391716003418,-0.022754060104489326
1761371142795668700,10.580668701171875,-0.1582094430923462,0.20104511082172394,-0.12110047042369843
1761371142814279700,10.59927978515625,-0.1185043677687645,0.1271325796842575,-0.14553436636924744
1761371142832892400,10.617892333984376,-0.05925218388438225,0.07398887723684311,-0.09666658192873001
1761371142851503400,10.63650341796875,0.025655584409832954,0.07948649674654007,0.017027366906404495
1761371142870115800,10.65511572265625,0.06413896381855011,0.006184828467667103,0.15263545513153076
1761371142888727000,10.67372705078125,0.042759306728839874,-0.2143310308456421,0.25892287492752075
1761371142907339500,10.692339599609374,-0.014660334214568138,-0.33772218227386475,0.3200076222419739
1761371142925950500,10.710950439453125,-0.06963659077882767,-0.24731677770614624,0.3322245478630066
1761371142944563200,10.729563232421874,-0.11239589750766754,-0.011529741808772087,0.3071798086166382
1761371142963174100,10.748174072265625,-0.12339114397764206,0.28106608986854553,0.2906869351863861
1761371142981787000,10.766786865234375,-0.09712471067905426,0.40690064430236816,0.28335678577423096
1761371143000397800,10.785397705078125,-0.05375456064939499,0.4130091071128845,0.26197710633277893
1761371143019010600,10.804010498046875,0.0006108472589403391,0.4172850251197815,0.2625879645347595
1761371143037621500,10.82262158203125,0.02504473738372326,0.43622130155563354,0.3077906668186188
1761371143056234000,10.84123388671875,0.062306419014930725,0.6048151254653931,0.37620556354522705
1761371143074845200,10.85984521484375,0.10262233763933182,0.5968741178512573,0.3810923397541046
1761371143093457700,10.878457763671875,0.15393351018428802,0.48753246665000916,0.27419406175613403
1761371143112068600,10.897068603515624,0.16065283119678497,0.1680593490600586,0.07322531193494797
1761371143130681300,10.915681396484375,0.0922379344701767,-0.1984490007162094,-0.12232216447591782
1761371143149292300,10.934292236328124,0.042759306728839874,-0.22838051617145538,-0.1772984117269516
1761371143167905000,10.952905029296875,0.004275931045413017,-0.02924431301653385,-0.12232216447591782
1761371143186516000,10.971515869140624,0.054365407675504684,0.3494809865951538,-0.047798797488212585
1761371143205128700,10.990128662109376,0.16859383881092072,0.5883222818374634,-0.00259610079228878
1761371143223739600,11.00873974609375,0.2596100866794586,0.6219188570976257,-0.04046862944960594
1761371143242352000,11.02735205078125,0.31825143098831177,0.48569992184638977,-0.15530791878700256
1761371143260963300,11.04596337890625,0.3524588644504547,0.25235626101493835,-0.24998924136161804
1761371143279575800,11.064575927734374,0.36223241686820984,0.12468919903039932,-0.24876753985881805
1761371143298186800,11.083186767578125,0.3640649616718292,0.139960378408432,-0.1754658818244934
1761371143316799500,11.101799560546874,0.3243598937988281,0.21387289464473724,-0.13392825424671173
1761371143335410400,11.120410400390625,0.2638860046863556,0.2841203212738037,-0.17974179983139038
1761371143354023200,11.139023193359375,0.20035789906978607,0.31588438153266907,-0.2664821147918701
1761371143372634000,11.157634033203125,0.14965757727622986,0.2706816792488098,-0.3568875193595886
1761371143391246600,11.17624658203125,0.16370706260204315,0.25357797741889954,-0.41675055027008057
1761371143409857800,11.19485791015625,0.183865025639534,0.2853420376777649,-0.3226800560951233
1761371143428470300,11.21347021484375,0.21318569779396057,0.16195088624954224,-0.2163926362991333
1761371143447081200,11.232081298828126,0.30847787857055664,0.10514208674430847,-0.14125843346118927
1761371143465694000,11.25069384765625,0.3775036036968231,0.043446511030197144,-0.11254860460758209
1761371143484305000,11.269304931640624,0.4086568057537079,-0.012140588834881783,-0.10827267915010452
1761371143502917600,11.287917724609375,0.42698222398757935,-0.11964970827102661,-0.08017370104789734
