time,seconds_elapsed,z,y,x
1761370693406111000,0.204111083984375,-0.029538631439208984,0.034290313720703125,0.12997381389141083
1761370693424722000,0.222721923828125,0.03309965133666992,0.012292861938476562,0.1328025758266449
1761370693443334100,0.241334228515625,0.05217409133911133,-0.025628089904785156,0.05005553364753723
1761370693461945000,0.259945068359375,-0.0650033950805664,-0.004609107971191406,-0.03249727189540863
1761370693480557600,0.2785576171875,-0.0484471321105957,0.02628326416015625,-0.10678841173648834
1761370693499168300,0.297168212890625,0.06576919555664062,0.0361785888671875,-0.01256437599658966
1761370693517780700,0.31578076171875,0.26895856857299805,0.03433704376220703,0.1043383777141571
1761370693536391400,0.334391357421875,0.3795967102050781,0.030574798583984375,0.1540401577949524
1761370693555004000,0.35300390625,0.3883495330810547,0.02738189697265625,0.1141190230846405
1761370693573614600,0.371614501953125,0.3115396499633789,0.019971847534179688,0.030850917100906372
1761370693592227000,0.39022705078125,-0.08416032791137695,-0.037570953369140625,-0.025932520627975464
1761370693610837800,0.408837646484375,-0.24867534637451172,-0.07886028289794922,-0.06656920909881592
1761370693629450200,0.4274501953125,-0.3314671516418457,-0.06540298461914062,-0.061654552817344666
1761370693648061000,0.44606103515625,-0.39852046966552734,-0.09052276611328125,-0.03192910552024841
1761370693666673400,0.46467333984375,-0.11945152282714844,-0.07322120666503906,-0.08809708058834076
1761370693685284000,0.4832841796875,0.14983701705932617,-0.0025358200073242188,-0.023324906826019287
1761370693703896600,0.501896484375,-0.026508331298828125,-0.009188652038574219,0.08428318798542023
1761370693722507300,0.52050732421875,-0.12327432632446289,0.030631065368652344,-0.050414055585861206
1761370693741119700,0.53911962890625,0.2447676658630371,0.03688240051269531,-0.025745078921318054
1761370693759730700,0.557730712890625,0.2864341735839844,-0.00115966796875,0.18614646792411804
1761370693778343000,0.576343017578125,0.03723907470703125,-0.020915985107421875,0.2409370094537735
1761370693796953900,0.594953857421875,-0.2722892761230469,-0.03014659881591797,0.23477089405059814
1761370693815566000,0.613566162109375,-0.08087587356567383,0.08467388153076172,-0.08108364045619965
1761370693834177000,0.632177001953125,0.24488306045532227,0.23592758178710938,-0.13045938313007355
1761370693852789200,0.650789306640625,0.24935340881347656,-0.020256996154785156,-0.05317011475563049
1761370693871400200,0.669400146484375,-0.13397502899169922,-0.09421443939208984,-0.011078968644142151
1761370693890012400,0.688012451171875,-0.4962935447692871,-0.16844940185546875,-0.11162097007036209
1761370693908623400,0.706623291015625,-0.5516777038574219,-0.16898441314697266,-0.20859560370445251
1761370693927235600,0.725235595703125,-0.301114559173584,-0.10301780700683594,-0.1744917631149292
1761370693945846500,0.743846435546875,0.08621454238891602,0.018543243408203125,0.016971230506896973
1761370693964458800,0.762458740234375,0.03627920150756836,0.08978748321533203,0.03253208100795746
1761370693983069700,0.781069580078125,-0.002087116241455078,0.0699005126953125,0.03012162446975708
1761370694001682000,0.799681884765625,0.0019488334655761719,0.03978538513183594,0.00015144050121307373
1761370694020292900,0.81829296875,-0.15822839736938477,-0.0020198822021484375,0.10353600978851318
1761370694038905300,0.8369052734375,-0.20800447463989258,-0.01833057403564453,0.12615738809108734
1761370694057516000,0.85551611328125,0.062193870544433594,-0.012628555297851562,0.05725120007991791
1761370694076128500,0.87412841796875,0.13345909118652344,0.031574249267578125,-0.014371275901794434
1761370694094739200,0.8927392578125,0.10082149505615234,0.057427406311035156,0.07157501578330994
1761370694113351700,0.9113515625,0.26419878005981445,0.07128238677978516,0.10876867175102234
1761370694131962600,0.929962646484375,0.13379430770874023,0.0032110214233398438,0.09978191554546356
1761370694150574800,0.948574951171875,-0.11924362182617188,-0.017340660095214844,0.07975205779075623
1761370694169185800,0.967185791015625,-0.21641016006469727,-0.016139984130859375,0.006380513310432434
1761370694187798000,0.985798095703125,-0.21691370010375977,-0.057186126708984375,-0.0039246827363967896
1761370694206409000,1.004408935546875,0.05026578903198242,-0.03807258605957031,-0.058866143226623535
1761370694225021200,1.023021240234375,0.09767627716064453,-0.037212371826171875,-0.020542219281196594
1761370694243632000,1.041632080078125,-0.02737140655517578,-0.036861419677734375,-0.07336539030075073
1761370694262244400,1.060244384765625,-0.016277313232421875,-0.008066177368164062,-0.08076214045286179
1761370694280855300,1.078855224609375,0.014706611633300781,-0.0007534027099609375,-0.030367985367774963
1761370694299467800,1.0974677734375,0.0712275505065918,0.02924060821533203,0.025309652090072632
1761370694318078500,1.116078369140625,0.061507225036621094,0.040848731994628906,-0.050458818674087524
1761370694336691000,1.13469091796875,0.00824117660522461,0.0009717941284179688,-0.09620462357997894
1761370694355301600,1.153301513671875,0.02978372573852539,-0.0003528594970703125,-0.09144197404384613
1761370694373914000,1.1719140625,0.09851360321044922,0.015770912170410156,-0.022044509649276733
1761370694392524800,1.19052490234375,-0.023635387420654297,-0.031584739685058594,0.08108419179916382
1761370694411137300,1.20913720703125,-0.11388015747070312,-0.06910133361816406,0.1335441917181015
1761370694429748000,1.227748046875,-0.15523910522460938,-0.06139373779296875,0.06329874694347382
1761370694448360400,1.2463603515625,0.056894779205322266,-0.014596939086914062,0.016757100820541382
1761370694466971100,1.26497119140625,0.0965428352355957,0.010351181030273438,0.029714331030845642
1761370694485583600,1.28358349609375,0.0787200927734375,0.024298667907714844,0.03484335541725159
1761370694504194600,1.302194580078125,-0.07258462905883789,0.014632225036621094,0.01395745575428009
1761370694522806800,1.320806884765625,-0.13303041458129883,-0.018370628356933594,0.00003692507743835449
1761370694541417700,1.339417724609375,-0.16319608688354492,0.03105926513671875,0.010655075311660767
1761370694560030000,1.358030029296875,0.0806574821472168,0.02569293975830078,0.013884752988815308
1761370694578641000,1.376640869140625,0.2895627021789551,0.029497146606445312,0.08310043811798096
1761370694597253000,1.395253173828125,0.1979527473449707,0.026134490966796875,0.07667000591754913
1761370694615864000,1.413864013671875,0.04518461227416992,0.031838417053222656,0.01515999436378479
1761370694634476300,1.432476318359375,0.0211029052734375,0.037507057189941406,-0.06253203749656677
1761370694653087200,1.451087158203125,-0.011548995971679688,0.024184226989746094,0.020814701914787292
1761370694671699700,1.46969970703125,0.02585458755493164,-0.026851654052734375,0.12688133120536804
1761370694690310400,1.488310302734375,0.0582122802734375,-0.05422782897949219,0.02169722318649292
1761370694708923000,1.5069228515625,-0.04488039016723633,-0.053534507751464844,-0.04604945331811905
1761370694727533600,1.525533447265625,-0.07056140899658203,-0.04269123077392578,-0.15746532380580902
1761370694746146000,1.54414599609375,0.003753662109375,-0.03155517578125,-0.0669734925031662
1761370694764757000,1.562757080078125,0.13091039657592773,-0.003387451171875,-0.07821245491504669
1761370694783369200,1.581369140625,0.09521102905273438,0.05556774139404297,-0.07820414006710052
1761370694801980200,1.599980224609375,-0.030118465423583984,0.030687332153320312,0.04895167052745819
1761370694820592400,1.61859228515625,-0.11894798278808594,0.00807952880859375,0.09437735378742218
1761370694839203300,1.637203369140625,-0.12409830093383789,-0.007452964782714844,0.05988970398902893
1761370694857815600,1.655815673828125,-0.09230232238769531,-0.025940895080566406,0.04888834059238434
1761370694876426500,1.674426513671875,-0.10532760620117188,-0.07521820068359375,0.035988569259643555
1761370694895038700,1.693038818359375,-0.10119342803955078,-0.06619548797607422,-0.00978318601846695
1761370694913649700,1.711649658203125,-0.09981107711791992,-0.03943634033203125,0.06489357352256775
1761370694932262100,1.73026220703125,0.060400962829589844,0.03519725799560547,0.00944836437702179
1761370694950872800,1.748872802734375,0.10063886642456055,0.06147480010986328,0.008686795830726624
1761370694969485300,1.7674853515625,0.08575439453125,0.03253173828125,-0.024100661277770996
1761370694988096000,1.786095947265625,0.04877424240112305,-0.021538734436035156,-0.02616523951292038
1761370695006708500,1.80470849609375,-0.036849021911621094,-0.014997482299804688,-0.09879440069198608
1761370695025319200,1.823319091796875,-0.06694936752319336,-0.022113800048828125,-0.0530262365937233
1761370695043931600,1.841931640625,0.04894685745239258,0.012989997863769531,-0.04207736626267433
1761370695062542300,1.860542236328125,0.11619329452514648,0.03160381317138672,0.0196351557970047
1761370695081154800,1.87915478515625,0.030735015869140625,0.025844573974609375,0.060272760689258575
1761370695099765500,1.897765625,0.036020755767822266,0.016076087951660156,0.09037799388170242
1761370695118378000,1.9163779296875,0.0884237289428711,-0.005314826965332031,0.11722465604543686
1761370695136989000,1.934989013671875,0.023413658142089844,0.03160858154296875,0.09968530386686325
1761370695155601200,1.95360107421875,0.03360414505004883,0.0064334869384765625,0.1405724436044693
1761370695174212000,1.972212158203125,-0.06642770767211914,-0.052967071533203125,0.15354299545288086
1761370695192824300,1.99082421875,-0.15620660781860352,-0.06219768524169922,0.09577780961990356
1761370695211435300,2.009435302734375,-0.18326377868652344,-0.041629791259765625,-0.009317904710769653
1761370695230047500,2.028047607421875,-0.17284393310546875,0.014586448669433594,-0.06101882457733154
1761370695248658400,2.046658447265625,0.061458587646484375,0.034325599670410156,-0.07336652278900146
1761370695267270700,2.065270751953125,0.46545982360839844,0.0260772705078125,-0.01448734849691391
1761370695285881600,2.083881591796875,0.30083799362182617,0.0025510787963867188,0.03671684116125107
1761370695304494000,2.102494140625,-0.06717681884765625,0.00084686279296875,-0.06801971793174744
1761370695323104800,2.121104736328125,-0.1508197784423828,0.04093456268310547,-0.12659159302711487
1761370695341717200,2.13971728515625,0.0028324127197265625,0.019043922424316406,-0.007038123905658722
1761370695360328000,2.158327880859375,0.13972043991088867,-0.04297828674316406,0.177444726228714
1761370695378940400,2.1769404296875,-0.11991643905639648,-0.08935928344726562,0.153903067111969
1761370695397551000,2.195551025390625,-0.4175300598144531,-0.0844106674194336,-0.06087080016732216
1761370695416163600,2.21416357421875,-0.3940701484680176,-0.045627593994140625,-0.19777631759643555
1761370695434774500,2.2327744140625,-0.14722490310668945,-0.038559913635253906,-0.10148217529058456
1761370695453386800,2.25138671875,-0.07914304733276367,-0.03059101104736328,0.044167615473270416
1761370695471997700,2.269997802734375,-0.11522912979125977,0.03378868103027344,-0.0248417966067791
1761370695490610000,2.28860986328125,-0.07172822952270508,0.03132152557373047,-0.059663597494363785
1761370695509220900,2.307220947265625,0.06096220016479492,-0.00594329833984375,-0.018049128353595734
1761370695527833000,2.3258330078125,0.2432417869567871,0.00377655029296875,0.03777608275413513
1761370695546444000,2.344444091796875,0.30240869522094727,0.08759021759033203,0.007221780717372894
1761370695565056300,2.36305615234375,0.2519216537475586,0.10372734069824219,0.031560830771923065
1761370695583667200,2.381667236328125,0.22025108337402344,0.09463882446289062,0.070005401968956
1761370695602279400,2.400279541015625,0.11237525939941406,0.028496742248535156,0.0752071738243103
1761370695620890400,2.418890380859375,-0.01159048080444336,-0.017188072204589844,0.07566574960947037
1761370695639502600,2.437502685546875,-0.1099848747253418,-0.042949676513671875,-0.043226733803749084
1761370695658113500,2.456113525390625,-0.15712547302246094,-0.06512832641601562,-0.12987300753593445
1761370695676726000,2.47472607421875,-0.16538763046264648,-0.07332420349121094,-0.05604488030076027
1761370695695336700,2.493336669921875,-0.04888153076171875,-0.031803131103515625,-0.06796172261238098
1761370695713949200,2.51194921875,-0.016262531280517578,0.015677452087402344,-0.033166781067848206
1761370695732560000,2.530559814453125,0.007188320159912109,0.028280258178710938,-0.03655146062374115
1761370695751172400,2.54917236328125,0.03978586196899414,-0.022924423217773438,0.065646231174469
1761370695769783300,2.567783203125,0.031783103942871094,0.0070934295654296875,0.05556069314479828
1761370695788395500,2.5863955078125,-0.027597904205322266,0.026564598083496094,0.012496590614318848
1761370695807006500,2.60500634765625,-0.14777278900146484,0.034735679626464844,-0.03301304578781128
1761370695825618700,2.62361865234375,-0.17161941528320312,-0.03460693359375,-0.00299970805644989
1761370695844229600,2.642229736328125,0.021042346954345703,-0.014946937561035156,-0.004681378602981567
1761370695862841900,2.660841796875,0.06391429901123047,-0.022485733032226562,0.019785955548286438
1761370695881452800,2.679452880859375,0.043745994567871094,-0.01858234405517578,0.023271232843399048
1761370695900065000,2.69806494140625,-0.0183868408203125,0.016050338745117188,-0.021213844418525696
1761370695918676000,2.716676025390625,-0.04327964782714844,0.0761404037475586,-0.07005928456783295
1761370695937288200,2.7352880859375,-0.055384159088134766,0.05320167541503906,0.042289525270462036
1761370695955899100,2.753899169921875,0.025432586669921875,0.004138946533203125,0.13454490900039673
1761370695974511400,2.772511474609375,0.21074867248535156,-0.007496833801269531,0.11960914731025696
1761370695993122300,2.791122314453125,0.17173242568969727,0.009607315063476562,0.02313511073589325
1761370696011734500,2.809734619140625,0.02433919906616211,-0.025984764099121094,0.018924638628959656
1761370696030345500,2.828345458984375,-0.09021806716918945,-0.03443431854248047,0.034768909215927124
1761370696048958000,2.8469580078125,-0.08758974075317383,-0.023794174194335938,0.0079193115234375
1761370696067568600,2.865568603515625,-0.030429363250732422,-0.0011110305786132812,-0.057289592921733856
1761370696086181000,2.88418115234375,0.14305734634399414,0.022653579711914062,-0.09581594914197922
1761370696104791800,2.902791748046875,0.21195077896118164,0.07358646392822266,-0.0871162861585617
1761370696123404300,2.921404296875,0.024541378021240234,0.05609703063964844,-0.05971460044384003
1761370696142015000,2.940014892578125,-0.08455371856689453,-0.03727531433105469,0.061101049184799194
1761370696160627500,2.95862744140625,-0.014278411865234375,-0.10796260833740234,0.2128227949142456
1761370696179238400,2.97723828125,-0.002643108367919922,-0.06911373138427734,0.1445719450712204
1761370696197850600,2.9958505859375,-0.041185855865478516,-0.0009260177612304688,-0.005128741264343262
1761370696216461600,3.014461669921875,-0.11161041259765625,-0.0013217926025390625,-0.11577872186899185
1761370696235073800,3.03307373046875,-0.036954402923583984,0.011197090148925781,-0.08690465241670609
1761370696253684700,3.051684814453125,0.08570384979248047,-0.016277313232421875,-0.024890661239624023
1761370696272297000,3.070296875,0.03917551040649414,-0.03597736358642578,0.01636478304862976
1761370696290908000,3.088907958984375,0.013906002044677734,-0.011011123657226562,0.0012575238943099976
1761370696309520100,3.10752001953125,-0.055217742919921875,-0.019733428955078125,0.03187793493270874
1761370696328131000,3.126131103515625,-0.08538961410522461,-0.03229713439941406,-0.0013394802808761597
1761370696346743300,3.144743408203125,-0.10201311111450195,-0.025008201599121094,-0.0822814404964447
1761370696365354200,3.163354248046875,-0.11847639083862305,-0.03767204284667969,-0.05170527845621109
1761370696383966500,3.181966552734375,-0.03814125061035156,-0.027876853942871094,0.05332504212856293
1761370696402577400,3.200577392578125,0.05612802505493164,0.027990341186523438,0.0876493901014328
1761370696421189600,3.219189697265625,0.0005049705505371094,0.053730010986328125,0.12542513012886047
1761370696439800600,3.237800537109375,0.0024433135986328125,0.046256065368652344,0.11513864994049072
1761370696458412800,3.256412841796875,0.06282854080200195,0.01777935028076172,0.06898751854896545
1761370696477023700,3.275023681640625,0.06170082092285156,0.017808914184570312,-0.008285760879516602
1761370696495636200,3.29363623046875,0.0006203651428222656,0.036136627197265625,-0.030049964785575867
1761370696514247000,3.312246826171875,-0.009797096252441406,-0.013505935668945312,-0.05866359919309616
1761370696532859400,3.330859375,-0.07245492935180664,-0.0026388168334960938,-0.0921209305524826
1761370696551470000,3.349469970703125,-0.12280941009521484,0.01790904998779297,-0.07509216666221619
1761370696570082600,3.36808251953125,-0.015110015869140625,0.0008020401000976562,-0.01812770962715149
1761370696588693200,3.386693359375,0.19247055053710938,0.05225086212158203,-0.025157295167446136
1761370696607305700,3.4053056640625,0.08964729309082031,0.07733535766601562,-0.031173110008239746
1761370696625916400,3.42391650390625,-0.052594661712646484,0.06509780883789062,-0.09051460772752762
1761370696644529000,3.44252880859375,0.016008853912353516,0.04252147674560547,0.005466669797897339
1761370696663139800,3.461139892578125,0.11371755599975586,-0.017286300659179688,0.1467466950416565
1761370696681752000,3.479751953125,0.06795310974121094,-0.04134941101074219,0.18577969074249268
1761370696700363000,3.498363037109375,-0.004703044891357422,-0.05386829376220703,0.11902424693107605
1761370696718975200,3.516975341796875,-0.08150959014892578,-0.052150726318359375,0.003575742244720459
1761370696737586200,3.535586181640625,-0.12423086166381836,-0.031179428100585938,-0.09076334536075592
1761370696756198400,3.554198486328125,-0.17949199676513672,-0.014519691467285156,-0.09236456453800201
1761370696774809300,3.572809326171875,-0.14012908935546875,-0.02009105682373047,-0.0021854788064956665
1761370696793421600,3.591421630859375,0.028018474578857422,0.014429092407226562,0.019944310188293457
1761370696812032500,3.610032470703125,0.12212085723876953,0.0632944107055664,0.009518206119537354
1761370696830644700,3.628644775390625,0.1687302589416504,0.07886695861816406,-0.021395333111286163
1761370696849255700,3.647255615234375,0.14090871810913086,0.057806968688964844,0.006915837526321411
1761370696867868000,3.665867919921875,0.05003833770751953,0.0068645477294921875,0.00017149746417999268
1761370696886478800,3.684478759765625,-0.026254653930664062,-0.026038169860839844,-0.033456072211265564
1761370696905091300,3.70309130859375,-0.0371851921081543,-0.02270221710205078,-0.019713930785655975
1761370696923702000,3.721701904296875,-0.03581523895263672,0.008298873901367188,-0.025185048580169678
1761370696942314500,3.740314453125,-0.06938982009887695,0.01688671112060547,-0.07502748817205429
1761370696960925200,3.75892529296875,-0.1264796257019043,-0.02034282684326172,-0.06215650588274002
1761370696979537700,3.77753759765625,-0.07863426208496094,-0.022722244262695312,0.0075225383043289185
1761370696998148600,3.796148681640625,0.007537841796875,-0.004073143005371094,0.002036571502685547
1761370697016760800,3.8147607421875,0.029388427734375,0.003414154052734375,-0.040099576115608215
1761370697035371800,3.833371826171875,-0.009347915649414062,-0.03384113311767578,-0.006301805377006531
1761370697053984000,3.85198388671875,0.01598978042602539,-0.032283782958984375,0.07070606201887131
1761370697072595000,3.870594970703125,0.05962514877319336,0.025048255920410156,0.07338237017393112
1761370697091207200,3.889207275390625,-0.038664817810058594,0.059197425842285156,0.02574850618839264
1761370697109818000,3.907818115234375,-0.1025996208190918,0.0069332122802734375,0.011107802391052246
1761370697128430300,3.926430419921875,-0.1173849105834961,-0.05181312561035156,-0.015391029417514801
1761370697147041300,3.945041259765625,-0.025612354278564453,-0.026018142700195312,-0.03220558166503906
1761370697165653500,3.963653564453125,0.1446399688720703,0.02089405059814453,-0.058137595653533936
1761370697184264400,3.982264404296875,0.17127609252929688,0.009810447692871094,-0.012930020689964294
1761370697202877000,4.000876953125,0.029123306274414062,-0.011013984680175781,-0.031953997910022736
1761370697221487600,4.019487548828125,-0.03943777084350586,-0.016335487365722656,-0.07971256971359253
1761370697240100000,4.03810009765625,-0.061480045318603516,-0.008681297302246094,-0.07729649543762207
1761370697258710800,4.056710693359375,-0.060712337493896484,0.02483654022216797,-0.029352590441703796
1761370697277323300,4.0753232421875,-0.030217647552490234,0.006283760070800781,0.07806317508220673
1761370697295934000,4.093933837890625,0.004796504974365234,-0.021391868591308594,0.10688246786594391
1761370697314546400,4.11254638671875,0.03531169891357422,-0.027801513671875,0.02838245779275894
1761370697333157000,4.1311572265625,0.0021648406982421875,0.019292831420898438,-0.04578636586666107
1761370697351769600,4.14976953125,-0.12250280380249023,0.021488189697265625,-0.039900459349155426
1761370697370380500,4.168380615234375,-0.18857049942016602,0.0209197998046875,-0.009225450456142426
1761370697388992800,4.18699267578125,-0.08443260192871094,0.002979278564453125,0.031442269682884216
1761370697407603700,4.205603759765625,0.08154678344726562,-0.04700660705566406,0.13083086907863617
1761370697426216000,4.2242158203125,0.14311885833740234,0.016981124877929688,-0.021950721740722656
1761370697444827000,4.242826904296875,0.016893386840820312,0.08867931365966797,-0.133929044008255
1761370697463439000,4.261439208984375,-0.17362546920776367,0.07433509826660156,-0.029566794633865356
1761370697482050000,4.280050048828125,-0.09589290618896484,-0.003265380859375,0.055836260318756104
1761370697500662500,4.29866259765625,0.16944551467895508,-0.016429901123046875,0.11741983890533447
1761370697519273200,4.317273193359375,0.2129521369934082,0.024797439575195312,0.08567342162132263
1761370697537885700,4.3358857421875,0.15673112869262695,0.028145790100097656,0.0703987181186676
1761370697556496400,4.354496337890625,0.10734939575195312,0.006230354309082031,0.0033279135823249817
1761370697575108900,4.37310888671875,0.06605243682861328,0.0038814544677734375,0.019340507686138153
1761370697593719800,4.3917197265625,0.030383586883544922,-0.0007104873657226562,0.041879504919052124
1761370697612332000,4.41033203125,-0.041676998138427734,-0.005016326904296875,0.03077138215303421
1761370697630943000,4.42894287109375,-0.0671534538269043,-0.004176139831542969,-0.022510819137096405
1761370697649555200,4.44755517578125,-0.06955718994140625,-0.023899078369140625,0.002340644598007202
1761370697668166100,4.466166259765625,0.007343769073486328,-0.026490211486816406,0.05418343096971512
1761370697686778400,4.4847783203125,0.026230335235595703,-0.02033233642578125,0.03432796150445938
1761370697705389300,4.503389404296875,-0.10600137710571289,-0.043982505798339844,-0.015553832054138184
1761370697724001800,4.522001708984375,-0.13877010345458984,-0.055634498596191406,-0.00405275821685791
1761370697742612500,4.540612548828125,0.1334848403930664,-0.022858619689941406,0.045454978942871094
1761370697761225000,4.559224853515625,0.1099390983581543,0.0020542144775390625,0.1088009923696518
1761370697779835600,4.577835693359375,0.021152973175048828,-0.011252403259277344,0.0915059894323349
1761370697798448000,4.5964482421875,0.011861324310302734,-0.026500701904296875,0.09429587423801422
1761370697817058800,4.615058837890625,-0.049996376037597656,-0.012505531311035156,0.07548844814300537
1761370697835671300,4.63367138671875,-0.10853910446166992,0.014662742614746094,-0.0054748281836509705
1761370697854282200,4.6522822265625,-0.15225744247436523,0.035533905029296875,-0.015114523470401764
1761370697872894500,4.67089453125,-0.11512041091918945,-0.006378173828125,0.09954626858234406
1761370697891505400,4.68950537109375,0.0801081657409668,-0.039383888244628906,0.08252036571502686
1761370697910117600,4.70811767578125,0.3019285202026367,0.015979766845703125,0.10394195467233658
1761370697928728600,4.726728515625,0.17395925521850586,0.013414382934570312,0.012691974639892578
1761370697947340800,4.7453408203125,-0.004957675933837891,-0.0030279159545898438,-0.058081407099962234
1761370697965951700,4.76395166015625,-0.043784141540527344,-0.0020055770874023438,-0.03021935373544693
1761370697984564200,4.782564208984375,-0.05201864242553711,0.02286529541015625,0.010538697242736816
1761370698003175000,4.8011748046875,-0.04984283447265625,0.0032091140747070312,0.02147333323955536
1761370698021787400,4.819787353515625,0.05903911590576172,-0.022355079650878906,0.05286429077386856
1761370698040398000,4.838398193359375,0.1399521827697754,0.02924346923828125,0.0405966117978096
1761370698059010600,4.857010498046875,0.093536376953125,0.054642677307128906,-0.02371324598789215
1761370698077621200,4.875621337890625,-0.03985023498535156,0.007045745849609375,-0.0163424015045166
1761370698096233700,4.894233642578125,-0.0789785385131836,-0.03580760955810547,-0.05850682780146599
1761370698114844700,4.9128447265625,-0.09460639953613281,-0.06268692016601562,-0.022091925144195557
1761370698133457000,4.931456787109375,-0.024169921875,-0.04640960693359375,-0.04939805343747139
1761370698152067800,4.95006787109375,-0.03330230712890625,-0.018764495849609375,-0.11131513118743896
1761370698170680000,4.96868017578125,-0.06376504898071289,0.0034923553466796875,-0.1342633068561554
1761370698189291000,4.987291015625,-0.09669017791748047,0.0045490264892578125,-0.1339355856180191
1761370698207903200,5.0059033203125,-0.042836666107177734,-0.021965980529785156,-0.07532693445682526
1761370698226514200,5.02451416015625,0.040129661560058594,-0.012889862060546875,-0.02798554301261902
1761370698245126700,5.043126708984375,0.06981039047241211,0.007145881652832031,-0.016818515956401825
1761370698263737300,5.0617373046875,0.07335424423217773,0.016710281372070312,0.017339125275611877
1761370698282349800,5.080349853515625,0.013629436492919922,0.0027093887329101562,0.021186254918575287
1761370698300960500,5.09896044921875,-0.0335383415222168,-0.017020225524902344,-0.003080226480960846
1761370698319573000,5.117572998046875,-0.00032138824462890625,0.0015974044799804688,0.01230071485042572
1761370698338184000,5.136183837890625,0.06382083892822266,0.01373291015625,-0.003970347344875336
1761370698356796200,5.154796142578125,0.02502584457397461,0.03385734558105469,-0.05651365965604782
1761370698375407000,5.173406982421875,-0.009444713592529297,0.03907585144042969,-0.054463230073451996
1761370698394019300,5.192019287109375,-0.0085296630859375,0.025762557983398438,-0.04888010025024414
1761370698412630300,5.21063037109375,-0.005923748016357422,0.0038480758666992188,0.03367633372545242
1761370698431242500,5.229242431640625,0.017590999603271484,-0.000774383544921875,0.05218765139579773
1761370698449853400,5.247853515625,0.0738835334777832,0.026723861694335938,0.012130185961723328
1761370698468466000,5.2664658203125,0.044970035552978516,0.03668022155761719,-0.011884815990924835
1761370698487076600,5.28507666015625,0.03658342361450195,0.024932861328125,0.02023431658744812
1761370698505689000,5.303689208984375,-0.06224870681762695,0.022574424743652344,0.06110776960849762
1761370698524299800,5.3222998046875,-0.11426353454589844,-0.009400367736816406,0.08091162145137787
1761370698542912300,5.340912353515625,-0.10092496871948242,-0.02550792694091797,0.09281019866466522
1761370698561523000,5.35952294921875,-0.03220987319946289,-0.022385597229003906,0.05241429805755615
1761370698580135400,5.378135498046875,0.08933401107788086,-0.05035591125488281,0.015200510621070862
1761370698598746400,5.396746337890625,0.1212472915649414,-0.03706836700439453,-0.02384132146835327
1761370698617358600,5.415358642578125,0.08356571197509766,-0.015766143798828125,-0.06760777533054352
1761370698635969500,5.433969482421875,-0.026212215423583984,0.014818191528320312,-0.044252410531044006
1761370698654581800,5.452581787109375,-0.045810699462890625,0.012961387634277344,0.06152397394180298
1761370698673192700,5.471192626953125,0.011137962341308594,0.03502082824707031,0.0627695620059967
1761370698691805000,5.489804931640625,0.009686946868896484,0.02612590789794922,0.04571785777807236
1761370698710416000,5.508415771484375,-0.04116678237915039,0.01776599884033203,-0.024432752281427383
1761370698729028400,5.5270283203125,-0.07067060470581055,-0.022325515747070312,-0.07436953485012054
1761370698747639000,5.54563916015625,-0.04395484924316406,-0.044231414794921875,-0.06517128646373749
1761370698766251500,5.56425146484375,-0.002193927764892578,-0.030259132385253906,-0.021220259368419647
1761370698784862200,5.5828623046875,0.0232391357421875,0.010714530944824219,-0.029616672545671463
1761370698803474700,5.601474609375,0.00019502639770507812,0.03772735595703125,-0.08032002300024033
1761370698822085600,5.620085693359375,-0.07220125198364258,-0.008135795593261719,-0.030402772128582
1761370698840697900,5.63869775390625,-0.11626243591308594,-0.013537406921386719,0.01888955384492874
1761370698859308800,5.657308837890625,-0.0037584304809570312,-0.013699531555175781,0.06633897870779037
1761370698877921000,5.675921142578125,0.028670310974121094,-0.0027027130126953125,0.12531030178070068
1761370698896532000,5.694531982421875,0.028442859649658203,0.014530181884765625,0.02260209619998932
1761370698915144200,5.713144287109375,0.028853416442871094,0.005272865295410156,0.10849285870790482
1761370698933755100,5.731755126953125,0.04828453063964844,-0.0015010833740234375,0.06504988670349121
1761370698952367400,5.750367431640625,0.03188753128051758,0.0036783218383789062,0.1275309920310974
1761370698970978300,5.768978271484375,0.13208389282226562,0.03349781036376953,0.0049807727336883545
1761370698989590800,5.7875908203125,0.06033945083618164,0.02150249481201172,-0.020543456077575684
1761370699008201500,5.806201416015625,-0.0299530029296875,-0.008543968200683594,-0.0459158793091774
1761370699026814000,5.82481396484375,-0.010476112365722656,-0.018400192260742188,-0.03104190155863762
1761370699045424600,5.843424560546875,0.005229949951171875,0.007349967956542969,-0.06188664585351944
1761370699064037000,5.862037109375,0.08983707427978516,0.03581428527832031,-0.049717262387275696
1761370699082647800,5.880647705078125,0.10869073867797852,0.029524803161621094,0.006207376718521118
1761370699101260300,5.89926025390625,0.021099090576171875,-0.019624710083007812,0.03490187227725983
1761370699119871200,5.917871337890625,-0.005467414855957031,-0.03604316711425781,-0.02582242339849472
1761370699138483500,5.9364833984375,-0.03517007827758789,-0.013985633850097656,-0.1002369374036789
1761370699157094400,5.955094482421875,-0.047695159912109375,0.025897979736328125,-0.16087621450424194
1761370699175706600,5.97370654296875,-0.15514230728149414,-0.016473770141601562,-0.043326880782842636
1761370699194317600,5.992317626953125,-0.2364792823791504,-0.0667257308959961,0.0565728098154068
1761370699212929800,6.0109296875,-0.20215511322021484,-0.0764455795288086,0.10729482769966125
1761370699231540700,6.029540771484375,-0.0712122917175293,0.012403488159179688,-0.007208108901977539
1761370699250153200,6.0481533203125,0.03607177734375,0.045459747314453125,-0.03860332444310188
1761370699268764000,6.066763916015625,0.026439189910888672,-0.0021915435791015625,0.03534780442714691
1761370699287376400,6.08537646484375,0.05342864990234375,0.002964019775390625,0.0864146500825882
1761370699305987000,6.103987060546875,0.08795881271362305,0.020722389221191406,0.08538983762264252
1761370699324599600,6.122599609375,0.0451664924621582,0.037505149841308594,0.09469277411699295
1761370699343210200,6.141210205078125,-0.014645576477050781,0.03981494903564453,0.02681291103363037
1761370699361822700,6.15982275390625,0.02251434326171875,0.007213592529296875,0.0378071591258049
1761370699380433700,6.17843359375,-0.0031337738037109375,-0.012097358703613281,0.05460492521524429
1761370699399046000,6.1970458984375,-0.04291248321533203,0.0025320053100585938,0.06869233399629593
1761370699417656800,6.21565673828125,0.01701831817626953,0.02559661865234375,0.04458578675985336
1761370699436269000,6.23426904296875,-0.015716075897216797,0.012691497802734375,0.05156398564577103
1761370699454880000,6.2528798828125,-0.019925594329833984,-0.017991065979003906,0.08205970376729965
1761370699473492200,6.2714921875,-0.0657200813293457,-0.025726318359375,0.0363389328122139
1761370699492103200,6.290103271484375,-0.08865737915039062,0.014597892761230469,-0.051207032054662704
1761370699510715400,6.30871533203125,-0.07249593734741211,0.011995315551757812,-0.07483063638210297
1761370699529326300,6.327326416015625,-0.07682180404663086,0.00106048583984375,-0.04536157846450806
1761370699547938800,6.345938720703125,0.029520511627197266,-0.01219940185546875,-0.019878052175045013
1761370699566549500,6.364549560546875,0.027602195739746094,-0.006922721862792969,0.0827258974313736
1761370699585162000,6.383161865234375,-0.016880035400390625,-0.03859519958496094,0.09330727159976959
1761370699603772700,6.401772705078125,-0.055056095123291016,-0.0142669677734375,0.11193300038576126
1761370699622385200,6.42038525390625,-0.04423332214355469,0.056609153747558594,0.02885974943637848
1761370699640996000,6.43899609375,0.09304332733154297,0.0827341079711914,0.02195776253938675
1761370699659608300,6.4576083984375,0.2954416275024414,0.08658790588378906,0.04169170558452606
1761370699678219300,6.47621923828125,0.19628572463989258,0.025465965270996094,0.10258355736732483
1761370699696831500,6.49483154296875,0.13300657272338867,-0.0018529891967773438,0.01806071400642395
1761370699715442400,6.5134423828125,0.10565614700317383,-0.014855384826660156,-0.06563825160264969
1761370699734054700,6.5320546875,0.03304910659790039,-0.023108482360839844,-0.11409641057252884
1761370699752665600,6.55066552734375,-0.15075302124023438,-0.04433917999267578,-0.08436419069766998
1761370699771278000,6.569278076171875,-0.18379831314086914,-0.042079925537109375,-0.10011806339025497
1761370699789888800,6.587888671875,-0.0540003776550293,-0.058325767517089844,-0.02999136596918106
1761370699808501200,6.606501220703125,0.004611968994140625,-0.058005332946777344,0.019551098346710205
1761370699827112000,6.62511181640625,-0.038046836853027344,-0.032456398010253906,-0.010154306888580322
1761370699845724400,6.643724365234375,-0.06076812744140625,0.0038175582885742188,-0.0781637653708458
1761370699864335000,6.662335205078125,-0.08919477462768555,-0.016066551208496094,-0.05832495912909508
1761370699882947600,6.680947509765625,-0.024870872497558594,-0.024984359741210938,-0.025219708681106567
1761370699901558500,6.69955859375,0.03696012496948242,0.001209259033203125,-0.028598163276910782
1761370699920170800,6.718170654296875,0.08773660659790039,0.0033512115478515625,0.0163491889834404
1761370699938781700,6.73678173828125,0.12146806716918945,0.0211334228515625,0.06531856954097748
1761370699957394000,6.755393798828125,0.11365461349487305,0.06546401977539062,0.011334337294101715
1761370699976004900,6.7740048828125,0.0434112548828125,0.045074462890625,-0.04823378100991249
1761370699994617000,6.7926171875,0.013714313507080078,0.03556060791015625,-0.10351409018039703
1761370700013228000,6.81122802734375,-0.019362926483154297,0.0040225982666015625,-0.1462087631225586
1761370700031840500,6.829840576171875,-0.09240150451660156,-0.016129493713378906,-0.09774187207221985
1761370700050451200,6.848451171875,-0.029813766479492188,0.0037221908569335938,-0.19644290208816528
1761370700069063700,6.867063720703125,0.04549455642700195,-0.012609481811523438,-0.14275437593460083
1761370700087674400,6.88567431640625,0.005283832550048828,-0.042611122131347656,0.04627002775669098
1761370700106286800,6.904286865234375,-0.018917560577392578,-0.04907035827636719,0.16839444637298584
1761370700124897500,6.9228974609375,-0.05821037292480469,-0.039130210876464844,0.1814900040626526
1761370700143510000,6.941510009765625,-0.108367919921875,-0.029676437377929688,0.15467116236686707
1761370700162121000,6.960120849609375,-0.11844778060913086,-0.0001811981201171875,0.10463979095220566
1761370700180733200,6.978733154296875,0.02114582061767578,0.041534423828125,0.004480309784412384
1761370700199344000,6.99734423828125,0.01481485366821289,0.051123619079589844,-0.009440846741199493
1761370700217956400,7.015956298828125,0.006570339202880859,0.04156494140625,0.027214638888835907
1761370700236567300,7.0345673828125,-0.022150516510009766,-0.0027370452880859375,0.010060496628284454
1761370700255179500,7.053179443359375,0.0324549674987793,-0.0037565231323242188,-0.030173175036907196
1761370700273790500,7.07179052734375,0.06561613082885742,0.019985198974609375,0.007582210004329681
1761370700292403000,7.09040283203125,0.028696060180664062,0.07992172241210938,-0.010289251804351807
1761370700311013600,7.109013671875,0.023996353149414062,0.04177570343017578,0.010157249867916107
1761370700329626000,7.127626220703125,0.0888066291809082,-0.024132728576660156,0.023266546428203583
1761370700348236800,7.14623681640625,-0.0008530616760253906,-0.056014060974121094,0.029613904654979706
1761370700366849300,7.164849365234375,-0.19435358047485352,-0.034384727478027344,-0.05573302507400513
1761370700385460200,7.183460205078125,-0.1660475730895996,-0.02056598663330078,-0.14820395410060883
1761370700404072400,7.202072509765625,-0.007970333099365234,-0.0061054229736328125,-0.07308763265609741
1761370700422683400,7.220683349609375,0.09189891815185547,0.03995513916015625,0.015274018049240112
1761370700441295600,7.239295654296875,0.11862421035766602,0.04826641082763672,0.07418953627347946
1761370700459906600,7.257906494140625,0.1660447120666504,0.03144550323486328,0.0441165417432785
1761370700478518800,7.276518798828125,0.1062922477722168,-0.020940780639648438,0.042476482689380646
1761370700497129700,7.295129638671875,-0.021762371063232422,0.01071929931640625,-0.06696804612874985
1761370700515742200,7.3137421875,-0.06690740585327148,0.03904151916503906,-0.1419529914855957
1761370700534353000,7.332352783203125,-0.07444477081298828,-0.009983062744140625,0.0001024007797241211
1761370700552965400,7.35096533203125,-0.06479930877685547,-0.06331920623779297,0.07238849252462387
1761370700571576000,7.369576171875,0.009299278259277344,-0.042107582092285156,0.08319350332021713
1761370700590188500,7.3881884765625,0.036074161529541016,0.01212310791015625,-0.0402570515871048
1761370700608799500,7.406799560546875,-0.05429363250732422,-0.00368499755859375,-0.09056425094604492
1761370700627411700,7.42541162109375,-0.1600632667541504,-0.04056739807128906,-0.054113008081912994
1761370700646022700,7.444022705078125,-0.044381141662597656,-0.037873268127441406,-0.002553515136241913
1761370700664635000,7.462634765625,0.08976316452026367,0.03327751159667969,-0.04184512794017792
1761370700683245800,7.481245849609375,-0.0031042098999023438,0.02209949493408203,0.018775396049022675
1761370700701858000,7.499858154296875,-0.0562744140625,-0.006908416748046875,0.08572707325220108
1761370700720469000,7.518468994140625,-0.0533299446105957,-0.02214336395263672,0.04234626889228821
1761370700739081500,7.53708154296875,-0.004533290863037109,-0.027387619018554688,0.04924455285072327
1761370700757692200,7.555692138671875,0.0672755241394043,0.011479377746582031,-0.010939061641693115
1761370700776304600,7.5743046875,0.03892230987548828,0.027391433715820312,0.11967594921588898
1761370700794915300,7.592915283203125,0.06322097778320312,0.015133857727050781,0.13151583075523376
1761370700813527800,7.61152783203125,0.06636762619018555,0.03751564025878906,0.08696652948856354
1761370700832138500,7.630138427734375,-0.0356144905090332,0.026460647583007812,0.0820247083902359
1761370700850751000,7.6487509765625,-0.09389591217041016,-0.0063381195068359375,0.07058040797710419
1761370700869362000,7.66736181640625,0.033267974853515625,-0.009458541870117188,0.022265225648880005
1761370700887974100,7.68597412109375,0.029005050659179688,0.040076255798339844,0.003960758447647095
1761370700906585000,7.704585205078125,-0.025728225708007812,0.026925086975097656,-0.06303684413433075
1761370700925197300,7.723197265625,-0.01984262466430664,-0.02062225341796875,-0.001278206706047058
1761370700943808300,7.741808349609375,0.06665706634521484,-0.02309703826904297,0.035840198397636414
1761370700962420700,7.760420654296875,0.09673690795898438,-0.022447586059570312,0.04598492383956909
1761370700981031400,7.779031494140625,-0.00023651123046875,-0.000713348388671875,-0.01418401300907135
1761370700999644000,7.797643798828125,-0.05688047409057617,-0.02238941192626953,-0.05081861466169357
1761370701018254600,7.816254638671875,-0.07834291458129883,0.0006875991821289062,-0.018746867775917053
1761370701036867000,7.8348671875,-0.06941032409667969,0.022093772888183594,0.10559730231761932
1761370701055477800,7.853477783203125,0.0703120231628418,-0.0017232894897460938,0.19374388456344604
1761370701074090200,7.87209033203125,0.1763620376586914,0.008294105529785156,0.1105249673128128
1761370701092701200,7.890701171875,0.09930992126464844,0.009349822998046875,0.023800402879714966
1761370701111313400,7.9093134765625,-0.026021480560302734,0.017770767211914062,-0.06767697632312775
1761370701129924400,7.92792431640625,-0.11841773986816406,0.00044345855712890625,-0.12984174489974976
1761370701148536600,7.94653662109375,-0.14940357208251953,-0.030750274658203125,-0.0859392061829567
1761370701167147500,7.9651474609375,0.02728271484375,-0.058165550231933594,0.0026546865701675415
1761370701185759700,7.983759765625,0.15406370162963867,0.004778861999511719,0.016962304711341858
1761370701204370700,8.00237060546875,0.08131885528564453,0.061374664306640625,-0.07344552874565125
1761370701222983200,8.020983154296875,-0.05671072006225586,0.022978782653808594,-0.13563746213912964
1761370701241593900,8.03959375,-0.06541967391967773,-0.0014448165893554688,-0.09214548766613007
1761370701260206300,8.058206298828125,-0.054071903228759766,0.0010671615600585938,-0.022042423486709595
1761370701278817000,8.076817138671874,0.03437232971191406,-0.00130462646484375,0.049263179302215576
1761370701297429500,8.095429443359375,0.06977081298828125,0.014069557189941406,0.06870219111442566
1761370701316040200,8.114040283203124,0.032891273498535156,0.023697853088378906,0.01799510419368744
1761370701334652700,8.132652587890625,-0.07363033294677734,-0.006222724914550781,0.010640710592269897
1761370701353263600,8.151263671875,-0.09484529495239258,-0.035938262939453125,0.014214590191841125
1761370701371875800,8.169875732421875,0.06893396377563477,-0.006443023681640625,0.016478002071380615
1761370701390486800,8.18848681640625,0.09406852722167969,-0.00044918060302734375,0.08252732455730438
1761370701409099000,8.20709912109375,-0.0064849853515625,-0.009087562561035156,0.03828595578670502
1761370701427710000,8.2257099609375,-0.11861944198608398,-0.04965019226074219,-0.03610271215438843
1761370701446322400,8.244322509765626,-0.16875267028808594,-0.06874942779541016,-0.029537633061408997
1761370701464933000,8.26293310546875,-0.03977632522583008,-0.0693044662475586,0.036743998527526855
1761370701483545600,8.281545654296876,0.12952136993408203,0.006485939025878906,0.05424170196056366
1761370701502156300,8.30015625,0.1939249038696289,0.05454444885253906,0.03396423161029816
1761370701520768800,8.318768798828126,0.048182010650634766,0.09051895141601562,-0.011027790606021881
1761370701539379500,8.33737939453125,-0.04958772659301758,0.04235076904296875,-0.025565117597579956
1761370701557992000,8.355991943359374,0.025432109832763672,-0.01778888702392578,0.0038335174322128296
1761370701576603000,8.374602783203125,0.042174339294433594,-0.029510498046875,0.03220227360725403
1761370701595215000,8.393215087890624,0.021634578704833984,0.02194499969482422,0.005027204751968384
1761370701613826000,8.411825927734375,0.02467966079711914,0.046100616455078125,-0.015128940343856812
1761370701632438300,8.430438232421874,-0.07873344421386719,0.06783485412597656,-0.052219539880752563
1761370701651049200,8.44904931640625,-0.11761760711669922,0.029107093811035156,0.00823161005973816
1761370701669661400,8.467661376953124,0.010886669158935547,-0.01994037628173828,0.09653832018375397
1761370701688272400,8.4862724609375,0.04829216003417969,-0.05923938751220703,0.04154752194881439
1761370701706884900,8.504884765625,0.031505584716796875,-0.031073570251464844,-0.09442657232284546
1761370701725495600,8.52349560546875,-0.025393009185791016,-0.04905891418457031,-0.10484636574983597
1761370701744108000,8.54210791015625,-0.10436868667602539,-0.030722618103027344,-0.13955385982990265
1761370701762719000,8.560718994140625,-0.1461014747619629,0.01854705810546875,-0.13924941420555115
1761370701781331200,8.579331298828125,-0.07885169982910156,0.04632282257080078,-0.06025959178805351
1761370701799942100,8.597942138671876,0.0912327766418457,0.026426315307617188,0.029992975294589996
1761370701818554400,8.616554443359375,0.10518264770507812,0.008759498596191406,0.05489224195480347
1761370701837165300,8.635165283203126,0.1083369255065918,0.012076377868652344,0.01849450170993805
1761370701855777500,8.653777587890625,0.08149385452270508,-0.0013141632080078125,0.013059690594673157
1761370701874388500,8.672388427734376,0.03016042709350586,-0.03303241729736328,0.053572528064250946
1761370701893000700,8.691000732421875,-0.008187294006347656,-0.030561447143554688,0.03472822159528732
1761370701911611600,8.709611572265626,-0.09730339050292969,-0.011884689331054688,-0.03660375624895096
1761370701930224000,8.72822412109375,-0.1354827880859375,-0.0024099349975585938,-0.06568852066993713
1761370701948834800,8.746834716796876,-0.10013341903686523,-0.04556560516357422,-0.0498780757188797
1761370701967447300,8.765447265625,0.02191781997680664,-0.031050682067871094,-0.025420457124710083
1761370701986058000,8.78405810546875,0.09479904174804688,-0.022487640380859375,-0.03038637340068817
1761370702004670500,8.80267041015625,0.01933574676513672,0.0014820098876953125,-0.011542893946170807
1761370702023281400,8.821281494140624,0.013965606689453125,-0.0008306503295898438,0.01553007960319519
1761370702041893600,8.8398935546875,0.0980534553527832,0.015524864196777344,0.052775681018829346
1761370702060504600,8.858504638671874,0.139495849609375,0.041388511657714844,0.02407863736152649
1761370702079116800,8.87711669921875,-0.06919097900390625,0.014471054077148438,-0.005017630755901337
1761370702097727700,8.895727783203125,-0.1917719841003418,-0.054045677185058594,0.02590293437242508
1761370702116340000,8.914340087890626,-0.13579416275024414,-0.051120758056640625,0.004806160926818848
1761370702134951000,8.932950927734375,-0.08541107177734375,-0.0410919189453125,0.0019268393516540527
1761370702153563400,8.9515634765625,-0.09751462936401367,-0.04507637023925781,0.05996258556842804
1761370702172174000,8.970174072265625,0.11821126937866211,-0.009626388549804688,-0.06467313319444656
1761370702190786600,8.98878662109375,0.07424783706665039,0.0328369140625,-0.025309860706329346
1761370702209397200,9.007397216796875,0.07545900344848633,0.08698081970214844,-0.046239886432886124
1761370702228009700,9.026009765625,0.1034998893737793,0.04079246520996094,-0.010605454444885254
1761370702246620400,9.044620361328125,0.03849029541015625,0.050403594970703125,-0.00386124849319458
1761370702265233000,9.06323291015625,0.060984134674072266,0.06264495849609375,-0.020709984004497528
1761370702283843800,9.08184375,0.04262495040893555,0.03715705871582031,0.07917927205562592
1761370702302456000,9.1004560546875,-0.025392532348632812,-0.0160369873046875,0.13431768119335175
1761370702321067000,9.11906689453125,-0.09348058700561523,-0.05322837829589844,0.07619361579418182
1761370702339679200,9.13767919921875,-0.057541847229003906,-0.05145740509033203,-0.013508319854736328
1761370702358290200,9.156290283203125,-0.05187034606933594,-0.019011497497558594,-0.07219768315553665
1761370702376902400,9.17490234375,-0.06112813949584961,-0.008322715759277344,-0.1087198331952095
1761370702395513300,9.193513427734375,-0.06172466278076172,-0.011404991149902344,-0.08856367319822311
1761370702414125600,9.21212548828125,0.05663013458251953,-0.03969287872314453,0.021497264504432678
1761370702432736500,9.230736572265625,0.17284250259399414,0.010951995849609375,0.039621658623218536
1761370702451349000,9.249348876953125,0.10777139663696289,0.023697853088378906,0.04187696427106857
1761370702469959700,9.267959716796875,-0.010289192199707031,-0.01575469970703125,0.019055455923080444
1761370702488572200,9.286572265625,-0.06233024597167969,-0.032108306884765625,0.006613492965698242
1761370702507182800,9.305182861328126,-0.0742640495300293,-0.021663665771484375,-0.04529249668121338
1761370702525795300,9.32379541015625,-0.09910345077514648,-0.013159751892089844,-0.061741966754198074
1761370702544406000,9.342406005859376,-0.03376579284667969,0.003170013427734375,0.005290597677230835
1761370702563018500,9.3610185546875,0.10461807250976562,0.018456459045410156,0.12467203289270401
1761370702581629400,9.37962939453125,0.20389890670776367,0.031785011291503906,0.12079645693302155
1761370702600241700,9.39824169921875,0.15651512145996094,0.07061958312988281,0.0276641845703125
1761370702618852600,9.4168525390625,0.07085800170898438,0.03008556365966797,0.0006193816661834717
1761370702637464800,9.43546484375,0.03284263610839844,-0.041728973388671875,0.07435238361358643
1761370702656075800,9.45407568359375,0.03595256805419922,-0.027303695678710938,0.08000655472278595
1761370702674688000,9.47268798828125,-0.0403895378112793,0.012292861938476562,0.03806304931640625
1761370702693299000,9.491298828125,-0.12911653518676758,0.011190414428710938,0.025929711759090424
1761370702711911400,9.509911376953125,-0.23204565048217773,-0.009282112121582031,0.0032289475202560425
1761370702730522000,9.528522216796874,-0.20904541015625,-0.08069992065429688,0.0036741867661476135
1761370702749134600,9.547134521484375,-0.030179500579833984,-0.0644540786743164,0.037902288138866425
1761370702767745300,9.565745361328124,0.07163619995117188,-0.015018463134765625,0.02601034939289093
1761370702786357800,9.584357666015626,0.04112434387207031,0.06962394714355469,-0.021022021770477295
1761370702804968700,9.60296875,0.023941516876220703,0.0435943603515625,-0.11688511073589325
1761370702823581000,9.621580810546876,-0.018583297729492188,0.05127525329589844,-0.09456963837146759
1761370702842192000,9.64019189453125,0.0031595230102539062,0.028738021850585938,-0.03672175109386444
1761370702860804000,9.65880419921875,0.09050893783569336,0.02971363067626953,0.07963841408491135
1761370702879415000,9.6774150390625,0.11164712905883789,0.036217689514160156,0.09812883287668228
1761370702898027300,9.69602734375,0.004235267639160156,0.00033473968505859375,0.09163126349449158
1761370702916638200,9.71463818359375,-0.10588884353637695,-0.04262256622314453,0.08836651593446732
1761370702935250700,9.733250732421874,-0.0786447525024414,-0.03419303894042969,0.03373190015554428
1761370702953861400,9.751861328125,-0.06515121459960938,0.0001201629638671875,-0.008295610547065735
1761370702972473900,9.770473876953124,-0.03732490539550781,0.0011434555053710938,0.00977228581905365
1761370702991084500,9.78908447265625,-0.050445556640625,-0.002185821533203125,0.07556857168674469
1761370703009697000,9.807697021484374,-0.07504463195800781,-0.016904830932617188,0.11937256157398224
1761370703028307700,9.8263076171875,-0.06857109069824219,-0.02639293670654297,0.1173117458820343
1761370703046920200,9.844920166015624,-0.01506948471069336,-0.010189056396484375,0.037981852889060974
1761370703065531000,9.86353076171875,0.015599250793457031,-0.027551651000976562,0.005077362060546875
1761370703084143400,9.882143310546875,0.019684314727783203,0.0029172897338867188,-0.0608479380607605
1761370703102754300,9.90075439453125,0.07740497589111328,0.034305572509765625,-0.02845737338066101
1761370703121366500,9.919366455078125,0.1435389518737793,0.0642385482788086,0.027115777134895325
1761370703139977500,9.9379775390625,0.12307977676391602,0.061756134033203125,0.09785421192646027
1761370703158589700,9.956589599609375,0.08691167831420898,0.041703224182128906,0.08414794504642487
1761370703177200600,9.97520068359375,-0.05948686599731445,-0.008320808410644531,0.028027907013893127
1761370703195812900,9.993812744140625,-0.1555933952331543,-0.05563068389892578,-0.018930897116661072
1761370703214423800,10.012423828125,-0.12578105926513672,-0.05790233612060547,-0.05890081822872162
1761370703233036300,10.031036376953125,0.015796661376953125,-0.0122222900390625,-0.04351474344730377
1761370703251647000,10.04964697265625,0.07566499710083008,0.031289100646972656,-0.015043750405311584
1761370703270259500,10.068259521484375,-0.0012946128845214844,0.026490211486816406,-0.015235602855682373
1761370703288870100,10.0868701171875,-0.036108970642089844,-0.017409324645996094,-0.015872076153755188
1761370703307482600,10.105482666015625,-0.007175922393798828,-0.031775474548339844,-0.051773056387901306
1761370703326093300,10.12409326171875,-0.0493931770324707,-0.010655403137207031,-0.059086352586746216
1761370703344705800,10.142705810546875,-0.039060115814208984,-0.01781749725341797,-0.019871339201927185
1761370703363316700,10.161316650390624,-0.04146623611450195,0.0008153915405273438,-0.008273884654045105
1761370703381929000,10.179928955078125,-0.04821348190307617,-0.00188446044921875,-0.016561642289161682
1761370703400540000,10.198539794921874,-0.08076715469360352,-0.016180038452148438,0.07804091274738312
1761370703419152100,10.217152099609375,-0.04936790466308594,-0.02516937255859375,0.07859286665916443
1761370703437763000,10.23576318359375,0.07252216339111328,-0.03180885314941406,0.11202327907085419
1761370703456375600,10.25437548828125,0.07254505157470703,0.019217491149902344,0.03625375032424927
1761370703474986200,10.272986328125,0.0038132667541503906,0.055057525634765625,-0.00884157419204712
1761370703493598700,10.2915986328125,-0.005522727966308594,0.06050395965576172,0.011701107025146484
1761370703512209400,10.31020947265625,0.05213451385498047,0.0772695541381836,0.06093503534793854
1761370703530822000,10.32882177734375,0.19186019897460938,0.060194969177246094,-0.11780522763729095
1761370703549432800,10.347432861328125,0.15744829177856445,0.05065631866455078,-0.018183991312980652
1761370703568045000,10.366045166015626,0.09567785263061523,-0.02627849578857422,0.0004480332136154175
1761370703586656000,10.384656005859375,-0.008962154388427734,-0.047469139099121094,0.06456491351127625
1761370703605268200,10.403268310546874,-0.018341541290283203,-0.05123424530029297,-0.05739930272102356
1761370703623879200,10.421879150390625,-0.1153254508972168,-0.04068946838378906,-0.045189931988716125
1761370703642491400,10.440491455078124,-0.16961908340454102,-0.031045913696289062,-0.07582265883684158
1761370703661102300,10.459102294921875,-0.13786554336547852,-0.011470794677734375,-0.07482042163610458
1761370703679714800,10.47771484375,-0.049811363220214844,-0.006079673767089844,-0.1538819521665573
1761370703698325500,10.496325439453125,0.07001781463623047,0.018095016479492188,-0.12542182207107544
1761370703716938000,10.51493798828125,0.11949872970581055,0.02181243896484375,-0.08979788422584534
1761370703735549000,10.533548828125,0.023860931396484375,0.02032756805419922,-0.007635071873664856
1761370703754161200,10.5521611328125,-0.0456085205078125,-0.020728111267089844,0.04114830493927002
1761370703772772000,10.570772216796875,-0.04108476638793945,-0.01768207550048828,0.015260353684425354
1761370703791384300,10.58938427734375,0.012595176696777344,0.010243415832519531,-0.042394816875457764
1761370703809995300,10.607995361328125,0.007184505462646484,-0.030890464782714844,-0.004743203520774841
1761370703828607500,10.626607421875,-0.04089069366455078,-0.034816741943359375,0.007573723793029785
1761370703847218400,10.645218505859376,0.007630825042724609,-0.008213996887207031,-0.022813580930233
1761370703865830700,10.66383056640625,-0.08172130584716797,0.015398979187011719,-0.13880875706672668
1761370703884441600,10.682441650390626,-0.15001392364501953,0.047405242919921875,-0.12002791464328766
1761370703903054000,10.70105419921875,0.01934671401977539,0.044487953186035156,-0.02076982706785202
1761370703921664800,10.719664794921876,0.34006500244140625,0.03666114807128906,0.18244001269340515
1761370703940277200,10.73827734375,0.3288908004760742,0.010441780090332031,0.16159828007221222
1761370703958888200,10.75688818359375,0.06274652481079102,0.051016807556152344,0.13790513575077057
1761370703977500400,10.77550048828125,-0.12749195098876953,-0.011821746826171875,0.08796970546245575
1761370703996111400,10.794111328125,-0.13663864135742188,0.015153884887695312,-0.016258135437965393
1761370704014723600,10.8127236328125,-0.10994386672973633,-0.04450798034667969,-0.08578255772590637
1761370704033334500,10.83133447265625,-0.1470351219177246,-0.009665489196777344,-0.10846443474292755
1761370704051946800,10.84994677734375,-0.06933164596557617,0.022057533264160156,-0.10958138108253479
1761370704070557700,10.8685576171875,0.010457038879394531,0.024524688720703125,-0.05284401774406433
1761370704089170200,10.887170166015625,-0.07474088668823242,-0.0025997161865234375,0.0827057957649231
1761370704107780900,10.90578076171875,-0.15968990325927734,-0.03216743469238281,0.19236749410629272
1761370704126393300,10.924393310546876,-0.06512022018432617,-0.02044677734375,0.08701491355895996
1761370704145004000,10.943004150390625,0.1743755340576172,-0.002079010009765625,0.07758086919784546
1761370704163616500,10.961616455078126,0.12222719192504883,0.01617145538330078,0.06322962045669556
1761370704182227500,10.9802275390625,-0.09773921966552734,0.0020999908447265625,0.04639829695224762
