time,seconds_elapsed,z,y,x
1761370857878972400,0.205972412109375,0.22784602642059326,0.8467106819152832,-0.17485502362251282
1761370857897583000,0.2245830078125,0.17897824943065643,0.7178218960762024,-0.2786990702152252
1761370857916195600,0.243195556640625,0.09407047927379608,0.45943349599838257,-0.42102646827697754
1761370857934806300,0.26180615234375,-0.05741964280605316,-0.1465269923210144,-0.5798467397689819
1761370857953418800,0.280418701171875,-0.08368607610464096,-0.7995226979255676,-0.6195518374443054
1761370857972029400,0.299029541015625,-0.22845686972141266,-0.9662840366363525,-0.8748859763145447
1761370857990642000,0.317641845703125,-0.29687178134918213,-0.8239566087722778,-1.1742011308670044
1761370858009252600,0.336252685546875,-0.15271180868148804,-0.6052733063697815,-1.4148749113082886
1761370858027864800,0.35486474609375,0.06658235192298889,-0.44278791546821594,-1.5657542943954468
1761370858046475800,0.373475830078125,0.2351761907339096,-0.32733777165412903,-1.5730843544006348
1761370858065088000,0.392087890625,0.2779355049133301,-0.1599656194448471,-1.4985610246658325
1761370858083699000,0.410698974609375,0.2211267054080963,-0.1074327602982521,-1.2896512746810913
1761370858102311200,0.429311279296875,0.08551861345767975,-0.38781166076660156,-0.8553388714790344
1761370858120922000,0.447922119140625,-0.1948602795600891,-0.6144359707832336,-0.2707580327987671
1761370858139534300,0.466534423828125,-0.45385950803756714,-0.5924454927444458,0.20700086653232574
1761370858158145300,0.485145263671875,-0.4471401870250702,-0.19661645591259003,0.3603235185146332
1761370858176757500,0.503757568359375,-0.11239589750766754,0.2444152534008026,0.2375432252883911
1761370858195368400,0.522368408203125,0.26816195249557495,0.46004435420036316,-0.024586603045463562
1761370858213980700,0.540980712890625,0.5155550837516785,0.5895439386367798,-0.30252209305763245
1761370858232591600,0.559591552734375,0.5607577562332153,0.8381587862968445,-0.5865660905838013
1761370858251203800,0.578203857421875,0.4086568057537079,0.8845831751823425,-0.7215633392333984
1761370858269814800,0.596814697265625,0.12522368133068085,0.72026526927948,-0.7380561828613281
1761370858288427000,0.615427001953125,-0.14965757727622986,0.5486171841621399,-0.6757497787475586
1761370858307038000,0.634037841796875,-0.3695625960826874,0.609701931476593,-0.5798467397689819
1761370858325650200,0.652650146484375,-0.43981003761291504,0.8351045846939087,-0.4918847680091858
1761370858344261000,0.67126123046875,-0.37322768568992615,0.979264497756958,-0.5181511640548706
1761370858362873300,0.689873291015625,-0.2363978922367096,1.017137050628662,-0.6439857482910156
1761370858381484000,0.708484130859375,-0.07330167293548584,0.9139038324356079,-0.7178982496261597
1761370858400096500,0.727096435546875,0.004886778071522713,0.7300388216972351,-0.7160657048225403
1761370858418707200,0.745707275390625,0.01588202826678753,0.6011500358581543,-0.603058934211731
1761370858437319700,0.764319580078125,-0.08674030750989914,0.4692070484161377,-0.45523393154144287
1761370858455930600,0.7829306640625,-0.23090025782585144,0.28045526146888733,-0.3446705639362335
1761370858474542800,0.80154296875,-0.33291175961494446,0.10636378079652786,-0.3086305856704712
1761370858493153500,0.820153564453125,-0.38788801431655884,0.009239064529538155,-0.305576354265213
1761370858511766000,0.83876611328125,-0.3958290219306946,0.05444176122546196,-0.2664821147918701
1761370858530376700,0.857376708984375,-0.35856732726097107,0.22181391716003418,-0.12293300777673721
1761370858548989200,0.8759892578125,-0.2980934679508209,0.33298811316490173,0.10437852889299393
1761370858567599900,0.894599853515625,-0.2730487287044525,0.4136199355125427,0.308401495218277
1761370858586212400,0.91321240234375,-0.3365768492221832,0.3238253891468048,0.42812758684158325
1761370858604823000,0.931822998046875,-0.4343124032020569,0.06665870547294617,0.45744824409484863
1761370858623435500,0.950435546875,-0.5375455617904663,-0.17645850777626038,0.4330143630504608
1761370858642046200,0.969046142578125,-0.624896764755249,-0.24670593440532684,0.40369367599487305
1761370858660658700,0.98765869140625,-0.6878139972686768,-0.10132429003715515,0.3835357129573822
1761370858679269400,1.006269287109375,-0.6371136903762817,0.05016583204269409,0.3016822040081024
1761370858697881900,1.0248818359375,-0.4825693368911743,0.13079766929149628,0.17096087336540222
1761370858716492500,1.043492431640625,-0.28160059452056885,0.2566322088241577,0.07566870748996735
1761370858735105000,1.06210498046875,-0.08796200156211853,0.37147149443626404,0.04818057641386986
1761370858753715700,1.0807158203125,0.034818295389413834,0.4447731673717499,0.09032903611660004
1761370858772328200,1.099328125,0.10689827054738998,0.5205182433128357,0.1459161341190338
1761370858790939000,1.11793896484375,0.16431790590286255,0.482034832239151,0.1471378356218338
1761370858809551400,1.13655126953125,0.2101314514875412,0.34215080738067627,0.11720632016658783
1761370858828162000,1.155162109375,0.20646637678146362,0.08254073560237885,0.10010259598493576
1761370858846774500,1.1737744140625,0.13927318155765533,-0.19172967970371246,0.08055548369884491
1761370858865385500,1.192385498046875,0.05619794875383377,-0.3981960713863373,0.07383616268634796
1761370858883997700,1.210997802734375,0.018936265259981155,-0.3988068997859955,0.13003410398960114
1761370858902608600,1.229608642578125,0.020157959312200546,-0.3010713458061218,0.25831204652786255
1761370858921220900,1.248220947265625,0.03787253051996231,-0.22043950855731964,0.40369367599487305
1761370858939831800,1.266831787109375,0.08063183724880219,-0.13858596980571747,0.46905434131622314
1761370858958444000,1.285444091796875,0.14904673397541046,0.022677704691886902,0.4782170355319977
1761370858977054700,1.3040546875,0.19424942135810852,0.13629528880119324,0.46661093831062317
1761370858995667200,1.322667236328125,0.23090025782585144,0.3000023663043976,0.4605024755001068
1761370859014278000,1.34127783203125,0.2498365342617035,0.5553365349769592,0.4776062071323395
1761370859032890400,1.359890380859375,0.2583884000778198,0.6145886778831482,0.4733302593231201
1761370859051501000,1.3785009765625,0.3023693859577179,0.5699968338012695,0.5075377225875854
1761370859070113500,1.397113525390625,0.3536805510520935,0.5547256469726562,0.6107708811759949
1761370859088724500,1.415724365234375,0.38422292470932007,0.5107446908950806,0.6981220841407776
1761370859107336700,1.434336669921875,0.390942245721817,0.46309858560562134,0.7005654573440552
1761370859125947600,1.45294775390625,0.35795649886131287,0.30733251571655273,0.6126034259796143
1761370859144559900,1.471559814453125,0.20096874237060547,-0.020692450925707817,0.4721085727214813
1761370859163170800,1.4901708984375,-0.0653606578707695,-0.3010713458061218,0.40491536259651184
1761370859181783000,1.508782958984375,-0.2748812735080719,-0.4116346836090088,0.463556706905365
1761370859200394000,1.52739404296875,-0.3005368411540985,-0.31267744302749634,0.5606814026832581
1761370859219006200,1.546006103515625,-0.1716480851173401,-0.02924431301653385,0.5997756719589233
1761370859237617200,1.5646171875,0.045202698558568954,0.25357797741889954,0.5637356638908386
1761370859256229400,1.5832294921875,0.30481278896331787,0.23769593238830566,0.4977641701698303
1761370859274840300,1.60184033203125,0.497229665517807,0.14362546801567078,0.436068594455719
1761370859293452500,1.62045263671875,0.6445202231407166,0.11980241537094116,0.49287739396095276
1761370859312063500,1.6390634765625,0.6610130667686462,-0.07078192383050919,0.6425349712371826
1761370859330675700,1.65767578125,0.5564818382263184,-0.1080436110496521,0.8276216983795166
1761370859349286700,1.67628662109375,0.37383851408958435,0.03184041380882263,0.8703809976577759
1761370859367899000,1.69489892578125,0.22845686972141266,-0.03474193811416626,0.72683185338974
1761370859386509800,1.713509765625,0.06352811306715012,-0.2803025245666504,0.41774317622184753
1761370859405122000,1.7321220703125,-0.06719319522380829,-0.5154787302017212,0.07627955079078674
1761370859423733000,1.75073291015625,-0.16737215220928192,-0.5796176791191101,-0.16019469499588013
1761370859442345200,1.76934521484375,-0.29259583353996277,-0.6694122552871704,-0.2921377122402191
1761370859460956200,1.7879560546875,-0.4563029110431671,-0.7555416822433472,-0.3465031087398529
1761370859479568400,1.806568359375,-0.5369347333908081,-0.8459470868110657,-0.3434488773345947
1761370859498179300,1.825179443359375,-0.5686988234519958,-0.9094752073287964,-0.30252209305763245
1761370859516791600,1.84379150390625,-0.5509842038154602,-0.9082534909248352,-0.22372281551361084
1761370859535402500,1.862402587890625,-0.4282039403915405,-0.8300650715827942,-0.10827267915010452
1761370859554014700,1.8810146484375,-0.24494975805282593,-0.6462000608444214,0.010918894782662392
1761370859572625700,1.899625732421875,-0.010995250195264816,-0.4244624972343445,0.044515494257211685
1761370859591238000,1.91823779296875,0.22662433981895447,-0.16301986575126648,-0.029473381116986275
1761370859609848800,1.936848876953125,0.46363306045532227,-0.031076854094862938,-0.150421142578125
1761370859628461000,1.9554609375,0.6634564995765686,-0.07078192383050919,-0.2585411071777344
1761370859647072000,1.974072021484375,0.6762842535972595,0.06849125027656555,-0.2921377122402191
1761370859665684200,1.992684326171875,0.6200863122940063,-0.08483141660690308,-0.11621369421482086
1761370859684295200,2.011295166015625,0.497229665517807,-0.20822255313396454,0.09216158092021942
1761370859702907400,2.029907470703125,0.2724378705024719,-0.382924884557724,0.22227205336093903
1761370859721518300,2.048518310546875,0.06780404597520828,-0.6223769783973694,0.26197710633277893
1761370859740130800,2.067130859375,-0.05497625470161438,-0.8190698027610779,0.22899135947227478
1761370859758741500,2.085741455078125,-0.11117420345544815,-0.9644514918327332,0.173404261469841
1761370859777354000,2.10435400390625,-0.1459924876689911,-0.9986588954925537,0.14041851460933685
1761370859795964700,2.122964599609375,-0.16309621930122375,-0.9100860357284546,0.12331479042768478
1761370859814577200,2.1415771484375,-0.13682979345321655,-0.7744779586791992,0.09216158092021942
1761370859833187800,2.160187744140625,-0.10017894953489304,-0.5838935971260071,0.03840702027082443
1761370859851800300,2.17880029296875,-0.0659715011715889,-0.3682645559310913,-0.04963133856654167
1761370859870411000,2.197410888671875,-0.03237490355968475,-0.22166119515895844,-0.14370182156562805
1761370859889023500,2.2160234375,-0.037261683493852615,-0.17645850777626038,-0.17424418032169342
1761370859907634200,2.23463427734375,-0.10934165865182877,-0.19050799310207367,-0.07773031294345856
1761370859926246700,2.25324658203125,-0.20463383197784424,-0.06406260281801224,0.14041851460933685
1761370859944857300,2.271857421875,-0.25350162386894226,0.24075017869472504,0.3688753843307495
1761370859963469800,2.2904697265625,-0.21868331730365753,0.6029825806617737,0.4372902810573578
1761370859982080500,2.30908056640625,-0.10262233763933182,0.873587965965271,0.2888543903827667
1761370860000693000,2.32769287109375,0.016492875292897224,0.818000853061676,-0.012980503961443901
1761370860019303700,2.3463037109375,0.08429691940546036,0.5223507881164551,-0.27320143580436707
1761370860037916200,2.364916259765625,0.0922379344701767,0.26762744784355164,-0.34100547432899475
1761370860056526800,2.38352685546875,0.04214845970273018,0.14423631131649017,-0.23899398744106293
1761370860075139300,2.402139404296875,-0.036039989441633224,0.1393495351076126,-0.05390727147459984
1761370860093750300,2.420750244140625,-0.11422843486070633,0.1289651244878769,0.11842801421880722
1761370860112362500,2.439362548828125,-0.17775654792785645,0.07337802648544312,0.1727934181690216
1761370860130973400,2.457973388671875,-0.20646637678146362,-0.004199574701488018,0.09277242422103882
1761370860149585700,2.476585693359375,-0.21440738439559937,0.022677704691886902,-0.04169032722711563
1761370860168196600,2.495196533203125,-0.21746163070201874,0.22914408147335052,-0.14736689627170563
1761370860186808800,2.513808837890625,-0.21685077250003815,0.5028036236763,-0.21883602440357208
1761370860205419800,2.532419677734375,-0.2217375487089157,0.7275954484939575,-0.2677038013935089
1761370860224032000,2.551031982421875,-0.20768806338310242,0.8955784440040588,-0.2964136302471161
1761370860242643000,2.569642822265625,-0.16615045070648193,0.9652150273323059,-0.3465031087398529
1761370860261255200,2.588255126953125,-0.08307522535324097,0.8864157199859619,-0.41797223687171936
1761370860279866000,2.6068662109375,-0.01832541823387146,0.6249731183052063,-0.4411844313144684
1761370860298478600,2.625478515625,-0.12155860662460327,0.4447731673717499,-0.36971530318260193
1761370860317089300,2.64408935546875,-0.27915719151496887,0.217537984251976,-0.18646112084388733
1761370860335701800,2.66270166015625,-0.43736663460731506,0.07032378762960434,0.04695888236165047
1761370860354312400,2.6813125,-0.624896764755249,-0.0011453386396169662,0.19234053790569305
1761370860372925000,2.699925048828125,-0.7495095729827881,-0.1477486789226532,0.227769672870636
1761370860391535600,2.71853564453125,-0.7941014170646667,-0.17890189588069916,0.18073442578315735
1761370860410148000,2.737148193359375,-0.7690566778182983,-0.18134528398513794,0.06345175951719284
1761370860428758800,2.7557587890625,-0.679872989654541,-0.20333577692508698,-0.08017370104789734
1761370860447371300,2.774371337890625,-0.5308262705802917,-0.28396761417388916,-0.1779092699289322
1761370860465982000,2.79298193359375,-0.3512371778488159,-0.32733777165412903,-0.1247655525803566
1761370860484594400,2.811594482421875,-0.11972606182098389,-0.2912977933883667,0.1349208950996399
1761370860503205000,2.830205078125,0.16737215220928192,-0.27052897214889526,0.5124244689941406
1761370860521817600,2.848817626953125,0.4196520745754242,-0.37620556354522705,0.8300650715827942
1761370860540428500,2.867428466796875,0.5815265774726868,-0.5545729398727417,1.022481918334961
1761370860559040800,2.886040771484375,0.692777156829834,-0.8270108103752136,1.0994486808776855
1761370860577651700,2.904651611328125,0.7520293593406677,-1.2613232135772705,1.1391538381576538
1761370860596264000,2.923263916015625,0.6909446120262146,-1.6077499389648438,1.2796486616134644
1761370860614875000,2.941875,0.5515950918197632,-1.7286977767944336,1.4488533735275269
1761370860633487000,2.960487060546875,0.4227063059806824,-1.5326157808303833,1.717015266418457
1761370860652098000,2.97909814453125,0.2632751762866974,-1.217953085899353,1.82391357421875
1761370860670710300,2.997710205078125,0.2345653474330902,-0.9455152153968811,1.6846404075622559
1761370860689321200,3.0163212890625,0.2980934679508209,-0.704230546951294,1.2906439304351807
1761370860707933700,3.03493359375,0.40132665634155273,-0.538080096244812,0.7494332194328308
1761370860726544400,3.05354443359375,0.4746283292770386,-0.4446204602718353,0.2748049199581146
1761370860745156900,3.072156982421875,0.3958290219306946,-0.3071798086166382,-0.021532366052269936
1761370860763767600,3.090767578125,0.18875180184841156,-0.10376767814159393,-0.12293300777673721
1761370860782380000,3.109380126953125,-0.043981000781059265,0.1533990204334259,-0.12965233623981476
1761370860800990700,3.12799072265625,-0.20096874237060547,0.30183491110801697,-0.2017323076725006
1761370860819603200,3.146603271484375,-0.26999449729919434,0.3378748893737793,-0.4027010500431061
1761370860838214100,3.165214111328125,-0.3042019307613373,0.31954947113990784,-0.6586460471153259
1761370860856826400,3.183826416015625,-0.337798535823822,0.25418880581855774,-0.8394568562507629
1761370860875437300,3.202437255859375,-0.38605546951293945,0.2065427303314209,-0.858393132686615
1761370860894049500,3.221049560546875,-0.42576053738594055,0.2609081268310547,-0.705681324005127
1761370860912660500,3.239660400390625,-0.42576053738594055,0.4166741967201233,-0.44607120752334595
1761370860931272700,3.258272705078125,-0.38788801431655884,0.5608341693878174,-0.24021568894386292
1761370860949883600,3.276883544921875,-0.3139754831790924,0.6170321106910706,-0.1644706279039383
1761370860968495900,3.295495849609375,-0.21196399629116058,0.6506286859512329,-0.1656923145055771
1761370860987106800,3.31410693359375,-0.07635590434074402,0.6744517087936401,-0.16630317270755768
1761370861005719300,3.33271923828125,0.024433890357613564,0.6518504023551941,-0.15469707548618317
1761370861024330000,3.351330078125,0.036039989441633224,0.5577799081802368,-0.14064757525920868
1761370861042942500,3.3699423828125,-0.03787253051996231,0.378190815448761,-0.11926792562007904
1761370861061553200,3.38855322265625,-0.16004198789596558,0.26579490303993225,-0.05635065957903862
1761370861080165600,3.40716552734375,-0.2870981991291046,0.16195088624954224,-0.01969982497394085
1761370861098776300,3.4257763671875,-0.4031592011451721,0.06910209357738495,-0.056961506605148315
1761370861117388800,3.444388916015625,-0.4947862923145294,0.028786176815629005,-0.15897299349308014
1761370861135999700,3.462999755859375,-0.5412106513977051,0.017180079594254494,-0.27564483880996704
1761370861154612000,3.481612060546875,-0.5851916670799255,0.0361163429915905,-0.3746020793914795
1761370861173223000,3.500222900390625,-0.6749862432479858,0.01901262067258358,-0.4894413650035858
1761370861191835100,3.518835205078125,-0.8490777015686035,-0.15630054473876953,-0.6415423154830933
1761370861210446000,3.537446044921875,-1.1038010120391846,-0.42934927344322205,-0.7740961909294128
1761370861229058600,3.55605859375,-1.3768497705459595,-0.6492542624473572,-0.807081937789917
1761370861247669200,3.574669189453125,-1.6120258569717407,-0.754930853843689,-0.7111788988113403
1761370861266281700,3.59328173828125,-1.808107852935791,-0.6840725541114807,-0.4784461259841919
1761370861284892400,3.611892333984375,-1.9211146831512451,-0.5160895586013794,-0.21150586009025574
1761370861303505000,3.6305048828125,-1.8930156230926514,-0.3310028612613678,0.0023670331574976444
1761370861322115600,3.649115478515625,-1.7091506719589233,-0.12636902928352356,0.12392564117908478
1761370861340728000,3.66772802734375,-1.4275500774383545,0.05016583204269409,0.12270393967628479
1761370861359339000,3.686339111328125,-1.1349542140960693,0.14851224422454834,0.04085041210055351
1761370861377951200,3.704951171875,-0.9339854717254639,0.13690614700317383,-0.024586603045463562
1761370861396562200,3.723562255859375,-0.8594620823860168,0.06604786217212677,0.03718532621860504
1761370861415174700,3.742174560546875,-0.9046648144721985,0.012904148548841476,0.23204560577869415
1761370861433785300,3.760785400390625,-1.0317209959030151,0.03367295488715172,0.4843255281448364
1761370861452397800,3.779397705078125,-1.1392301321029663,0.10330954194068909,0.699954628944397
1761370861471008500,3.798008544921875,-1.2009257078170776,0.1808871477842331,0.8031877875328064
1761370861489621000,3.81662109375,-1.2326897382736206,0.2731250822544098,0.7616502046585083
1761370861508232000,3.83523193359375,-1.2375766038894653,0.34398335218429565,0.593056321144104
1761370861526844200,3.85384423828125,-1.216196894645691,0.38491013646125793,0.3707079291343689
1761370861545455000,3.872455078125,-1.1935955286026,0.3904077410697937,0.15630054473876953
1761370861564067300,3.8910673828125,-1.2009257078170776,0.3519243896007538,-0.06490252166986465
1761370861582678300,3.90967822265625,-1.2284138202667236,0.26579490303993225,-0.2518217861652374
1761370861601290800,3.928290771484375,-1.2149752378463745,0.07826480269432068,-0.3574983477592468
1761370861619901400,3.9469013671875,-1.1044118404388428,-0.07261446863412857,-0.3764346241950989
1761370861638514000,3.965513916015625,-0.9278770089149475,-0.07078192383050919,-0.34039464592933655
1761370861657124900,3.984124755859375,-0.6933116316795349,0.05566345527768135,-0.2933593988418579
1761370861675737000,4.002737060546875,-0.45447036623954773,0.13751699030399323,-0.30252209305763245
1761370861694348000,4.02134814453125,-0.3054236173629761,0.08681666851043701,-0.3599417507648468
1761370861712960500,4.03996044921875,-0.22784602642059326,0.012904148548841476,-0.3739912211894989
1761370861731571200,4.0585712890625,-0.20096874237060547,-0.07383616268634796,-0.333064466714859
1761370861750183700,4.07718359375,-0.2363978922367096,-0.18195612728595734,-0.23471805453300476
1761370861768794600,4.095794677734375,-0.3310792148113251,-0.3419981002807617,-0.04963133856654167
1761370861787406800,4.11440673828125,-0.446529358625412,-0.4879906177520752,0.24181915819644928
1761370861806017800,4.133017822265625,-0.5241069197654724,-0.565568208694458,0.6034407615661621
1761370861824630000,4.151630126953125,-0.5479300022125244,-0.5820610523223877,0.9241355657577515
1761370861843241000,4.170240966796875,-0.49051034450531006,-0.46844348311424255,1.0346988439559937
1761370861861853400,4.188853515625,-0.3927747905254364,-0.31389912962913513,0.8544989824295044
1761370861880464100,4.207464111328125,-0.2901524603366852,-0.17829103767871857,0.4763845205307007
1761370861899076600,4.22607666015625,-0.2095206081867218,-0.0958266630768776,0.14897038042545319
1761370861917687600,4.2446875,-0.1704263836145401,-0.0011453386396169662,0.034131091088056564
1761370861936299800,4.2632998046875,-0.08796200156211853,0.058717694133520126,0.1349208950996399
1761370861954910700,4.28191064453125,-0.0030542362947016954,0.08620581775903702,0.3542150557041168
1761370861973523200,4.300523193359375,0.026877280324697495,0.0489441379904747,0.5961105823516846
1761370861992134000,4.3191337890625,0.0030542362947016954,-0.035352785140275955,0.8092962503433228
1761370862010746400,4.337746337890625,-0.046424392610788345,-0.09949174523353577,0.9742250442504883
1761370862029357300,4.356357421875,-0.07452336698770523,-0.15263545513153076,1.0756256580352783
1761370862047969500,4.374969482421875,-0.06413896381855011,-0.23448899388313293,1.101892113685608
1761370862066580500,4.39358056640625,-0.053143709897994995,-0.4000285863876343,1.0542460680007935
1761370862085193000,4.41219287109375,-0.06719319522380829,-0.6498651504516602,0.9693382382392883
1761370862103804000,4.430803955078125,-0.14171656966209412,-1.0175951719284058,0.930854856967926
1761370862122416000,4.449416015625,-0.3402419090270996,-1.2619340419769287,0.9870527982711792
1761370862141027000,4.468027099609375,-0.6230642199516296,-1.255214810371399,1.060354471206665
1761370862159639300,4.486639404296875,-0.9779664874076843,-1.2332242727279663,1.1061680316925049
1761370862178250200,4.505250244140625,-1.2070342302322388,-0.8874847292900085,1.1764154434204102
1761370862196862700,4.52386279296875,-1.1850436925888062,-0.5411342978477478,1.0939511060714722
1761370862215473700,4.5424736328125,-0.9907942414283752,-0.30046048760414124,0.7940250635147095
1761370862234086000,4.5610859375,-0.7666133046150208,-0.20211409032344818,0.40430453419685364
1761370862252696800,4.57969677734375,-0.6670452356338501,-0.06100837141275406,0.11537377536296844
1761370862271309300,4.598309326171875,-0.6878139972686768,0.10330954194068909,-0.04291202127933502
1761370862289920000,4.616919921875,-0.7238540053367615,0.14729054272174835,-0.12232216447591782
1761370862308532500,4.635532470703125,-0.7831062078475952,0.1014770045876503,-0.17974179983139038
1761370862327143400,4.654143310546875,-0.8741224408149719,-0.05978667363524437,-0.26098448038101196
1761370862345755600,4.672755615234375,-0.9743013978004456,-0.2754157483577728,-0.335507869720459
1761370862364366600,4.69136669921875,-1.0298885107040405,-0.4244624972343445,-0.36910444498062134
1761370862382979000,4.70997900390625,-1.009730577468872,-0.5625139474868774,-0.4527905285358429
1761370862401590000,4.728590087890625,-0.9455915689468384,-0.722555935382843,-0.645818293094635
1761370862420202200,4.7472021484375,-0.9504783153533936,-1.0377531051635742,-0.940857470035553
1761370862438813200,4.765813232421875,-1.225359559059143,-1.5619364976882935,-1.2200146913528442
1761370862457425700,4.78442578125,-1.7928366661071777,-1.9773125648498535,-1.3098092079162598
1761370862476036600,4.80303662109375,-2.3719961643218994,-1.9577654600143433,-1.0740221738815308
1761370862494648800,4.82164892578125,-2.709183931350708,-1.5167337656021118,-0.6116108298301697
1761370862513259800,4.840259765625,-2.674365758895874,-0.7237776517868042,-0.06306997686624527
1761370862531872300,4.858872314453125,-2.3176307678222656,0.16500511765480042,0.359712690114975
1761370862550483000,4.87748291015625,-1.8398720026016235,0.7275954484939575,0.48493635654449463
1761370862569095400,4.896095458984375,-1.484358787536621,0.9035194516181946,0.3664320111274719
1761370862587706400,4.914706298828125,-1.3823473453521729,0.766689658164978,0.1483595222234726
1761370862606318800,4.93331884765625,-1.5698775053024292,0.5418978929519653,0.050013117492198944
1761370862624929800,4.9519296875,-1.9443268775939941,0.2871745824813843,0.13980767130851746
1761370862643542000,4.9705419921875,-2.3921542167663574,0.05932854115962982,0.329781174659729
1761370862662153000,4.989153076171875,-2.7910375595092773,-0.11964970827102661,0.5069268941879272
1761370862680765400,5.007765380859375,-3.0109424591064453,-0.3071798086166382,0.5948888659477234
1761370862699376000,5.026376220703125,-3.070805549621582,-0.4348468780517578,0.5625139474868774
1761370862717988600,5.044988525390625,-3.009720802307129,-0.5649573802947998,0.41468894481658936
1761370862736599600,5.063599609375,-2.8899946212768555,-0.6578061580657959,0.2405974566936493
1761370862755212000,5.0822119140625,-2.7476673126220703,-0.773867130279541,0.13736428320407867
1761370862773822700,5.10082275390625,-2.550363779067993,-1.022481918334961,0.17645850777626038
1761370862792435200,5.119435302734375,-2.34206485748291,-1.3877686262130737,0.3151208162307739
1761370862811046100,5.138046142578125,-2.2070674896240234,-1.609582543373108,0.514867901802063
1761370862829658600,5.15665869140625,-2.1698057651519775,-1.5191770792007446,0.6333722472190857
1761370862848269600,5.17526953125,-2.071382999420166,-1.281481146812439,0.5460211038589478
1761370862866881800,5.1938818359375,-1.868581771850586,-1.0059890747070312,0.21005509793758392
1761370862885492700,5.21249267578125,-1.6676130294799805,-1.0737931728363037,-0.3483356535434723
1761370862904105200,5.231105224609375,-1.596754789352417,-1.2839245796203613,-0.8492304086685181
1761370862922716000,5.2497158203125,-1.5350592136383057,-1.2906439304351807,-0.8974873423576355
1761370862941328400,5.268328369140625,-1.4263283014297485,-0.8459470868110657,-0.5071559548377991
1761370862959939300,5.286939208984375,-1.0909732580184937,-0.0811663269996643,0.06406260281801224
1761370862978551800,5.3055517578125,-0.6865923404693604,0.771576464176178,0.537469208240509
1761370862997162800,5.324162841796875,-0.3274141252040863,1.071502447128296,0.7512657642364502
1761370863015775000,5.34277490234375,-0.06413896381855011,0.762413740158081,0.6779640913009644
1761370863034386000,5.361385986328125,0.06841489672660828,0.40995487570762634,0.49532076716423035
1761370863052998400,5.379998291015625,0.0916270911693573,0.2309766262769699,0.41713231801986694
1761370863071609300,5.398609375,0.09773556143045425,0.09292513877153397,0.5686224699020386
1761370863090221800,5.417221923828125,0.09468132257461548,0.039170581847429276,0.7744779586791992
1761370863108832500,5.43583251953125,-0.04153761267662048,0.04527905210852623,0.8172372579574585
1761370863127445000,5.454445068359375,-0.3170297145843506,-0.05062396824359894,0.8154047131538391
1761370863146056000,5.473055908203125,-0.6896465420722961,-0.2638096511363983,0.8599965572357178
1761370863164668400,5.49166845703125,-1.012784719467163,-0.3016822040081024,0.9681165218353271
1761370863183279000,5.510279052734375,-1.206423282623291,-0.07566870748996735,1.1269367933273315
1761370863201891600,5.5288916015625,-1.220472812652588,0.3348206579685211,1.3132452964782715
1761370863220502500,5.54750244140625,-1.0897514820098877,0.7544727325439453,1.4268628358840942
1761370863239115000,5.566114990234375,-0.9284878373146057,0.9346726536750793,1.4299170970916748
1761370863257726000,5.584725830078125,-0.856407880783081,0.8864157199859619,1.2949198484420776
1761370863276338200,5.603338134765625,-0.9229902029037476,0.7685222029685974,1.0707389116287231
1761370863294949000,5.62194921875,-1.1221264600753784,0.7514184713363647,0.8373952507972717
1761370863313561600,5.6405615234375,-1.3059914112091064,0.5174639821052551,0.5735092163085938
1761370863332172500,5.659172607421875,-1.494132399559021,0.40751147270202637,0.16790664196014404
1761370863350785000,5.677784912109375,-1.6755540370941162,0.5217399001121521,-0.43385425209999084
1761370863369395700,5.696395751953125,-1.7464122772216797,0.45210331678390503,-0.9909469485282898
1761370863388008200,5.71500830078125,-1.6364598274230957,-0.17096087336540222,-1.2114628553390503
1761370863406619100,5.733619140625,-1.3835690021514893,-1.051802635192871,-0.9915578365325928
1761370863425231600,5.752231689453125,-1.2345223426818848,-1.7268651723861694,-0.46928340196609497
1761370863443842600,5.770842529296875,-1.4324368238449097,-2.169118642807007,0.11354123055934906
1761370863462454800,5.789454833984375,-1.5582714080810547,-2.453162670135498,0.699954628944397
1761370863481065700,5.808065673828125,-1.6615045070648193,-2.823336124420166,1.0957835912704468
1761370863499678200,5.82667822265625,-1.7537424564361572,-2.9784913063049316,1.0902860164642334
1761370863518289200,5.8452890625,-1.6401249170303345,-2.794626235961914,0.8392277956008911
1761370863536901600,5.863901611328125,-1.4977974891662598,-2.354816198348999,0.5716766715049744
1761370863555512600,5.8825126953125,-1.456870675086975,-1.8795770406723022,0.38720080256462097
1761370863574124800,5.901124755859375,-1.4495404958724976,-1.4183109998703003,0.2625879645347595
1761370863592735700,5.91973583984375,-1.4672551155090332,-1.3199645280838013,0.08849649876356125
1761370863611348200,5.93834814453125,-1.5039058923721313,-1.374329924583435,-0.12659808993339539
1761370863629959200,5.956959228515625,-1.4470971822738647,-1.232613444328308,-0.27381229400634766
1761370863648571600,5.975571533203125,-1.3359229564666748,-1.0065999031066895,-0.3434488773345947
1761370863667182600,5.9941826171875,-1.1795459985733032,-0.6871268153190613,-0.3086305856704712
1761370863685794800,6.012794921875,-1.0011786222457886,-0.4098021686077118,-0.2157817929983139
1761370863704405800,6.03140576171875,-0.9559759497642517,-0.12331479042768478,-0.047798797488212585
1761370863723018200,6.050018310546875,-1.132510781288147,0.1546207070350647,0.23509983718395233
1761370863741629200,6.068629150390625,-1.323706030845642,0.3122192919254303,0.6504759788513184
1761370863760241700,6.08724169921875,-1.3340904712677002,-0.19600561261177063,0.9986588954925537
1761370863778852400,6.105852294921875,-1.216196894645691,-0.8392277956008911,1.1739721298217773
1761370863797464800,6.12446484375,-1.0152281522750854,-1.0023239850997925,1.1379320621490479
1761370863816075800,6.14307568359375,-0.7617265582084656,-0.9534562230110168,0.8905389308929443
1761370863834688300,6.161688232421875,-0.5363239049911499,-0.8037986159324646,0.6028298735618591
1761370863853299200,6.18029931640625,-0.3573456406593323,-0.7201125621795654,0.3291703164577484
1761370863871911400,6.198911376953125,-0.2883199155330658,-0.49409908056259155,0.07689040154218674
1761370863890522400,6.2175224609375,-0.24006296694278717,0.06971294432878494,-0.14431266486644745
1761370863909134800,6.236134765625,-0.17225892841815948,0.19127154350280762,-0.3709369897842407
1761370863927745800,6.254745849609375,-0.2345653474330902,0.0745997205376625,-0.5041016936302185
1761370863946358300,6.273358154296875,-0.2919849753379822,0.09414683282375336,-0.47539186477661133
1761370863964969200,6.29196923828125,-0.32069480419158936,0.16134002804756165,-0.4283566474914551
1761370863983581400,6.31058154296875,-0.33474430441856384,0.29206135869026184,-0.44301697611808777
1761370864002192400,6.3291923828125,-0.32252734899520874,0.44660571217536926,-0.48760882019996643
1761370864020804900,6.347804931640625,-0.312142938375473,0.5296809077262878,-0.49799323081970215
1761370864039415800,6.366415771484375,-0.3292466700077057,0.562666654586792,-0.42163732647895813
1761370864058028300,6.3850283203125,-0.342074453830719,0.5742727518081665,-0.2677038013935089
1761370864076639200,6.40363916015625,-0.3029802441596985,0.4453839957714081,-0.0856713280081749
1761370864095251700,6.422251708984375,-0.24067382514476776,0.4392755329608917,0.08788564801216125
1761370864113862400,6.4408623046875,-0.12644538283348083,0.39407283067703247,0.21738526225090027
1761370864132475000,6.459474853515625,-0.07574506103992462,0.5223507881164551,0.29740625619888306
1761370864151085800,6.4780859375,0.04092676565051079,0.7960103154182434,0.4110238552093506
1761370864169698300,6.4966982421875,0.12827792763710022,0.7654679417610168,0.44523128867149353
1761370864188309200,6.515309326171875,0.16553960740566254,0.7019398808479309,0.4653892517089844
1761370864206921500,6.53392138671875,0.2651077210903168,0.7147676348686218,0.5130353569984436
1761370864225532400,6.552532470703125,0.3274141252040863,0.5797703862190247,0.5289173722267151
1761370864244145000,6.571144775390625,0.30969956517219543,0.5089121460914612,0.5160895586013794
1761370864262755800,6.589755859375,0.26999449729919434,0.3629196286201477,0.41896486282348633
1761370864281368300,6.608368408203125,0.27976804971694946,0.2847311794757843,0.23143476247787476
1761370864299979300,6.626979248046875,0.34573954343795776,0.3751365840435028,-0.011147962883114815
1761370864318591700,6.645591796875,0.42576053738594055,0.4966951906681061,-0.3049654960632324
1761370864337202400,6.664202392578125,0.48989951610565186,0.660402238368988,-0.6213843822479248
1761370864355815000,6.68281494140625,0.5528167486190796,0.6585696935653687,-0.8907679915428162
1761370864374425900,6.70142578125,0.5870242118835449,0.5376219153404236,-1.0373713970184326
1761370864393038300,6.720038330078125,0.48928865790367126,0.42461520433425903,-1.0941801071166992
1761370864411649300,6.738649169921875,0.24128466844558716,0.4661528170108795,-1.071578860282898
1761370864430261800,6.75726171875,-0.01832541823387146,0.6121453046798706,-0.9561286568641663
1761370864448872700,6.775872802734375,-0.1948602795600891,0.7960103154182434,-0.7649334669113159
1761370864467485000,6.79448486328125,-0.13316470384597778,0.7007181644439697,-0.5951179265975952
1761370864486096000,6.813095947265625,0,0.4423297643661499,-0.5499152541160583
1761370864504708400,6.831708251953125,0.005497625097632408,0.1283542811870575,-0.650094211101532
1761370864523319300,6.8503193359375,-0.047646086663007736,-0.11415208131074905,-0.7142331600189209
1761370864541931800,6.868931884765625,-0.13866232335567474,-0.29740625619888306,-0.705070436000824
1761370864560542700,6.887542724609375,-0.18081079423427582,-0.357269287109375,-0.5938962697982788
1761370864579155000,6.906155029296875,-0.1966928243637085,-0.3670428395271301,-0.4424061179161072
1761370864597766000,6.924765869140625,-0.08918370306491852,-0.32245099544525146,-0.279920756816864
1761370864616378400,6.94337841796875,0.08368607610464096,-0.29862794280052185,-0.1516428291797638
1761370864634989300,6.9619892578125,0.15271180868148804,-0.32672691345214844,-0.09666658192873001
1761370864653601800,6.980601806640625,0.11606097966432571,-0.2778591513633728,-0.05085303261876106
1761370864681519400,7.008519287109375,-0.028098974376916885,-0.1611873209476471,-0.04718795046210289
1761370864700130300,7.02713037109375,-0.08735115826129913,-0.07933378964662552,-0.10582929104566574
1761370864718742500,7.045742431640625,-0.13499724864959717,-0.029855160042643547,-0.22066856920719147
1761370864737353500,7.064353515625,-0.24128466844558716,-0.005421269219368696,-0.39231663942337036
1761370864755966000,7.082966064453125,-0.3035911023616791,0.03184041380882263,-0.5645755529403687
1761370864774577000,7.101576904296875,-0.3561239540576935,0.1259108930826187,-0.7062921524047852
1761370864793189400,7.120189453125,-0.446529358625412,0.19615831971168518,-0.7832589149475098
1761370864811800000,7.138800048828125,-0.5833591222763062,0.24930204451084137,-0.7820371985435486
1761370864830412800,7.157412841796875,-0.7281299233436584,0.18638476729393005,-0.7148439884185791
1761370864849023500,7.1760234375,-0.8655705451965332,0.030007870867848396,-0.5920637249946594
1761370864867636000,7.194635986328125,-0.9694145917892456,-0.15446799993515015,-0.435075968503952
1761370864886247000,7.213246826171875,-1.0439379215240479,-0.357269287109375,-0.279920756816864
1761370864904859400,7.231859375,-1.1209046840667725,-0.542356014251709,-0.14797775447368622
1761370864923470300,7.25047021484375,-1.1893196105957031,-0.6016082167625427,0.008475505746901035
1761370864942082800,7.269082763671875,-1.2003148794174194,-0.5130353569984436,0.2375432252883911
1761370864960693500,7.287693603515625,-1.1044118404388428,-0.253425270318985,0.5240305662155151
1761370864979306000,7.306305908203125,-0.8808417320251465,-0.13858596980571747,0.7854732275009155
1761370864997917000,7.3249169921875,-0.624285876750946,-0.13064496219158173,0.8948148488998413
1761370865016529400,7.343529296875,-0.40254834294319153,0.036727190017700195,0.9027559161186218
1761370865035140400,7.362140380859375,-0.24678228795528412,0.1918824017047882,0.8416711688041687
1761370865053752800,7.3807529296875,-0.14660334587097168,0.34520506858825684,0.6920135617256165
1761370865072363500,7.399363525390625,-0.023823043331503868,0.5596124529838562,0.4776062071323395
1761370865090976000,7.41797607421875,0.11911521852016449,0.8241093158721924,0.27297237515449524
1761370865109587000,7.4365869140625,0.2357870489358902,0.9279533624649048,0.08422056585550308
1761370865128199400,7.455199462890625,0.2504473626613617,0.8296069502830505,-0.1382041871547699
1761370865146810400,7.473810302734375,0.1844758689403534,0.6341357827186584,-0.3874298632144928
1761370865165422800,7.4924228515625,0.06780404597520828,0.4392755329608917,-0.6012263894081116
1761370865184033800,7.51103369140625,-0.11911521852016449,0.3891860544681549,-0.6476507782936096
1761370865202646000,7.52964599609375,-0.33718767762184143,0.4514924883842468,-0.5273138880729675
1761370865221257000,7.548257080078125,-0.49234288930892944,0.5498389005661011,-0.29030516743659973
1761370865239869400,7.566869384765625,-0.5900784730911255,0.5925981998443604,-0.09483403712511063
1761370865258480400,7.58548046875,-0.6041279435157776,0.5260158181190491,-0.02641914412379265
1761370865277092900,7.6040927734375,-0.4966188073158264,0.4154524803161621,-0.0587940476834774
1761370865295703800,7.622703857421875,-0.29259583353996277,0.2468586415052414,-0.13942588865756989
1761370865314316300,7.64131640625,-0.028098974376916885,0.045889899134635925,-0.18279604613780975
1761370865332927000,7.659927001953125,0.23151111602783203,-0.10071343928575516,-0.1369825005531311
1761370865351539500,7.67853955078125,0.3787252902984619,-0.11170869320631027,0.03962871432304382
1761370865370150400,7.697150390625,0.3671191930770874,-0.10376767814159393,0.2540360987186432
1761370865388763000,7.715762939453125,0.2767138183116913,0.06055023521184921,0.38781166076660156
1761370865407373800,7.734373779296875,0.22601348161697388,0.2554105222225189,0.3737621605396271
1761370865425986300,7.752986328125,0.2858765125274658,0.47165045142173767,0.276637464761734
1761370865444597000,7.771596923828125,0.46851983666419983,0.6518504023551941,0.1868429034948349
1761370865463209500,7.79020947265625,0.7025507092475891,0.8338828682899475,0.13858596980571747
1761370865481820400,7.8088203125,0.8974109888076782,0.9065737128257751,0.024968381971120834
1761370865500433000,7.827432861328125,0.9927031397819519,0.7294279932975769,-0.150421142578125
1761370865519043800,7.8460439453125,0.9810970425605774,0.43622130155563354,-0.22738789021968842
1761370865537656300,7.86465625,0.9554414749145508,0.3268796503543854,-0.10216420143842697
1761370865556267300,7.883267333984375,1.0055309534072876,0.4191175699234009,0.21738526225090027
1761370865574879700,7.901879638671875,0.9951465129852295,0.4417189359664917,0.5283065438270569
1761370865593490400,7.920490478515625,0.771576464176178,0.06604786217212677,0.4488963782787323
1761370865612103000,7.93910302734375,0.469741553068161,-0.5490753054618835,0.1459161341190338
1761370865630713900,7.9577138671875,0.29320669174194336,-0.8972582817077637,-0.031916771084070206
1761370865649326300,7.976326416015625,0.27854636311531067,-0.6926244497299194,0.10315682739019394
1761370865667937300,7.994937255859375,0.4178195297718048,-0.031076854094862938,0.45439401268959045
1761370865686549800,8.0135498046875,0.6017609238624573,0.5296809077262878,0.7048413753509521
1761370865705160400,8.032160400390625,0.7275954484939575,0.6341357827186584,0.6926244497299194
1761370865723773000,8.05077294921875,0.7636354565620422,0.35620030760765076,0.49348822236061096
1761370865742383900,8.0693837890625,0.7251520752906799,-0.045737188309431076,0.2803025245666504
1761370865760996400,8.087996337890624,0.6567371487617493,-0.3560476005077362,0.1605764776468277
1761370865779607300,8.106607177734375,0.5564818382263184,-0.5631248354911804,0.15446799993515015
1761370865798219800,8.1252197265625,0.41048935055732727,-0.5674007534980774,0.24670593440532684
1761370865816830700,8.143830810546875,0.25655585527420044,-0.5338041186332703,0.34993913769721985
1761370865835443200,8.162443115234375,0.1716480851173401,-0.5435777306556702,0.3798706531524658
1761370865854054000,8.181053955078125,0.20646637678146362,-0.6321505308151245,0.3029038906097412
1761370865872666400,8.199666259765625,0.3249707520008087,-0.6541410684585571,0.12820157408714294
1761370865891277300,8.21827734375,0.45385950803756714,-0.5472427606582642,-0.17424418032169342
1761370865909889800,8.236889892578125,0.577861487865448,-0.28763270378112793,-0.51998370885849
1761370865928500700,8.255500732421876,0.6903337836265564,-0.017027366906404495,-0.7710419297218323
1761370865947113200,8.27411328125,0.7092700004577637,0.062993623316288,-0.8871029615402222
1761370865965724200,8.29272412109375,0.6145886778831482,-0.015194825828075409,-0.9243646264076233
1761370865984336600,8.311336669921875,0.47890424728393555,-0.1355317384004593,-0.8278507590293884
1761370866002947300,8.329947265625,0.312142938375473,-0.41529977321624756,-0.677582323551178
1761370866021559800,8.348559814453125,0.1692046970129013,-0.7585959434509277,-0.5236487984657288
1761370866040170800,8.367170654296874,0.0525328628718853,-1.0566893815994263,-0.36910444498062134
1761370866058783200,8.385783203125,-0.08674030750989914,-1.1605334281921387,-0.1382041871547699
1761370866077394200,8.404394287109374,-0.21196399629116058,-1.0408073663711548,0.11293038725852966
1761370866096006700,8.423006591796875,-0.284654825925827,-0.8270108103752136,0.2668638825416565
1761370866114617600,8.44161767578125,-0.3268032968044281,-0.6755207180976868,0.2546469569206238
1761370866133230000,8.46022998046875,-0.365286648273468,-0.5576272010803223,0.12453648447990417
1761370866151840800,8.4788408203125,-0.4196520745754242,-0.49409908056259155,-0.07834116369485855
1761370866170453200,8.497453369140626,-0.4862344264984131,-0.4647783935070038,-0.31534990668296814
1761370866189064200,8.516064208984375,-0.5607577562332153,-0.41896486282348633,-0.5138752460479736
1761370866207676700,8.5346767578125,-0.6169557571411133,-0.38903334736824036,-0.6134433746337891
1761370866226287600,8.55328759765625,-0.6285618543624878,-0.3035147190093994,-0.5615213513374329
1761370866244900000,8.571900146484374,-0.5381564497947693,-0.11842801421880722,-0.3709369897842407
1761370866263511000,8.590510986328125,-0.363454133272171,0.141182079911232,-0.11987877637147903
1761370866282123500,8.60912353515625,-0.15943112969398499,0.1656159609556198,0.0683385357260704
1761370866300734200,8.627734130859375,0.0006108472589403391,0.11002886295318604,0.12575818598270416
1761370866319346700,8.6463466796875,0.1056765764951706,0.034283801913261414,0.07872293889522552
1761370866337957600,8.66495751953125,0.15210096538066864,-0.10315682739019394,-0.00259610079228878
1761370866356570000,8.683570068359375,0.12644538283348083,-0.2821350693702698,-0.06856760382652283
1761370866375181000,8.70218115234375,0.05008947476744652,-0.3939201235771179,-0.08689302206039429
1761370866393793500,8.72079345703125,-0.033596597611904144,-0.36337774991989136,-0.06734590977430344
1761370866412404500,8.739404541015626,-0.08796200156211853,-0.2931303381919861,-0.017867282032966614
1761370866431017000,8.758016845703125,-0.09468132257461548,-0.18501035869121552,0.050013117492198944
1761370866449628000,8.7766279296875,-0.0525328628718853,-0.08055548369884491,0.09765920788049698
1761370866468240100,8.795240234375,0.006108472589403391,-0.0555107444524765,0.10437852889299393
1761370866486851000,8.81385107421875,0.02993151545524597,-0.12575818598270416,0.07017108052968979
1761370866505463600,8.832463623046875,0.022601349279284477,-0.2259371280670166,0.008475505746901035
1761370866524074500,8.851074462890624,0.007941014133393764,-0.3169533610343933,-0.04352286830544472
1761370866542687000,8.86968701171875,0.0036650835536420345,-0.3071798086166382,-0.036192700266838074
1761370866561298000,8.8882978515625,0.02626643143594265,-0.227769672870636,0.030466007068753242
1761370866579910400,8.906910400390625,0.04031591862440109,-0.12026055157184601,0.09032903611660004
1761370866598521300,8.925521240234374,0.03787253051996231,-0.0029778804164379835,0.13125580549240112
1761370866617133800,8.9441337890625,0.04214845970273018,0.07215633243322372,0.15385715663433075
1761370866635744500,8.96274462890625,0.05803048983216286,0.11735902726650238,0.13980767130851746
1761370866654357000,8.98135693359375,0.1056765764951706,0.13812783360481262,0.11231953650712967
1761370866672968000,8.999968017578125,0.18691925704479218,0.193104088306427,0.11598462611436844
1761370866691580400,9.018580322265626,0.27976804971694946,0.3335989713668823,0.174625962972641
1761370866710191400,9.03719140625,0.3573456406593323,0.4692070484161377,0.20761170983314514
1761370866728803800,9.055803955078124,0.4312581717967987,0.5828246474266052,0.1868429034948349
1761370866747414800,9.074414794921875,0.5082249045372009,0.645741879940033,0.12636902928352356
1761370866766027300,9.09302734375,0.5247178077697754,0.4924192428588867,0.005421269219368696
1761370866784638200,9.11163818359375,0.49051034450531006,0.1149156391620636,-0.14003673195838928
1761370866803250700,9.130250732421874,0.43797749280929565,-0.33955472707748413,-0.20845162868499756
1761370866821861400,9.148861328125,0.37383851408958435,-0.6859050989151001,-0.11865708231925964
1761370866840474000,9.16747412109375,0.28404396772384644,-0.8233457207679749,0.06284090876579285
1761370866859084800,9.186084716796875,0.2113531529903412,-0.8092962503433228,0.25953373312950134
1761370866877697300,9.204697265625,0.21379654109477997,-0.6462000608444214,0.4244624972343445
1761370866896308200,9.22330810546875,0.3042019307613373,-0.3713187873363495,0.5075377225875854
1761370866914920700,9.241920654296875,0.4569137394428253,-0.023746687918901443,0.48249298334121704
1761370866933531600,9.26053173828125,0.6805602312088013,0.2706816792488098,0.3670428395271301
1761370866952144100,9.27914404296875,0.900465190410614,0.3897969126701355,0.17035003006458282
1761370866970755000,9.297755126953126,1.04401433467865,0.2615189850330353,-0.00992626789957285
1761370866989367600,9.316367431640625,1.1081533432006836,0.1014770045876503,-0.11804623156785965
1761370867007978500,9.334978515625,1.1160943508148193,0.02695363573729992,-0.1644706279039383
1761370867026591000,9.353591064453125,1.072113275527954,-0.06772769242525101,-0.20539739727973938
1761370867045202000,9.372201904296874,0.9768211245536804,-0.1617981642484665,-0.2298312783241272
1761370867063814400,9.390814453125,0.8125032186508179,-0.3566584289073944,-0.23838314414024353
1761370867082425000,9.409425048828124,0.6023717522621155,-0.5527403950691223,-0.24571330845355988
1761370867101037600,9.42803759765625,0.4092676639556885,-0.5765634775161743,-0.22005772590637207
1761370867119648500,9.4466484375,0.284654825925827,-0.3548259139060974,-0.11560284346342087
1761370867138261000,9.465260986328126,0.21318569779396057,0.0019088976550847292,0.029855160042643547
1761370867156872000,9.483871826171875,0.1710372269153595,0.42339351773262024,0.17890189588069916
1761370867175484400,9.502484375,0.2626643180847168,0.7049940824508667,0.33711132407188416
1761370867194095400,9.521095458984375,0.34451785683631897,0.7844042181968689,0.4372902810573578
1761370867212707800,9.539707763671874,0.29687178134918213,0.7618029117584229,0.4641675651073456
1761370867231318800,9.55831884765625,0.1716480851173401,0.60909104347229,0.45439401268959045
1761370867249931300,9.57693115234375,0.07391251623630524,0.43683215975761414,0.486768901348114
1761370867268542000,9.5955419921875,-0.05803048983216286,0.1808871477842331,0.5020400881767273
1761370867287154700,9.61415478515625,-0.2626643180847168,-0.20944425463676453,0.4519506096839905
1761370867305765400,9.632765380859375,-0.5173876285552979,-0.5063160061836243,0.3548259139060974
1761370867324377900,9.6513779296875,-0.6896465420722961,-0.5649573802947998,0.352993369102478
1761370867342988800,9.66998876953125,-0.7440119385719299,-0.12575818598270416,0.4886014461517334
1761370867361601300,9.688601318359375,-0.7165238261222839,0.299391508102417,0.6345939636230469
1761370867380212200,9.707212158203125,-0.5741963982582092,0.43377789855003357,0.6547518968582153
1761370867398824700,9.72582470703125,-0.4337015450000763,0.3476484417915344,0.4983749985694885
1761370867417435600,9.744435546875,-0.3823903799057007,0.08009734749794006,0.20944425463676453
1761370867436048100,9.763048095703125,-0.3439069986343384,-0.12026055157184601,-0.05268557742238045
1761370867454659000,9.7816591796875,-0.2754921019077301,0.05810684710741043,-0.17302247881889343
1761370867473271600,9.800271484375,-0.24311721324920654,0.42278265953063965,-0.19379130005836487
1761370867491882500,9.818882568359374,-0.15393351018428802,0.5040253400802612,-0.19989976286888123
1761370867510495000,9.837494873046875,0.03665083646774292,0.2340308576822281,-0.24693500995635986
1761370867529105700,9.856105712890624,0.21623992919921875,-0.21860696375370026,-0.2652604281902313
1761370867547718100,9.87471826171875,0.2779355049133301,-0.5906129479408264,-0.1766875684261322
1761370867566329000,9.8933291015625,0.1844758689403534,-0.6681905388832092,-0.017867282032966614
1761370867584941600,9.911941650390625,0.017714571207761765,-0.5209763646125793,0.14530529081821442
1761370867603552500,9.930552490234374,-0.12888877093791962,-0.28580015897750854,0.2754157483577728
1761370867622165000,9.9491650390625,-0.22845686972141266,0.018401773646473885,0.3218401372432709
1761370867640776000,9.96777587890625,-0.2742704153060913,0.17355698347091675,0.2668638825416565
1761370867659388400,9.986388427734376,-0.2773246467113495,0.1405712217092514,0.15080291032791138
1761370867677999400,10.004999267578125,-0.2736595869064331,0.043446511030197144,0.019470756873488426
1761370867696611800,10.02361181640625,-0.2877090573310852,-0.0561215914785862,-0.09116895496845245
1761370867715222800,10.042222900390625,-0.33352261781692505,-0.03474193811416626,-0.14614520967006683
1761370867733835300,10.060835205078124,-0.3823903799057007,0.08681666851043701,-0.1363716572523117
1761370867752446000,10.079446044921875,-0.393385648727417,0.2321983128786087,-0.12110047042369843
1761370867771058700,10.09805859375,-0.3518480062484741,0.38552096486091614,-0.14553436636924744
1761370867789669400,10.11666943359375,-0.28098973631858826,0.4276694357395172,-0.1907370537519455
1761370867808281900,10.13528173828125,-0.1966928243637085,0.2566322088241577,-0.20539739727973938
1761370867826892800,10.153892822265625,-0.13682979345321655,0.05444176122546196,-0.17241163551807404
1761370867845505300,10.17250537109375,-0.0916270911693573,-0.23265644907951355,-0.13331741094589233
1761370867864116200,10.1911162109375,-0.11178504675626755,-0.44095537066459656,-0.07467607408761978
1761370867882728700,10.209728759765625,-0.24128466844558716,-0.28274592757225037,0.02557922899723053
1761370867901339600,10.228339599609376,-0.3958290219306946,-0.013362283818423748,0.12820157408714294
1761370867919952100,10.2469521484375,-0.43797749280929565,0.18943901360034943,0.173404261469841
1761370867938563000,10.26556298828125,-0.39949411153793335,0.21387289464473724,0.16912832856178284
1761370867957175600,10.284175537109375,-0.393385648727417,0.18516308069229126,0.16424155235290527
1761370867975786500,10.302786376953126,-0.43858832120895386,0.28839626908302307,0.19417306780815125
1761370867994398700,10.321398681640625,-0.47951510548591614,0.540065348148346,0.27236151695251465
1761370868013009700,10.340009765625,-0.4752391576766968,0.7062157988548279,0.32611608505249023
1761370868031622100,10.3586220703125,-0.4453076422214508,0.6359683275222778,0.3071798086166382
1761370868050233000,10.377233154296874,-0.42453885078430176,0.36963894963264465,0.16912832856178284
1761370868068845600,10.395845458984375,-0.41232189536094666,-0.08727480471134186,-0.06490252166986465
1761370868087456500,10.41445654296875,-0.4471401870250702,-0.7756996750831604,-0.27503398060798645
1761370868106069000,10.433069091796876,-0.6151232123374939,-1.175804615020752,-0.36727190017700195
1761370868124680000,10.451679931640625,-0.8307522535324097,-1.236889362335205,-0.3177932798862457
1761370868143292400,10.47029248046875,-1.0219475030899048,-1.024314522743225,-0.12781979143619537
1761370868161903400,10.4889033203125,-1.2125318050384521,-0.46844348311424255,0.10498937219381332
1761370868180515800,10.507515869140626,-1.336533784866333,0.14851224422454834,0.24853847920894623
1761370868199126500,10.52612646484375,-1.2424633502960205,0.4447731673717499,0.28763270378112793
1761370868217739300,10.5447392578125,-1.0524898767471313,0.47653722763061523,0.21738526225090027
1761370868236350000,10.563349853515625,-0.92054682970047,0.3867426812648773,0.09949174523353577
1761370868254962400,10.58196240234375,-0.8887827396392822,0.22425730526447296,-0.01847812905907631
1761370868273573400,10.600573486328125,-0.9058864712715149,0.10392039269208908,-0.09116895496845245
1761370868292185900,10.619185791015624,-0.9749122262001038,0.0165692325681448,-0.10705098509788513
1761370868310796800,10.637796875,-1.0384403467178345,-0.11048699915409088,-0.054518118500709534
1761370868329409300,10.6564091796875,-1.1038010120391846,-0.3670428395271301,-0.008704573847353458
1761370868348020200,10.675020263671875,-1.1923738718032837,-0.8172372579574585,-0.01969982497394085
1761370868366632700,10.6936328125,-1.2717839479446411,-1.2069578170776367,-0.03924693539738655
1761370868385243600,10.71224365234375,-1.3017154932022095,-1.2747619152069092,-0.0050394898280501366
1761370868403856100,10.730856201171875,-1.290109395980835,-1.0157626867294312,0.09765920788049698
1761370868422467000,10.749467041015626,-1.2949961423873901,-0.46905434131622314,0.2002815455198288
1761370868441079600,10.76807958984375,-1.3456965684890747,-0.04756972938776016,0.1471378356218338
1761370868459690200,10.786690185546876,-1.4208307266235352,0.08681666851043701,-0.072232685983181
1761370868478302700,10.805302734375,-1.4800828695297241,0.022677704691886902,-0.3617742955684662
1761370868496913700,10.82391357421875,-1.4904673099517822,-0.034131091088056564,-0.6293253898620605
1761370868515526100,10.842526123046875,-1.477028727531433,-0.11293038725852966,-0.8180772066116333
1761370868534137000,10.86113720703125,-1.4397670030593872,-0.19356222450733185,-0.9115368127822876
1761370868552749600,10.87974951171875,-1.3340904712677002,-0.2803025245666504,-0.8907679915428162
1761370868571360500,10.898360595703124,-1.1502254009246826,-0.37681639194488525,-0.7569924592971802
1761370868589973000,10.916972900390626,-1.0335536003112793,-0.5105919241905212,-0.567018985748291
1761370868608584000,10.935583984375,-1.0103414058685303,-0.6266529560089111,-0.3458922505378723
1761370868627196400,10.954196533203126,-1.060430884361267,-0.6663579940795898,-0.14614520967006683
1761370868645807000,10.97280712890625,-1.12823486328125,-0.6755207180976868,-0.03008422814309597
1761370868664419800,10.991419921875,-1.1331216096878052,-0.5325824618339539,0.030466007068753242
1761370868683030500,11.010030517578125,-1.0757020711898804,-0.19661645591259003,0.10621106624603271
1761370868701643000,11.02864306640625,-0.9938485026359558,0.1796654462814331,0.1605764776468277
1761370868720254000,11.04725390625,-0.8655705451965332,0.5467846393585205,0.17157171666622162
1761370868738866400,11.065866455078124,-0.9920159578323364,0.5278483629226685,0.463556706905365
1761370868757477400,11.084477294921875,-1.0970816612243652,-0.4098021686077118,0.640091598033905
1761370868776089900,11.10308984375,-0.8496885299682617,-0.880154550075531,0.7304969429969788
1761370868794700800,11.12170068359375,-0.6652126908302307,-0.7598176598548889,0.8233457207679749
1761370868813313300,11.140313232421875,-0.6890357136726379,-0.32367268204689026,0.8050203323364258
1761370868831924200,11.15892431640625,-0.7006418108940125,0.3213820159435272,0.7995226979255676
