time,seconds_elapsed,z,y,x
1761370796537403000,0.19440283203125,-0.2638860046863556,-0.4916556775569916,0.4067479074001312
1761370796556013800,0.213013916015625,-0.24189551174640656,-0.28641101717948914,0.18928629159927368
1761370796574626000,0.2316259765625,-0.2773246467113495,0.04100312292575836,-0.025197450071573257
1761370796593237000,0.250237060546875,-0.3249707520008087,0.3091650605201721,-0.19623468816280365
1761370796611849500,0.268849365234375,-0.3762819170951843,0.5070796012878418,-0.3642176687717438
1761370796630460400,0.28746044921875,-0.3836120665073395,0.6872795224189758,-0.5254813432693481
1761370796649072600,0.30607275390625,-0.36162158846855164,0.8063947558403015,-0.6256603002548218
1761370796667683600,0.32468359375,-0.3304683566093445,0.743477463722229,-0.6140542030334473
1761370796686296000,0.343296142578125,-0.28160059452056885,0.5083012580871582,-0.45889899134635925
1761370796704907000,0.361906982421875,-0.24494975805282593,0.2737359404563904,-0.23288552463054657
1761370796723519200,0.380519287109375,-0.25411245226860046,0.22364644706249237,-0.0984991192817688
1761370796742130200,0.399130126953125,-0.31092125177383423,0.16134002804756165,-0.11743538826704025
1761370796760742700,0.41774267578125,-0.4172086715698242,0.17294612526893616,-0.18096350133419037
1761370796779353600,0.436353515625,-0.5137225389480591,0.2859528660774231,-0.22189027070999146
1761370796797965800,0.4549658203125,-0.6047387719154358,0.49180838465690613,-0.13148486614227295
1761370796816576800,0.47357666015625,-0.6902574300765991,0.7355364561080933,-0.04413371533155441
1761370796835189200,0.492189208984375,-0.7262973785400391,0.9670475721359253,-0.1247655525803566
1761370796853800200,0.51080029296875,-0.7366818189620972,1.0751675367355347,-0.28908345103263855
1761370796872412400,0.529412353515625,-0.7146912813186646,1.031186580657959,-0.38254308700561523
1761370796891023400,0.5480234375,-0.6352811455726624,0.7776849269866943,-0.4265241026878357
1761370796909635800,0.5666357421875,-0.5296045541763306,0.3531460762023926,-0.43446511030197144
1761370796928246800,0.585246826171875,-0.4355340898036957,-0.09155073016881943,-0.37704548239707947
1761370796946859000,0.60385888671875,-0.33230090141296387,-0.33527877926826477,-0.1907370537519455
1761370796965470000,0.622469970703125,-0.22845686972141266,-0.36154523491859436,0.03840702027082443
1761370796984082400,0.64108251953125,-0.1178935244679451,-0.21738526225090027,0.18867544829845428
1761370797002693400,0.659693359375,0.0024433890357613564,-0.08544225990772247,0.2149418741464615
1761370797021305900,0.678305908203125,0.08857285231351852,-0.05978667363524437,0.1593547761440277
1761370797039916500,0.69691650390625,0.15332266688346863,-0.04879142343997955,0.07444700598716736
1761370797058529000,0.715529052734375,0.20219044387340546,0.036727190017700195,-0.006261184345930815
1761370797077140000,0.734139892578125,0.24433889985084534,0.14912308752536774,-0.046577103435993195
1761370797095752400,0.75275244140625,0.2779355049133301,0.2877854108810425,-0.005650337319821119
1761370797114363400,0.77136328125,0.35917818546295166,0.3091650605201721,0.03352024406194687
1761370797132975600,0.7899755859375,0.4428642690181732,0.17416782677173615,0.02924431301653385
1761370797151586600,0.808586669921875,0.5125008225440979,-0.044515494257211685,0.0035887276753783226
1761370797170199000,0.827198974609375,0.5650337338447571,-0.24976016581058502,0.013362283818423748
1761370797188810000,0.84581005859375,0.6023717522621155,-0.37681639194488525,0.0689493864774704
1761370797207422200,0.864422119140625,0.6072585582733154,-0.45256146788597107,0.10926530510187149
1761370797226033200,0.883033203125,0.5796940326690674,-0.4250733256340027,0.08971819281578064
1761370797244645600,0.901645751953125,0.5418215394020081,-0.2393757700920105,0.015194825828075409
1761370797263256600,0.920256591796875,0.49417543411254883,-0.030466007068753242,-0.09177979826927185
1761370797281869000,0.938869140625,0.44103172421455383,0.13873867690563202,-0.21822518110275269
1761370797300479700,0.957479736328125,0.3921639323234558,0.2596864402294159,-0.3446705639362335
1761370797319092200,0.97609228515625,0.3646758198738098,0.3116084635257721,-0.42163732647895813
1761370797337703200,0.994703125,0.33474430441856384,0.4160633385181427,-0.41858309507369995
1761370797356315600,1.013315673828125,0.2901524603366852,0.36780640482902527,-0.3611634373664856
1761370797374926300,1.03192626953125,0.27915719151496887,0.4178958833217621,-0.2408265322446823
1761370797393538800,1.050538818359375,0.28098973631858826,0.47348299622535706,-0.10766182839870453
1761370797412149800,1.069149658203125,0.3255815804004669,0.4661528170108795,-0.00015271181473508477
1761370797430762200,1.08776220703125,0.41293275356292725,0.4435514807701111,0.10560022294521332
1761370797449373200,1.106373291015625,0.5002838969230652,0.43622130155563354,0.2143310308456421
1761370797467985400,1.1249853515625,0.5601469278335571,0.39651623368263245,0.32306185364723206
1761370797486596400,1.143596435546875,0.5882459282875061,0.3109976053237915,0.4134672284126282
1761370797505208800,1.162208740234375,0.6133670210838318,0.2859528660774231,0.4385119676589966
1761370797523819800,1.18081982421875,0.6463527679443359,0.1277434378862381,0.3835357129573822
1761370797542432300,1.199432373046875,0.6732300519943237,-0.12270393967628479,0.2674747407436371
1761370797561043200,1.218043212890625,0.6469635963439941,-0.3994177579879761,0.07444700598716736
1761370797579655400,1.236655517578125,0.5473191738128662,-0.5906129479408264,-0.125987246632576
1761370797598266400,1.255266357421875,0.4068242609500885,-0.48127129673957825,-0.24876753985881805
1761370797616878800,1.27387890625,0.28282228112220764,0.03061871975660324,-0.2438807636499405
1761370797635489800,1.29248974609375,0.2095206081867218,0.562666654586792,-0.18768282234668732
1761370797654102000,1.31110205078125,0.2632751762866974,0.8070055842399597,-0.17424418032169342
1761370797672713000,1.329712890625,0.4343124032020569,0.7049940824508667,-0.16935740411281586
1761370797691325400,1.348325439453125,0.6151995658874512,0.2871745824813843,0.010308047756552696
1761370797709936400,1.366936279296875,0.7495859265327454,-0.02008160389959812,0.32611608505249023
1761370797728548900,1.385548828125,0.7556943893432617,0.04222481697797775,0.5405234694480896
1761370797747159600,1.40415966796875,0.6426876783370972,0.21326205134391785,0.4653892517089844
1761370797765772000,1.42277197265625,0.4294256269931793,0.34459421038627625,0.12514732778072357
1761370797784383000,1.441383056640625,0.2999260127544403,0.3097759187221527,-0.32634514570236206
1761370797802995500,1.459995361328125,0.2638860046863556,0.2193705290555954,-0.7417212724685669
1761370797821606400,1.4786064453125,0.20402298867702484,0.13812783360481262,-1.025765299797058
1761370797840218600,1.497218505859375,0.14843589067459106,0.05810684710741043,-1.1406044960021973
1761370797858829600,1.51582958984375,0.15087927877902985,0.004352286923676729,-1.0880717039108276
1761370797877442000,1.534442138671875,0.22784602642059326,0.0880383625626564,-0.8767185211181641
1761370797896053000,1.553052978515625,0.265718549489975,0.2321983128786087,-0.5694623589515686
1761370797914665200,1.571665283203125,0.2773246467113495,0.43377789855003357,-0.30068957805633545
1761370797933276200,1.590276123046875,0.2883199155330658,0.4936409294605255,-0.19562382996082306
1761370797951888600,1.608888671875,0.3029802441596985,0.4924192428588867,-0.22311195731163025
1761370797970499600,1.62749951171875,0.2999260127544403,0.5657209157943726,-0.26037365198135376
1761370797989112000,1.646112060546875,0.30725616216659546,0.7257629036903381,-0.2689255177974701
1761370798007722800,1.66472265625,0.337798535823822,0.8894699811935425,-0.279920756816864
1761370798026335200,1.683335205078125,0.38483378291130066,0.9578848481178284,-0.32817769050598145
1761370798044946200,1.7019462890625,0.46241137385368347,0.822276771068573,-0.4002576768398285
1761370798063558700,1.72055859375,0.5418215394020081,0.431334525346756,-0.3984251320362091
1761370798082169600,1.739169677734375,0.609701931476593,0.08009734749794006,-0.27503398060798645
1761370798100781800,1.75778173828125,0.6573479771614075,-0.09827005118131638,-0.06795676052570343
1761370798119392800,1.776392822265625,0.6268056631088257,-0.18867544829845428,0.2112767994403839
1761370798138005200,1.795005126953125,0.5332696437835693,-0.36521029472351074,0.4324035048484802
1761370798156616200,1.8136162109375,0.41354358196258545,-0.5386909246444702,0.5441885590553284
1761370798175228700,1.832228759765625,0.26694026589393616,-0.671855628490448,0.5276956558227539
1761370798193839400,1.85083935546875,0.14049486815929413,-0.7934142351150513,0.4134672284126282
1761370798212451800,1.869451904296875,0.06047387793660164,-0.8618291020393372,0.3151208162307739
1761370798231062800,1.888062744140625,-0.020157959312200546,-0.7897491455078125,0.32367268204689026
1761370798249675300,1.90667529296875,-0.1447708010673523,-0.6144359707832336,0.3817031681537628
1761370798268286200,1.9252861328125,-0.3170297145843506,-0.4507289230823517,0.4067479074001312
1761370798286898400,1.9438984375,-0.497229665517807,-0.3444415032863617,0.4085804522037506
1761370798305509400,1.96250927734375,-0.6456655263900757,-0.21921780705451965,0.4464530050754547
1761370798324121900,1.981121826171875,-0.7000309824943542,-0.08299887180328369,0.4727194309234619
1761370798342732800,1.99973291015625,-0.6517740488052368,0.0361163429915905,0.40186113119125366
1761370798361345000,2.018344970703125,-0.6016845703125,0.03489464893937111,0.26197710633277893
1761370798379956000,2.0369560546875,-0.5644228458404541,-0.12331479042768478,0.1624090075492859
1761370798398568400,2.055568359375,-0.499673068523407,-0.29862794280052185,0.173404261469841
1761370798417179400,2.074179443359375,-0.37506023049354553,-0.35177165269851685,0.2815242409706116
1761370798435792000,2.0927919921875,-0.2498365342617035,-0.28702184557914734,0.3945309817790985
1761370798454402600,2.111402587890625,-0.18936264514923096,-0.22899135947227478,0.45500484108924866
1761370798473015000,2.13001513671875,-0.17348061501979828,-0.22838051617145538,0.41896486282348633
1761370798491626000,2.1486259765625,-0.18875180184841156,-0.3316137194633484,0.2900761067867279
1761370798510238500,2.167238525390625,-0.28160059452056885,-0.5258631110191345,0.11964970827102661
1761370798528849200,2.18584912109375,-0.43858832120895386,-0.6706339120864868,0.006032116711139679
1761370798547461600,2.204461669921875,-0.5974085927009583,-0.5716766715049744,-0.07650861889123917
1761370798566072600,2.223072509765625,-0.7696675658226013,-0.3670428395271301,-0.10033166408538818
1761370798584685000,2.24168505859375,-0.8539644479751587,-0.16301986575126648,-0.11254860460758209
1761370798603296000,2.2602958984375,-0.8643488883972168,0.03978142887353897,-0.2047865390777588
1761370798621908200,2.278908203125,-0.8386932611465454,0.141182079911232,-0.32695600390434265
1761370798640519200,2.297519287109375,-0.8014315962791443,0.10880716890096664,-0.41797223687171936
1761370798659131600,2.316131591796875,-0.7366818189620972,-0.07872293889522552,-0.4228590130805969
1761370798677742600,2.33474267578125,-0.6957550048828125,-0.2399866133928299,-0.35566580295562744
1761370798696355000,2.35335498046875,-0.6859814524650574,-0.2650313675403595,-0.2835858464241028
1761370798714965800,2.3719658203125,-0.6859814524650574,-0.23509983718395233,-0.23593975603580475
1761370798733578200,2.390578125,-0.6652126908302307,-0.28641101717948914,-0.18707197904586792
1761370798752189200,2.409189208984375,-0.6444438695907593,-0.406137079000473,-0.1119377613067627
1761370798770801700,2.4278017578125,-0.6420004963874817,-0.4904339909553528,0.0029778804164379835
1761370798789412400,2.446412353515625,-0.624285876750946,-0.514867901802063,0.13797512650489807
1761370798808024800,2.46502490234375,-0.5937435626983643,-0.46966519951820374,0.27358320355415344
1761370798826635800,2.4836357421875,-0.5479300022125244,-0.3187859058380127,0.41835400462150574
1761370798845248300,2.502248291015625,-0.4556920528411865,-0.10010259598493576,0.5643464922904968
1761370798863859000,2.52085888671875,-0.3665083646774292,0.039170581847429276,0.6681905388832092
1761370798882471400,2.539471435546875,-0.2901524603366852,0.056274302303791046,0.6755207180976868
1761370798901082400,2.558082275390625,-0.23028941452503204,0.08559497445821762,0.6235986948013306
1761370798919694800,2.57669482421875,-0.20463383197784424,0.1668376624584198,0.5832827687263489
1761370798938305800,2.595305908203125,-0.19058434665203094,0.25113457441329956,0.5674007534980774
1761370798956918000,2.61391796875,-0.15332266688346863,0.3140518367290497,0.5912237763404846
1761370798975529000,2.632529052734375,-0.0794101431965828,0.33237725496292114,0.6144359707832336
1761370798994141400,2.651141357421875,-0.009773556143045425,0.22242476046085358,0.5643464922904968
1761370799012752400,2.66975244140625,0.023212196305394173,0.10819631814956665,0.41774317622184753
1761370799031364600,2.688364501953125,0.01038440316915512,0.058717694133520126,0.21982865035533905
1761370799049975600,2.7069755859375,-0.045202698558568954,0.02023431472480297,0.021914144977927208
1761370799068588000,2.725588134765625,-0.11422843486070633,0.007406522985547781,-0.13514995574951172
1761370799087199000,2.744198974609375,-0.13499724864959717,0.006184828467667103,-0.2163926362991333
1761370799105811200,2.762811279296875,-0.09040539711713791,0.043446511030197144,-0.2017323076725006
1761370799124422100,2.781422119140625,0.005497625097632408,0.11125055700540543,-0.1107160672545433
1761370799143034600,2.80003466796875,0.1313321590423584,0.19615831971168518,0.045737188309431076
1761370799161645600,2.8186455078125,0.291374146938324,0.2688491642475128,0.2405974566936493
1761370799180258000,2.837258056640625,0.3946073353290558,0.37147149443626404,0.4446204602718353
1761370799198868700,2.85586865234375,0.41354358196258545,0.43622130155563354,0.5680115818977356
1761370799217481200,2.874481201171875,0.3817795515060425,0.43377789855003357,0.5649573802947998
1761370799236092200,2.893092041015625,0.2767138183116913,0.38124504685401917,0.4464530050754547
1761370799254704600,2.91170458984375,0.10262233763933182,0.2181488275527954,0.21555273234844208
1761370799273315300,2.9303154296875,-0.1172826737165451,-0.07872293889522552,-0.07650861889123917
1761370799291927800,2.948927734375,-0.3518480062484741,-0.38903334736824036,-0.34161633253097534
1761370799310538800,2.967538818359375,-0.5436540842056274,-0.5796176791191101,-0.5059342384338379
1761370799329151200,2.986151123046875,-0.6395570635795593,-0.5215871930122375,-0.5737382769584656
1761370799347762000,3.004761962890625,-0.6420004963874817,-0.32367268204689026,-0.5963396430015564
1761370799366374400,3.02337451171875,-0.5748072862625122,-0.09032903611660004,-0.6213843822479248
1761370799384985300,3.0419853515625,-0.47646087408065796,0.09597937762737274,-0.6378772258758545
1761370799403597800,3.060597900390625,-0.3970507085323334,0.15095563232898712,-0.6073349118232727
1761370799422208800,3.079208740234375,-0.32252734899520874,0.13873867690563202,-0.5083776116371155
1761370799440821000,3.097821044921875,-0.24678228795528412,0.10330954194068909,-0.34222719073295593
1761370799459432000,3.116431884765625,-0.18936264514923096,0.1271325796842575,-0.13270656764507294
1761370799478044400,3.13504443359375,-0.1459924876689911,0.16378341615200043,0.04634803533554077
1761370799496655400,3.1536552734375,-0.0916270911693573,0.1527881771326065,0.1361425817012787
1761370799515267600,3.172267578125,-0.07513421028852463,0.0886492058634758,0.1611873209476471
1761370799533878500,3.19087841796875,-0.09407047927379608,-0.07566870748996735,0.14897038042545319
1761370799552491000,3.209490966796875,-0.16309621930122375,-0.29496288299560547,0.1361425817012787
1761370799571102000,3.22810205078125,-0.27060532569885254,-0.44156619906425476,0.1599656194448471
1761370799589714200,3.246714111328125,-0.3805578351020813,-0.5331932902336121,0.2387649267911911
1761370799608325000,3.2653251953125,-0.48928865790367126,-0.5832827687263489,0.33466795086860657
1761370799626937600,3.2839375,-0.5711421966552734,-0.5747309327125549,0.3835357129573822
1761370799645548500,3.302548583984375,-0.5980194807052612,-0.47943875193595886,0.3474957346916199
1761370799664160800,3.321160888671875,-0.601073682308197,-0.39208757877349854,0.2760266065597534
1761370799682771700,3.339771728515625,-0.5992411375045776,-0.4250733256340027,0.21616357564926147
1761370799701384200,3.35838427734375,-0.6181774139404297,-0.6248204112052917,0.18134528398513794
1761370799719995000,3.376994873046875,-0.675597071647644,-0.801355242729187,0.21005509793758392
1761370799738607400,3.395607421875,-0.7550072073936462,-0.7530983090400696,0.31328830122947693
1761370799757218300,3.41421826171875,-0.7941014170646667,-0.5325824618339539,0.43973368406295776
1761370799775830800,3.432830810546875,-0.7953231334686279,-0.2790808379650116,0.49470990896224976
1761370799794441700,3.451441650390625,-0.7824953198432922,-0.18317782878875732,0.42812758684158325
1761370799813054000,3.470053955078125,-0.758672297000885,-0.2931303381919861,0.2796916961669922
1761370799831665000,3.488664794921875,-0.7525638341903687,-0.46966519951820374,0.14958122372627258
1761370799850277400,3.50727734375,-0.767224133014679,-0.5771743059158325,0.05978667363524437
1761370799868888300,3.525888427734375,-0.786160409450531,-0.5527403950691223,0.01763821393251419
1761370799887500500,3.54450048828125,-0.8002098798751831,-0.486768901348114,0.04879142343997955
1761370799906111500,3.563111572265625,-0.7879929542541504,-0.4458421468734741,0.1471378356218338
1761370799924724000,3.581723876953125,-0.7745543122291565,-0.3969743549823761,0.2625879645347595
1761370799943335000,3.6003349609375,-0.8148702383041382,-0.3426089584827423,0.35238251090049744
1761370799961947100,3.618947021484375,-0.9138274788856506,-0.29496288299560547,0.3474957346916199
1761370799980558000,3.63755810546875,-1.018282413482666,-0.2375432252883911,0.2131093442440033
1761370799999170600,3.656170654296875,-1.1129636764526367,-0.2522035539150238,-0.01847812905907631
1761370800017781200,3.67478125,-1.1648857593536377,-0.41407808661460876,-0.23960483074188232
1761370800036393700,3.693393798828125,-1.1826002597808838,-0.5954996943473816,-0.3452814221382141
1761370800055004700,3.712004638671875,-1.2058124542236328,-0.7304969429969788,-0.3605526089668274
1761370800073617200,3.7306171875,-1.2516260147094727,-0.7805864214897156,-0.3220692276954651
1761370800092228000,3.74922802734375,-1.2882769107818604,-0.7573742270469666,-0.2432699203491211
1761370800110840300,3.76784033203125,-1.294385313987732,-0.5906129479408264,-0.15714046359062195
1761370800129451300,3.786451171875,-1.2400199174880981,-0.36154523491859436,-0.09910997003316879
1761370800148063700,3.805063720703125,-1.1453386545181274,-0.20700086653232574,-0.08994726091623306
1761370800166674400,3.82367431640625,-1.073258638381958,-0.14102935791015625,-0.09055810421705246
1761370800185287000,3.842286865234375,-1.031110167503357,-0.18256697058677673,-0.046577103435993195
1761370800203897900,3.86089794921875,-0.9877400398254395,-0.2900761067867279,0.07627955079078674
1761370800222510300,3.87951025390625,-0.9089407324790955,-0.4000285863876343,0.23693238198757172
1761370800241121000,3.89812109375,-0.8307522535324097,-0.5112028121948242,0.359712690114975
1761370800259733500,3.9167333984375,-0.7928797602653503,-0.5967214107513428,0.4195757210254669
1761370800278344400,3.935344482421875,-0.8002098798751831,-0.62054443359375,0.4385119676589966
1761370800296957000,3.95395703125,-0.8050966858863831,-0.574120044708252,0.4470638334751129
1761370800315567600,3.972567626953125,-0.7873821258544922,-0.49532076716423035,0.46966519951820374
1761370800334180000,3.99118017578125,-0.7580614686012268,-0.4366794228553772,0.5087594389915466
1761370800352791000,4.009791015625,-0.7366818189620972,-0.380481481552124,0.5521295666694641
1761370800371403300,4.0284033203125,-0.7165238261222839,-0.3316137194633484,0.5625139474868774
1761370800390014200,4.04701416015625,-0.7006418108940125,-0.3328354060649872,0.5283065438270569
1761370800408626700,4.065626708984375,-0.6859814524650574,-0.36521029472351074,0.4757736623287201
1761370800427237600,4.084237548828125,-0.660936713218689,-0.3456631898880005,0.4366794228553772
1761370800445849900,4.102849853515625,-0.6022953987121582,-0.2900761067867279,0.3951418101787567
1761370800464460800,4.121460693359375,-0.5515950918197632,-0.3035147190093994,0.35360419750213623
1761370800483073300,4.1400732421875,-0.5430431962013245,-0.23326729238033295,0.34932827949523926
1761370800501684200,4.158684326171875,-0.5454866290092468,-0.09765920788049698,0.34993913769721985
1761370800520296400,4.17729638671875,-0.5112791657447815,0.0886492058634758,0.33588963747024536
1761370800538907400,4.195907470703125,-0.4172086715698242,0.32077115774154663,0.2919086217880249
1761370800557520000,4.214519775390625,-0.2895416021347046,0.49058669805526733,0.21677441895008087
1761370800576130600,4.233130615234375,-0.1575985997915268,0.5021927952766418,0.11354123055934906
1761370800594743000,4.251742919921875,-0.04031591862440109,0.24197186529636383,0.005421269219368696
1761370800613354000,4.27035400390625,0.05864133685827255,-0.20639002323150635,-0.027029991149902344
1761370800631966500,4.288966552734375,0.12278030067682266,-0.6009973287582397,0.07994463294744492
1761370800650577200,4.3075771484375,0.1820324808359146,-0.7347729206085205,0.2381540685892105
1761370800669189600,4.326189697265625,0.26755109429359436,-0.6871268153190613,0.3969743549823761
1761370800687800600,4.344800537109375,0.32191649079322815,-0.5704549551010132,0.5234197378158569
1761370800706412800,4.363412841796875,0.3042019307613373,-0.4458421468734741,0.5594597458839417
1761370800725023700,4.382023681640625,0.19363857805728912,-0.38781166076660156,0.4647783935070038
1761370800743636200,4.40063623046875,0.013438640162348747,-0.33955472707748413,0.25953373312950134
1761370800762247200,4.4192470703125,-0.1844758689403534,-0.22227205336093903,0.015194825828075409
1761370800780859400,4.437859375,-0.3536805510520935,-0.04695888236165047,-0.20356485247612
1761370800799470300,4.45647021484375,-0.45141613483428955,0.06055023521184921,-0.3727695345878601
1761370800818082800,4.475082763671875,-0.47768256068229675,0.0886492058634758,-0.4680617153644562
1761370800836693800,4.49369384765625,-0.4569137394428253,0.09292513877153397,-0.4772244095802307
1761370800855306000,4.512305908203125,-0.41110020875930786,0.11369394510984421,-0.4136963188648224
1761370800873917000,4.5309169921875,-0.337798535823822,0.10330954194068909,-0.3232909142971039
1761370800892529400,4.549529296875,-0.2473931461572647,0.06604786217212677,-0.23960483074188232
1761370800911140000,4.56814013671875,-0.17409147322177887,0.05199837312102318,-0.18401773273944855
1761370800929752600,4.586752685546875,-0.1050657257437706,0.05016583204269409,-0.17057909071445465
1761370800948363500,4.605363525390625,-0.03176405653357506,0.03306210786104202,-0.17974179983139038
1761370800966976000,4.62397607421875,0.04337015375494957,0.0037414394319057465,-0.1620272397994995
1761370800985586700,4.642586669921875,0.12827792763710022,0.004963133949786425,-0.1107160672545433
1761370801004199200,4.66119921875,0.2229592502117157,0.058717694133520126,-0.08200624585151672
1761370801022810000,4.67981005859375,0.3268032968044281,0.06849125027656555,-0.10338589549064636
1761370801041422300,4.69842236328125,0.38605546951293945,-0.06467345356941223,-0.12048961967229843
1761370801060033300,4.717033203125,0.3805578351020813,-0.27052897214889526,-0.0716218426823616
1761370801078645800,4.735645751953125,0.32252734899520874,-0.4134672284126282,0.04390464723110199
1761370801097256700,4.754256591796875,0.2492256760597229,-0.3847574293613434,0.13980767130851746
1761370801115869000,4.772868896484375,0.20096874237060547,-0.2625879645347595,0.12759071588516235
1761370801134480000,4.79147998046875,0.1569877415895462,-0.1856212168931961,0.03474193811416626
1761370801153092400,4.81009228515625,0.11239589750766754,-0.1465269923210144,-0.030695075169205666
1761370801171703000,4.828703125,0.0794101431965828,-0.11903885751962662,-0.00259610079228878
1761370801190315500,4.8473154296875,0.036039989441633224,-0.16363070905208588,0.09888090193271637
1761370801208926500,4.865926513671875,-0.042759306728839874,-0.23326729238033295,0.20700086653232574
1761370801227538700,4.88453857421875,-0.17409147322177887,-0.1868429034948349,0.2821350693702698
1761370801246149600,4.903149658203125,-0.3310792148113251,-0.05306735634803772,0.2943520247936249
1761370801264762000,4.92176220703125,-0.47707170248031616,0.11002886295318604,0.2650313675403595
1761370801283373000,4.940373046875,-0.5717530250549316,0.2560213506221771,0.20455747842788696
1761370801301985300,4.9589853515625,-0.6200099587440491,0.27617931365966797,0.10132429003715515
1761370801320596200,4.97759619140625,-0.6554391384124756,0.22853323817253113,-0.025808297097682953
1761370801339208700,4.996208740234375,-0.6664343476295471,0.1808871477842331,-0.1369825005531311
1761370801357819600,5.014819580078125,-0.6328377723693848,0.13507360219955444,-0.15591876208782196
1761370801376431900,5.033431884765625,-0.5656445622444153,0.12407834827899933,-0.08750387281179428
1761370801395042800,5.052042724609375,-0.5015056133270264,0.14545799791812897,0.007253811229020357
1761370801413655300,5.0706552734375,-0.4422534108161926,0.07032378762960434,0.05795413255691528
1761370801432266000,5.089265869140625,-0.3915531039237976,-0.1862320601940155,0.05184566229581833
1761370801450878500,5.10787841796875,-0.38544461131095886,-0.4995967149734497,0.028633465990424156
1761370801469489400,5.126489501953125,-0.44103172421455383,-0.7323294878005981,-0.010537114925682545
1761370801488102000,5.145101806640625,-0.5234960913658142,-0.8123505115509033,-0.08933641016483307
1761370801506712600,5.163712646484375,-0.5998520255088806,-0.7164474725723267,-0.15958385169506073
1761370801525325000,5.182324951171875,-0.6700994372367859,-0.45256146788597107,-0.17485502362251282
1761370801543936000,5.20093603515625,-0.6963658928871155,-0.15385715663433075,-0.17363333702087402
1761370801562548200,5.21954833984375,-0.6493306159973145,0.043446511030197144,-0.1779092699289322
1761370801581159200,5.2381591796875,-0.5729747414588928,0.1405712217092514,-0.1772984117269516
1761370801599771600,5.256771728515625,-0.4752391576766968,0.10880716890096664,-0.14736689627170563
1761370801618382600,5.275382568359375,-0.3823903799057007,-0.03840702027082443,-0.05635065957903862
1761370801636994800,5.293994873046875,-0.3139754831790924,-0.19234053790569305,0.07566870748996735
1761370801655605800,5.312605712890625,-0.2773246467113495,-0.3450523316860199,0.20577916502952576
1761370801674218200,5.33121826171875,-0.2620534598827362,-0.436068594455719,0.28763270378112793
1761370801692829200,5.3498291015625,-0.2644968628883362,-0.46905434131622314,0.28335678577423096
1761370801711441400,5.36844140625,-0.25533416867256165,-0.44400960206985474,0.22288289666175842
1761370801730052400,5.38705224609375,-0.25472331047058105,-0.3865899443626404,0.15385715663433075
1761370801748664800,5.405664794921875,-0.2858765125274658,-0.27236151695251465,0.0946049690246582
1761370801767275500,5.424275634765625,-0.31031039357185364,-0.11720632016658783,0.07444700598716736
1761370801785888000,5.442887939453125,-0.28404396772384644,0.027564482763409615,0.120871402323246
1761370801804499000,5.4614990234375,-0.2095206081867218,0.10330954194068909,0.2112767994403839
1761370801823111400,5.480111328125,-0.09407047927379608,0.07154548168182373,0.2931303381919861
1761370801841722000,5.49872216796875,0.005497625097632408,-0.036574479192495346,0.3688753843307495
1761370801860334600,5.51733447265625,0.034818295389413834,-0.19356222450733185,0.4611133337020874
1761370801878945500,5.535945556640625,0.013438640162348747,-0.3163425326347351,0.5539621114730835
1761370801897557800,5.554557861328125,-0.05375456064939499,-0.4330143630504608,0.5948888659477234
1761370801916168700,5.573168701171875,-0.129499614238739,-0.5631248354911804,0.565568208694458
1761370801934781200,5.59178125,-0.21562908589839935,-0.5313607454299927,0.5032618045806885
1761370801953392000,5.61039208984375,-0.2895416021347046,-0.3719296157360077,0.42751672863960266
1761370801972004400,5.62900439453125,-0.30847787857055664,-0.0823880210518837,0.357269287109375
1761370801990615300,5.647615234375,-0.2919849753379822,0.322603702545166,0.31206658482551575
1761370802009227800,5.666227783203125,-0.2357870489358902,0.5901548266410828,0.2644205093383789
1761370802027838700,5.684838623046875,-0.16676130890846252,0.6762842535972595,0.2112767994403839
1761370802046451000,5.703450927734375,-0.07696675509214401,0.6579588651657104,0.13736428320407867
1761370802065062000,5.722061767578125,0.03176405653357506,0.482034832239151,0.027411770075559616
1761370802083674400,5.74067431640625,0.10750912129878998,0.18394137918949127,-0.0594048947095871
1761370802102285000,5.75928515625,0.15393351018428802,-0.08849649876356125,-0.056961506605148315
1761370802120897500,5.7778974609375,0.19241689145565033,-0.2656421959400177,0.0005344913806766272
1761370802139508500,5.796508544921875,0.20585553348064423,-0.29679539799690247,0.0555107444524765
1761370802158121000,5.815120849609375,0.20341213047504425,-0.14530529081821442,0.09888090193271637
1761370802176731600,5.833731689453125,0.19302773475646973,0.03978142887353897,0.09399411827325821
1761370802195344100,5.85234423828125,0.18019993603229523,0.14606885612010956,0.0035887276753783226
1761370802213955000,5.870955078125,0.17348061501979828,0.19127154350280762,-0.15775130689144135
1761370802232567600,5.889567626953125,0.18691925704479218,0.14729054272174835,-0.31473904848098755
1761370802251178200,5.90817822265625,0.21257483959197998,0.09597937762737274,-0.40636613965034485
1761370802269790700,5.926790771484375,0.24311721324920654,0.14973393082618713,-0.40636613965034485
1761370802288401700,5.945401611328125,0.2773246467113495,0.27984440326690674,-0.3715478479862213
1761370802307014000,5.964013916015625,0.3115321099758148,0.4050680994987488,-0.35200074315071106
1761370802325624800,5.982624755859375,0.37567105889320374,0.44965994358062744,-0.3709369897842407
1761370802344237300,6.0012373046875,0.45324867963790894,0.40995487570762634,-0.38193225860595703
1761370802372155000,6.02915478515625,0.5131117105484009,0.2712925374507904,-0.31290650367736816
1761370802390765600,6.047765625,0.5393781065940857,0.17416782677173615,-0.2591519355773926
1761370802409378000,6.0663779296875,0.5723638534545898,0.09659022092819214,-0.23593975603580475
1761370802427989000,6.084989013671875,0.5900784730911255,0.07887565344572067,-0.2279987335205078
1761370802446601500,6.1036015625,0.5992411375045776,0.062993623316288,-0.20722992718219757
1761370802465212200,6.122212158203125,0.5894675850868225,-0.013362283818423748,-0.15286453068256378
1761370802483824600,6.14082470703125,0.5351021885871887,-0.07689040154218674,-0.06001574173569679
1761370802502435600,6.159435546875,0.4330907166004181,-0.0426829531788826,0.04756972938776016
1761370802521048000,6.178048095703125,0.3384093940258026,0.0361163429915905,0.04634803533554077
1761370802539658800,6.19665869140625,0.29381752014160156,0.08192989230155945,-0.045355409383773804
1761370802558271200,6.215271240234375,0.2620534598827362,0.09842276573181152,-0.0978882759809494
1761370802576882200,6.233882080078125,0.20280128717422485,0.08559497445821762,-0.05329642444849014
1761370802595494700,6.25249462890625,0.11911521852016449,0.06665870547294617,0.034131091088056564
1761370802614105300,6.271105224609375,0.026877280324697495,0.08681666851043701,0.09032903611660004
1761370802632717800,6.2897177734375,-0.051922015845775604,0.024510245770215988,0.09032903611660004
1761370802651328800,6.308328857421875,-0.14965757727622986,-0.07872293889522552,0.10682191699743271
1761370802669941200,6.326941162109375,-0.26877278089523315,-0.04390464723110199,0.18317782878875732
1761370802688552000,6.345552001953125,-0.35856732726097107,0.03978142887353897,0.2546469569206238
1761370802707164400,6.364164306640625,-0.4159869849681854,0.1283542811870575,0.27052897214889526
1761370802725775400,6.382775390625,-0.4434750974178314,0.20409934222698212,0.23693238198757172
1761370802744387800,6.401387939453125,-0.42453885078430176,0.15217731893062592,0.15080291032791138
1761370802762998500,6.41999853515625,-0.37689274549484253,-0.06100837141275406,0.05306735634803772
1761370802781611000,6.438611083984375,-0.3170297145843506,-0.3187859058380127,-0.00259610079228878
1761370802800222000,6.457221923828125,-0.24433889985084534,-0.5057051777839661,0.004199574701488018
1761370802818834400,6.47583447265625,-0.18569757044315338,-0.5270848274230957,0.0689493864774704
1761370802837445000,6.494445068359375,-0.13805148005485535,-0.3279486298561096,0.18073442578315735
1761370802856057600,6.5130576171875,-0.12216944992542267,0.0886492058634758,0.2912977933883667
1761370802874668500,6.53166845703125,-0.12155860662460327,0.29083964228630066,0.3322245478630066
1761370802893281000,6.550281005859375,-0.11300674080848694,0.27862271666526794,0.24304085969924927
1761370802911891700,6.5688916015625,-0.1178935244679451,0.07337802648544312,0.031076854094862938
1761370802930504200,6.587504150390625,-0.16431790590286255,-0.3468848764896393,-0.2163926362991333
1761370802949115100,6.606115234375,-0.2504473626613617,-0.6516976952552795,-0.3379512429237366
1761370802967727600,6.6247275390625,-0.3151971995830536,-0.8593857288360596,-0.34405970573425293
1761370802986338300,6.64333837890625,-0.40071579813957214,-0.9394067525863647,-0.2652604281902313
1761370803004950800,6.66195068359375,-0.49356457591056824,-0.8709918260574341,-0.21211670339107513
1761370803023561700,6.680561767578125,-0.4947862923145294,-0.805631160736084,-0.254265159368515
1761370803042174200,6.69917431640625,-0.45019441843032837,-0.6791858077049255,-0.3477247953414917
1761370803060785000,6.717784912109375,-0.40132665634155273,-0.45561569929122925,-0.40453359484672546
1761370803079397400,6.7363974609375,-0.367730051279068,-0.16973918676376343,-0.3703261613845825
1761370803098008300,6.75500830078125,-0.3536805510520935,0.040392275899648666,-0.26220619678497314
1761370803116620800,6.773620849609375,-0.33413344621658325,0.09720107167959213,-0.14492350816726685
1761370803135231500,6.7922314453125,-0.3029802441596985,0.02817532978951931,-0.06917845457792282
1761370803153844000,6.810843994140625,-0.2779355049133301,-0.1086544543504715,-0.0325276181101799
1761370803172455000,6.829454833984375,-0.2730487287044525,-0.1990598440170288,-0.013591351918876171
1761370803191067400,6.8480673828125,-0.28221142292022705,-0.2515927255153656,-0.008093725889921188
1761370803209678000,6.866677978515625,-0.29259583353996277,-0.3200076222419739,-0.023364907130599022
1761370803228290600,6.88529052734375,-0.29748260974884033,-0.3554367423057556,-0.038636088371276855
1761370803246901500,6.903901611328125,-0.2993151545524597,-0.33650049567222595,-0.024586603045463562
1761370803265514000,6.922513916015625,-0.3017585575580597,-0.2748049199581146,0.007253811229020357
1761370803284124700,6.941124755859375,-0.2748812735080719,-0.21066594123840332,0.018249060958623886
1761370803302737200,6.959737060546875,-0.20219044387340546,-0.2528144121170044,-0.03130592033267021
1761370803321348000,6.97834814453125,-0.1459924876689911,-0.4598916172981262,-0.10155335813760757
1761370803339960600,6.996960693359375,-0.15210096538066864,-0.5185329914093018,-0.08750387281179428
1761370803358571300,7.0155712890625,-0.16553960740566254,-0.3426089584827423,0.0426829531788826
1761370803377183700,7.034183837890625,-0.17531315982341766,0.019623467698693275,0.23021306097507477
1761370803395794700,7.052794677734375,-0.1588202863931656,0.37024980783462524,0.3560476005077362
1761370803414407200,7.0714072265625,-0.14965757727622986,0.586489737033844,0.352993369102478
1761370803433017900,7.090017822265625,-0.16248537600040436,0.6897228956222534,0.2528144121170044
1761370803451630300,7.10863037109375,-0.16431790590286255,0.6762842535972595,0.11415208131074905
1761370803470241300,7.1272412109375,-0.1820324808359146,0.645741879940033,0.021914144977927208
1761370803488853800,7.145853759765625,-0.2223484069108963,0.5938199162483215,-0.0038177953101694584
1761370803507464700,7.164464599609375,-0.2480039894580841,0.44721654057502747,-0.010537114925682545
1761370803526077000,7.183076904296875,-0.23823043704032898,0.2609081268310547,-0.025197450071573257
1761370803544687900,7.20168798828125,-0.22479179501533508,-0.05673243850469589,-0.07528692483901978
1761370803563300400,7.22030029296875,-0.25594499707221985,-0.5264739990234375,-0.19318044185638428
1761370803581911300,7.238911376953125,-0.3390202224254608,-0.9925504326820374,-0.3245126008987427
1761370803600523800,7.257523681640625,-0.46241137385368347,-1.2417761087417603,-0.3703261613845825
1761370803619134500,7.276134521484375,-0.6022953987121582,-1.1134982109069824,-0.3080197274684906
1761370803637747000,7.294746826171875,-0.6707102656364441,-0.7262210249900818,-0.21394924819469452
1761370803656358000,7.31335791015625,-0.6560499668121338,-0.3988068997859955,-0.18340688943862915
1761370803674970400,7.331970458984375,-0.629172682762146,-0.2668638825416565,-0.20661908388137817
1761370803693581000,7.3505810546875,-0.629172682762146,-0.2131093442440033,-0.20234315097332
1761370803712193500,7.369193603515625,-0.624896764755249,-0.16973918676376343,-0.1107160672545433
1761370803730804500,7.387804443359375,-0.6193991303443909,-0.11659546941518784,0.061619218438863754
1761370803749416700,7.406416748046875,-0.6187883019447327,-0.11659546941518784,0.23693238198757172
1761370803768027600,7.425027587890625,-0.6230642199516296,-0.17890189588069916,0.3462740480899811
1761370803786640100,7.44364013671875,-0.6499415040016174,-0.28641101717948914,0.39025503396987915
1761370803805251000,7.4622509765625,-0.7379034757614136,-0.45256146788597107,0.3835357129573822
1761370803823863600,7.480863525390625,-0.8753440976142883,-0.7066739201545715,0.33772218227386475
1761370803842474200,7.49947412109375,-1.02683424949646,-0.9461260437965393,0.276637464761734
1761370803861086700,7.518086669921875,-1.184432864189148,-1.0951727628707886,0.23204560577869415
1761370803879697700,7.53669775390625,-1.3780714273452759,-1.0982270240783691,0.18073442578315735
1761370803898310100,7.55531005859375,-1.558882236480713,-1.0597436428070068,0.06711684167385101
1761370803916920800,7.5739208984375,-1.721367597579956,-1.0188168287277222,-0.10949437320232391
1761370803935533300,7.592533203125,-1.8667491674423218,-1.0249253511428833,-0.27625566720962524
1761370803954144300,7.611144287109375,-2.0011355876922607,-1.0621870756149292,-0.34039464592933655
1761370803972756700,7.6297568359375,-2.0916173458099365,-1.0145409107208252,-0.25976279377937317
1761370803991367400,7.648367431640625,-2.1142187118530273,-0.8172372579574585,-0.0716218426823616
1761370804009980000,7.66697998046875,-2.1007800102233887,-0.6309288740158081,0.1086544543504715
1761370804028590800,7.6855908203125,-2.0824546813964844,-0.6626929044723511,0.174625962972641
1761370804047203300,7.704203369140625,-2.083676338195801,-0.7683694958686829,0.19600561261177063
1761370804065814000,7.72281396484375,-2.127657413482666,-0.7384379506111145,0.24670593440532684
1761370804084426500,7.741426513671875,-2.177135944366455,-0.6364265084266663,0.2931303381919861
1761370804103037400,7.760037353515625,-2.20828914642334,-0.542356014251709,0.2821350693702698
1761370804121650000,7.77864990234375,-2.222949504852295,-0.5338041186332703,0.1984490007162094
1761370804140260600,7.797260498046875,-2.233944892883301,-0.6040515899658203,0.08055548369884491
1761370804158873000,7.815873046875,-2.2528810501098633,-0.6706339120864868,-0.012980503961443901
1761370804177484000,7.834484130859375,-2.275482416152954,-0.6584169864654541,-0.05512896552681923
1761370804196096500,7.853096435546875,-2.324350118637085,-0.47943875193595886,-0.10094250738620758
1761370804214707200,7.871707275390625,-2.396430253982544,-0.06345175951719284,-0.23777230083942413
1761370804233319700,7.890319580078125,-2.4703426361083984,0.32932302355766296,-0.4515688419342041
1761370804251930600,7.9089306640625,-2.5809059143066406,0.3616979420185089,-0.6562026739120483
1761370804270542800,7.92754296875,-2.700632095336914,0.0293970238417387,-0.7478297352790833
1761370804289153800,7.94615380859375,-2.775155544281006,-0.3719296157360077,-0.7069029808044434
1761370804307766300,7.964766357421875,-2.7940917015075684,-0.6779640913009644,-0.6134433746337891
1761370804326377200,7.983377197265625,-2.73483943939209,-0.9045884609222412,-0.5144860744476318
1761370804344989700,8.00198974609375,-2.5509746074676514,-0.9051992893218994,-0.36971530318260193
1761370804363600400,8.020600341796875,-2.30968976020813,-0.6009973287582397,-0.1510319858789444
1761370804382212900,8.039212890625,-2.0377864837646484,-0.25831204652786255,0.11354123055934906
1761370804400823800,8.05782373046875,-1.7787872552871704,-0.11476293206214905,0.33650049567222595
1761370804419436000,8.07643603515625,-1.5814836025238037,-0.12575818598270416,0.5063160061836243
1761370804438047000,8.095046875,-1.4385453462600708,-0.22960221767425537,0.6370373368263245
1761370804456659500,8.113659423828125,-1.349361538887024,-0.3700970709323883,0.7280535697937012
1761370804475270100,8.132270263671876,-1.317597508430481,-0.5301390886306763,0.7683694958686829
1761370804493883000,8.1508828125,-1.3353121280670166,-0.6303179860115051,0.7384379506111145
1761370804512493600,8.16949365234375,-1.414722204208374,-0.6229878664016724,0.648643434047699
1761370804531106000,8.18810595703125,-1.5008517503738403,-0.48004958033561707,0.5344150066375732
1761370804549717000,8.206717041015626,-1.5332266092300415,-0.2680855989456177,0.4513397812843323
1761370804568329200,8.2253291015625,-1.4874130487442017,-0.03229855000972748,0.42873841524124146
1761370804586940200,8.243940185546874,-1.395785927772522,0.15095563232898712,0.4531722962856293
1761370804605552600,8.262552734375,-1.3163758516311646,0.043446511030197144,0.4250733256340027
1761370804624163300,8.281163330078124,-1.281557559967041,-0.3419981002807617,0.32306185364723206
1761370804642775800,8.29977587890625,-1.2314680814743042,-0.6003865003585815,0.27236151695251465
1761370804661386800,8.31838671875,-1.1257915496826172,-0.5179221034049988,0.3957526683807373
1761370804679999200,8.336999267578125,-0.9914051294326782,-0.24609509110450745,0.6468108892440796
1761370804698610000,8.35560986328125,-0.8661814332008362,-0.018249060958623886,0.875267744064331
1761370804717222400,8.374222412109376,-0.7440119385719299,-0.07383616268634796,0.9491803050041199
1761370804735833300,8.392833251953125,-0.6572716236114502,-0.2674747407436371,0.954067051410675
1761370804754445800,8.41144580078125,-0.6035171151161194,-0.39147675037384033,1.0652412176132202
1761370804773056500,8.430056396484375,-0.5650337338447571,-0.45683738589286804,1.262544870376587
1761370804791669000,8.4486689453125,-0.5522059202194214,-0.537469208240509,1.392655372619629
1761370804810280000,8.467280029296875,-0.5906893014907837,-0.6284855008125305,1.3749408721923828
1761370804828892400,8.485892333984374,-0.652384877204895,-0.7524874806404114,1.1898541450500488
1761370804847503000,8.504503173828125,-0.6872031688690186,-0.8948148488998413,0.8813762664794922
1761370804866115600,8.523115478515624,-0.6707102656364441,-1.0737931728363037,0.5405234694480896
1761370804884726500,8.5417265625,-0.7049177289009094,-1.2301700115203857,0.2888543903827667
1761370804903339000,8.560339111328124,-0.8124268651008606,-1.1916866302490234,0.15080291032791138
1761370804921949700,8.57894970703125,-0.9064973592758179,-0.935741662979126,0.05856497958302498
1761370804940562200,8.597562255859375,-0.9138274788856506,-0.6144359707832336,-0.012369656935334206
1761370804959173000,8.616173095703125,-0.7831062078475952,-0.3200076222419739,-0.06978929787874222
1761370804977785600,8.63478564453125,-0.6029062271118164,-0.1465269923210144,-0.08933641016483307
1761370804996396300,8.653396240234375,-0.45385950803756714,-0.14286190271377563,-0.05024218559265137
1761370805015008800,8.6720087890625,-0.36223241686820984,-0.24670593440532684,0.03290939703583717
1761370805033619700,8.69061962890625,-0.2907632887363434,-0.3853682577610016,0.12820157408714294
1761370805052232000,8.70923193359375,-0.2107423096895218,-0.49715331196784973,0.19661645591259003
1761370805070843000,8.7278427734375,-0.12400199472904205,-0.5276956558227539,0.21066594123840332
1761370805089455400,8.746455322265625,-0.07269082218408585,-0.5203655362129211,0.16912832856178284
1761370805108066000,8.765066162109376,-0.0659715011715889,-0.4843255281448364,0.09827005118131638
1761370805126678500,8.783678466796875,-0.08857285231351852,-0.40491536259651184,0.03474193811416626
1761370805145289500,8.80228955078125,-0.10078980028629303,-0.27358320355415344,-0.004428642801940441
1761370805163902000,8.82090185546875,-0.09040539711713791,-0.12697987258434296,-0.038636088371276855
1761370805182512600,8.8395126953125,-0.10323318839073181,0.11980241537094116,-0.12720894813537598
1761370805201125000,8.858125,-0.15149012207984924,0.43316707015037537,-0.2945810854434967
1761370805219736000,8.876736083984374,-0.2492256760597229,0.5779378414154053,-0.5193728804588318
1761370805238348500,8.8953486328125,-0.3555130958557129,0.47348299622535706,-0.6604785919189453
1761370805256959200,8.913959228515624,-0.3432961702346802,0.32932302355766296,-0.6378772258758545
1761370805275571700,8.93257177734375,-0.28343313932418823,0.2309766262769699,-0.4912739098072052
1761370805294182700,8.9511826171875,-0.22479179501533508,0.2444152534008026,-0.2805316150188446
1761370805312795000,8.969794921875,-0.19241689145565033,0.22547899186611176,-0.08689302206039429
1761370805331405800,8.98840576171875,-0.1459924876689911,0.11735902726650238,0.026190076023340225
1761370805350018300,9.007018310546876,-0.06658235192298889,0.012904148548841476,0.07017108052968979
1761370805368629000,9.02562890625,0.020157959312200546,-0.010918894782662392,0.07627955079078674
1761370805387241500,9.044241455078126,0.07391251623630524,0.06849125027656555,0.07627955079078674
1761370805405852400,9.062852294921875,0.10078980028629303,0.21326205134391785,0.09277242422103882
1761370805424465000,9.08146484375,0.15149012207984924,0.2859528660774231,0.1349208950996399
1761370805443075600,9.10007568359375,0.19363857805728912,0.1784437596797943,0.2008923888206482
1761370805461688000,9.11868798828125,0.16737215220928192,0.02145601063966751,0.2815242409706116
1761370805480299000,9.137299072265625,0.08735115826129913,-0.013973130844533443,0.3694862425327301
1761370805498911500,9.155911376953124,0.01588202826678753,0.027564482763409615,0.42812758684158325
1761370805517522200,9.174522216796875,-0.033596597611904144,0.11186140775680542,0.4647783935070038
1761370805536134700,9.193134765625,-0.0390942245721817,0.3097759187221527,0.51425701379776
1761370805554745600,9.21174560546875,-0.021990500390529633,0.530902624130249,0.5851153135299683
1761370805573357800,9.23035791015625,-0.010995250195264816,0.6542937755584717,0.6578061580657959
1761370805591968800,9.24896875,0.006719320081174374,0.6799493432044983,0.6987329125404358
1761370805610581200,9.267581298828125,0.031153209507465363,0.6390225887298584,0.6779640913009644
1761370805629192000,9.28619189453125,0.05803048983216286,0.5015819668769836,0.5820610523223877
1761370805647804400,9.304804443359375,0.07635590434074402,0.1552315652370453,0.42812758684158325
1761370805666415400,9.323415283203126,0.06902574002742767,-0.29801711440086365,0.29557371139526367
1761370805685027800,9.34202783203125,-0.0036650835536420345,-0.6828508973121643,0.26014456152915955
1761370805703638500,9.360638427734376,-0.09834641218185425,-0.9235246777534485,0.2748049199581146
1761370805722251000,9.3792509765625,-0.20096874237060547,-0.9552887678146362,0.2662530541419983
1761370805740862000,9.397862060546874,-0.31092125177383423,-0.8318976163864136,0.17951273918151855
1761370805759474200,9.41647412109375,-0.4086568057537079,-0.597332239151001,0.015805672854185104
1761370805778085000,9.435085205078124,-0.4355340898036957,-0.37681639194488525,-0.17180079221725464
1761370805796697600,9.453697509765625,-0.37506023049354553,-0.12392564117908478,-0.2707580327987671
1761370805815308300,9.472308349609374,-0.29320669174194336,0.09842276573181152,-0.2573194205760956
1761370805833920800,9.490920654296875,-0.2235700935125351,0.1924932450056076,-0.19379130005836487
1761370805852531700,9.50953173828125,-0.15026842057704926,0.16072918474674225,-0.12720894813537598
1761370805871144200,9.528144287109376,-0.1056765764951706,-0.0011453386396169662,-0.06795676052570343
1761370805889755000,9.5467548828125,-0.12644538283348083,-0.21677441895008087,-0.024586603045463562
1761370805908367400,9.565367431640626,-0.20646637678146362,-0.34810659289360046,-0.03924693539738655
1761370805926978300,9.583978271484375,-0.31886225938796997,-0.3700970709323883,-0.09422318637371063
1761370805945590500,9.602590576171876,-0.4434750974178314,-0.2540360987186432,-0.11865708231925964
1761370805964201500,9.621201416015625,-0.5436540842056274,-0.06589514762163162,-0.14431266486644745
1761370805982814000,9.63981396484375,-0.601073682308197,0.055052608251571655,-0.2292204350233078
1761370806001424600,9.658424560546875,-0.6652126908302307,0.09720107167959213,-0.35261157155036926
1761370806020037000,9.677037109375,-0.763559103012085,0.1020878478884697,-0.45767730474472046
1761370806038648000,9.69564794921875,-0.8686248064041138,0.11002886295318604,-0.49860408902168274
1761370806057260500,9.714260498046874,-0.9584193229675293,0.06604786217212677,-0.4631749391555786
1761370806075871200,9.732871337890625,-1.022558331489563,-0.03901786729693413,-0.3434488773345947
1761370806094483700,9.751483642578124,-1.02683424949646,-0.11293038725852966,-0.14186927676200867
1761370806113094700,9.7700947265625,-0.9969027042388916,-0.08483141660690308,0.09704835712909698
1761370806131707000,9.788706787109374,-0.9822424054145813,-0.10682191699743271,0.2790808379650116
1761370806150317800,9.80731787109375,-1.0072871446609497,-0.32733777165412903,0.3169533610343933
1761370806168930300,9.825930419921875,-1.0854755640029907,-0.4879906177520752,0.3206184506416321
1761370806187541000,9.844541015625,-1.178935170173645,-0.4098021686077118,0.37620556354522705
1761370806206153500,9.863153564453125,-1.207645058631897,-0.18989713490009308,0.4531722962856293
1761370806224764400,9.881764404296876,-1.175881028175354,0.02023431472480297,0.49226653575897217
1761370806243377000,9.900376953125,-1.142895221710205,0.1289651244878769,0.4580591022968292
1761370806261987600,9.918987548828126,-1.119683027267456,0.14729054272174835,0.3853682577610016
1761370806280600000,9.93760009765625,-1.0555440187454224,0.07154548168182373,0.31084489822387695
1761370806299211000,9.9562109375,-0.9816315174102783,-0.08422056585550308,0.253425270318985
1761370806317823500,9.974823486328125,-0.9229902029037476,-0.255257785320282,0.2405974566936493
1761370806336434200,9.99343408203125,-0.869846522808075,-0.3603235185146332,0.2631988227367401
1761370806355046700,10.012046630859375,-0.8215895891189575,-0.46905434131622314,0.276637464761734
1761370806373657300,10.0306572265625,-0.7886037826538086,-0.6174902319908142,0.26075541973114014
1761370806392269800,10.049269775390625,-0.8069292306900024,-0.7072847485542297,0.2015032321214676
1761370806410880800,10.067880859375,-0.8832851648330688,-0.6773532629013062,0.1477486789226532
1761370806429493200,10.0864931640625,-0.9767447710037231,-0.5484644770622253,0.10437852889299393
1761370806448104000,10.10510400390625,-1.0133955478668213,-0.3548259139060974,0.04512634128332138
1761370806466716400,10.12371630859375,-0.9339854717254639,-0.17096087336540222,-0.030695075169205666
1761370806485327400,10.142327392578125,-0.8050966858863831,-0.0555107444524765,-0.09300149232149124
1761370806503939800,10.16093994140625,-0.7043069005012512,-0.029855160042643547,-0.11926792562007904
1761370806522550500,10.179550537109375,-0.6529957056045532,-0.1868429034948349,-0.11743538826704025
1761370806541163000,10.1981630859375,-0.6548282504081726,-0.4513397812843323,-0.07650861889123917
1761370806559774000,10.21677392578125,-0.6780404448509216,-0.593056321144104,0.03901786729693413
1761370806578386400,10.235386474609374,-0.6725428104400635,-0.5441885590553284,0.1880646049976349
1761370806596997000,10.2539970703125,-0.6022953987121582,-0.40552622079849243,0.2925194799900055
1761370806615609600,10.272609619140624,-0.47890424728393555,-0.2772482931613922,0.3316137194633484
1761370806634220500,10.291220458984375,-0.36223241686820984,-0.15507884323596954,0.35116082429885864
1761370806652832800,10.309832763671874,-0.3286358118057251,-0.11903885751962662,0.37559470534324646
1761370806671443700,10.328443603515625,-0.33535513281822205,-0.19417306780815125,0.38720080256462097
1761370806690056200,10.34705615234375,-0.34818294644355774,-0.31206658482551575,0.3951418101787567
1761370806708667000,10.3656669921875,-0.38788801431655884,-0.3603235185146332,0.4220190942287445
1761370806727279400,10.384279296875,-0.4312581717967987,-0.30412557721138,0.48310381174087524
1761370806745890300,10.402890380859375,-0.474017471075058,-0.13247749209403992,0.5350258350372314
1761370806764502800,10.421502685546875,-0.49417543411254883,-0.019470756873488426,0.5258631110191345
1761370806783113500,10.440113525390625,-0.5173876285552979,0.09292513877153397,0.4366794228553772
1761370806801726000,10.458725830078125,-0.5100574493408203,0.20104511082172394,0.3077906668186188
1761370806820337000,10.4773369140625,-0.5051707029342651,0.10636378079652786,0.1856212168931961
1761370806838949400,10.495949462890625,-0.499673068523407,-0.06345175951719284,0.1465269923210144
1761370806857560000,10.51456005859375,-0.4953971207141876,-0.09338327497243881,0.1990598440170288
1761370806876172500,10.533172607421875,-0.49051034450531006,-0.08422056585550308,0.28518930077552795
1761370806894783500,10.551783447265626,-0.46668729186058044,-0.09888090193271637,0.3413872718811035
1761370806913395700,10.570395751953125,-0.42881476879119873,-0.16424155235290527,0.3462740480899811
1761370806932006700,10.589006591796876,-0.3823903799057007,-0.25831204652786255,0.3218401372432709
1761370806950619100,10.607619140625,-0.34451785683631897,-0.31267744302749634,0.28396761417388916
1761370806969230000,10.62622998046875,-0.3115321099758148,-0.30962321162223816,0.30046048760414124
1761370806987842300,10.64484228515625,-0.29381752014160156,-0.25892287492752075,0.3963635265827179
1761370807006453200,10.663453369140624,-0.25655585527420044,-0.16973918676376343,0.5020400881767273
1761370807025065700,10.682065673828125,-0.18936264514923096,-0.0689493864774704,0.5619031190872192
1761370807043676700,10.7006767578125,-0.09590301662683487,0.09231429547071457,0.5851153135299683
1761370807062289000,10.719288818359376,0.021990500390529633,0.2468586415052414,0.5759525895118713
1761370807080899800,10.73789990234375,0.1178935244679451,0.3079433739185333,0.4739411175251007
1761370807099512300,10.75651220703125,0.1973036676645279,0.2981698215007782,0.2906869351863861
1761370807118123000,10.775123046875,0.24556060135364532,0.25113457441329956,0.120871402323246
1761370807136735500,10.793735595703126,0.26938363909721375,0.1790546029806137,0.026190076023340225
1761370807155346400,10.812346435546875,0.2742704153060913,0.06665870547294617,-0.01847812905907631
1761370807173959000,10.830958984375,0.261442631483078,-0.0952158197760582,-0.08200624585151672
1761370807192569900,10.84956982421875,0.2583884000778198,-0.31267744302749634,-0.14248012006282806
1761370807211182000,10.86818212890625,0.25472331047058105,-0.8636616468429565,-0.13087402284145355
1761370807229793000,10.88679296875,0.3268032968044281,-1.314466953277588,-0.16996824741363525
1761370807248405500,10.905405517578124,0.24494975805282593,-1.213677167892456,-0.14431266486644745
1761370807267016400,10.924016357421875,0.08674030750989914,-0.7543200254440308,-0.13209572434425354
1761370807285629000,10.94262890625,-0.07330167293548584,-0.04879142343997955,-0.10582929104566574
