time,seconds_elapsed,z,y,x
1761370693406111000,0.204111083984375,0.024433890357613564,0.02817532978951931,0.012751436792314053
1761370693424722000,0.222721923828125,0.020157959312200546,0.04650074616074562,0.018249060958623886
1761370693443334100,0.241334228515625,0.017714571207761765,0.05199837312102318,0.02802261710166931
1761370693461945000,0.259945068359375,0.020157959312200546,0.06055023521184921,0.02008160389959812
1761370693480557600,0.2785576171875,0.03420744836330414,0.06360447406768799,0.009697199799120426
1761370693499168300,0.297168212890625,0.034818295389413834,0.04100312292575836,0.004199574701488018
1761370693517780700,0.31578076171875,0.01832541823387146,0.031229566782712936,0.026190076023340225
1761370693536391400,0.334391357421875,-0.004886778071522713,0.03061871975660324,0.07383616268634796
1761370693555004000,0.35300390625,-0.021379653364419937,0.03184041380882263,0.12331479042768478
1761370693573614600,0.371614501953125,-0.02870982140302658,0.023288551717996597,0.16973918676376343
1761370693592227000,0.39022705078125,-0.02626643143594265,0.03061871975660324,0.16668494045734406
1761370693610837800,0.408837646484375,-0.017714571207761765,0.034283801913261414,0.15019206702709198
1761370693629450200,0.4274501953125,-0.01588202826678753,0.031229566782712936,0.1214822456240654
1761370693648061000,0.44606103515625,-0.015271181240677834,0.043446511030197144,0.07750124484300613
1761370693666673400,0.46467333984375,-0.01038440316915512,0.027564482763409615,0.07505785673856735
1761370693685284000,0.4832841796875,-0.022601349279284477,0.02023431472480297,0.11109784245491028
1761370693703896600,0.501896484375,-0.03298575058579445,0.03306210786104202,0.120871402323246
1761370693722507300,0.52050732421875,-0.01832541823387146,0.022066857665777206,0.10254598408937454
1761370693741119700,0.53911962890625,-0.012827792204916477,-0.021303297951817513,0.13186664879322052
1761370693759730700,0.557730712890625,-0.03665083646774292,-0.023746687918901443,0.16790664196014404
1761370693778343000,0.576343017578125,-0.06291726976633072,-0.0231358390301466,0.16729579865932465
1761370693796953900,0.594953857421875,-0.07391251623630524,-0.015194825828075409,0.12942326068878174
1761370693815566000,0.613566162109375,-0.05070032179355621,-0.059175826609134674,0.10498937219381332
1761370693834177000,0.632177001953125,-0.05070032179355621,-0.052456509321928024,0.13797512650489807
1761370693852789200,0.650789306640625,-0.05741964280605316,-0.03290939703583717,0.18134528398513794
1761370693871400200,0.669400146484375,-0.051922015845775604,0.023288551717996597,0.18134528398513794
1761370693890012400,0.688012451171875,-0.03665083646774292,0.039170581847429276,0.12514732778072357
1761370693908623400,0.706623291015625,-0.01038440316915512,0.03978142887353897,0.05978667363524437
1761370693927235600,0.725235595703125,0.014049487188458443,0.03184041380882263,0.026190076023340225
1761370693945846500,0.743846435546875,0.010995250195264816,0.03855973482131958,0.05062396824359894
1761370693964458800,0.762458740234375,0.012827792204916477,0.057496000081300735,0.06100837141275406
1761370693983069700,0.781069580078125,0.01588202826678753,0.0361163429915905,0.05795413255691528
1761370694001682000,0.799681884765625,0.017714571207761765,0.014736690558493137,0.054899897426366806
1761370694020292900,0.81829296875,0.013438640162348747,0.011682453565299511,0.02802261710166931
1761370694038905300,0.8369052734375,0.01038440316915512,0.03489464893937111,-0.004428642801940441
1761370694057516000,0.85551611328125,0.014049487188458443,0.030007870867848396,-0.00015271181473508477
1761370694076128500,0.87412841796875,0.02076880633831024,0.009849912486970425,0.009697199799120426
1761370694094739200,0.8927392578125,0.01832541823387146,-0.004199574701488018,0.013362283818423748
1761370694113351700,0.9113515625,0.007330167107284069,-0.007253811229020357,0.044515494257211685
1761370694131962600,0.929962646484375,0.0006108472589403391,-0.006642963737249374,0.06284090876579285
1761370694150574800,0.948574951171875,-0.0006108472589403391,-0.0029778804164379835,0.04390464723110199
1761370694169185800,0.967185791015625,0.0012216945178806782,-0.004810422193259001,0.015194825828075409
1761370694187798000,0.985798095703125,0.0024433890357613564,-0.006032116711139679,-0.012369656935334206
1761370694206409000,1.004408935546875,0.005497625097632408,-0.013362283818423748,-0.007482878863811493
1761370694225021200,1.023021240234375,0.0012216945178806782,-0.0017561858985573053,0.008475505746901035
1761370694243632000,1.041632080078125,0.006719320081174374,0.018401773646473885,0.010308047756552696
1761370694262244400,1.060244384765625,0.014660334214568138,0.014736690558493137,0.0035887276753783226
1761370694280855300,1.078855224609375,0.011606098152697086,0.009239064529538155,-0.0007635590736754239
1761370694299467800,1.0974677734375,0.0024433890357613564,0.02695363573729992,0.00908635277301073
1761370694318078500,1.116078369140625,0.004275931045413017,0.03855973482131958,0.0164165198802948
1761370694336691000,1.13469091796875,0.012827792204916477,0.036727190017700195,0.015194825828075409
1761370694355301600,1.153301513671875,0.023212196305394173,0.02695363573729992,0.019470756873488426
1761370694373914000,1.1719140625,0.025655584409832954,0.03306210786104202,0.034131091088056564
1761370694392524800,1.19052490234375,0.018936265259981155,0.040392275899648666,0.02802261710166931
1761370694411137300,1.20913720703125,0.007330167107284069,0.03733803704380989,0.009697199799120426
1761370694429748000,1.227748046875,0.004275931045413017,0.03733803704380989,-0.010537114925682545
1761370694448360400,1.2463603515625,0.007330167107284069,0.035505495965480804,0.0005344913806766272
1761370694466971100,1.26497119140625,0.006719320081174374,0.034283801913261414,0.01763821393251419
1761370694485583600,1.28358349609375,0.004886778071522713,0.03061871975660324,0.02802261710166931
1761370694504194600,1.302194580078125,0.006108472589403391,0.026342788711190224,0.015805672854185104
1761370694522806800,1.320806884765625,0.006719320081174374,0.014125842601060867,-0.0050394898280501366
1761370694541417700,1.339417724609375,0.01038440316915512,0.0037414394319057465,-0.0331384651362896
1761370694560030000,1.358030029296875,0.01588202826678753,0.015347537584602833,-0.027029991149902344
1761370694578641000,1.376640869140625,0.008551862090826035,0.01779092662036419,0.010308047756552696
1761370694597253000,1.395253173828125,0.0006108472589403391,0.022677704691886902,0.03352024406194687
1761370694615864000,1.413864013671875,0.0018325417768210173,0.020845163613557816,0.03352024406194687
1761370694634476300,1.432476318359375,0.007330167107284069,0.006184828467667103,0.03352024406194687
1761370694653087200,1.451087158203125,0.007330167107284069,0.0067956759594380856,0.03290939703583717
1761370694671699700,1.46969970703125,-0.006108472589403391,0.023288551717996597,0.04634803533554077
1761370694690310400,1.488310302734375,-0.010995250195264816,0.035505495965480804,0.06772769242525101
1761370694708923000,1.5069228515625,-0.012216945178806782,0.03978142887353897,0.0683385357260704
1761370694727533600,1.525533447265625,0.0018325417768210173,0.03733803704380989,0.059175826609134674
1761370694746146000,1.54414599609375,0.006108472589403391,0.02145601063966751,0.054899897426366806
1761370694764757000,1.562757080078125,0.009773556143045425,0.023899398744106293,0.07261446863412857
1761370694783369200,1.581369140625,0.014049487188458443,0.025731941685080528,0.08483141660690308
1761370694801980200,1.599980224609375,0.006719320081174374,0.02817532978951931,0.07933378964662552
1761370694820592400,1.61859228515625,-0.004886778071522713,0.03306210786104202,0.06039752438664436
1761370694839203300,1.637203369140625,-0.009773556143045425,0.022677704691886902,0.03962871432304382
1761370694857815600,1.655815673828125,-0.012216945178806782,0.006184828467667103,0.024968381971120834
1761370694876426500,1.674426513671875,-0.011606098152697086,0.012293301522731781,0.012751436792314053
1761370694895038700,1.693038818359375,-0.005497625097632408,0.009849912486970425,0.0011453386396169662
1761370694913649700,1.711649658203125,-0.012827792204916477,0.0025197449140250683,-0.01725643500685692
1761370694932262100,1.73026220703125,-0.016492875292897224,0.004963133949786425,-0.008704573847353458
1761370694950872800,1.748872802734375,-0.01954711228609085,0.017180079594254494,0.007253811229020357
1761370694969485300,1.7674853515625,-0.01954711228609085,0.019623467698693275,0.017027366906404495
1761370694988096000,1.786095947265625,-0.01832541823387146,0.0165692325681448,0.020692450925707817
1761370695006708500,1.80470849609375,-0.007330167107284069,0.022677704691886902,0.013362283818423748
1761370695025319200,1.823319091796875,0.0012216945178806782,0.03733803704380989,0.005421269219368696
1761370695043931600,1.841931640625,0.009773556143045425,0.04405735805630684,0.012140588834881783
1761370695062542300,1.860542236328125,0.009773556143045425,0.047111593186855316,0.028633465990424156
1761370695081154800,1.87915478515625,0.010995250195264816,0.04161396995186806,0.028633465990424156
1761370695099765500,1.897765625,0.005497625097632408,0.03061871975660324,0.023746687918901443
1761370695118378000,1.9163779296875,-0.0024433890357613564,0.02145601063966751,0.03168770298361778
1761370695136989000,1.934989013671875,-0.007330167107284069,0.022677704691886902,0.034131091088056564
1761370695155601200,1.95360107421875,-0.018936265259981155,0.022677704691886902,0.04146125912666321
1761370695174212000,1.972212158203125,-0.036039989441633224,0.005573981441557407,0.036574479192495346
1761370695192824300,1.99082421875,-0.043981000781059265,-0.01885990984737873,0.0164165198802948
1761370695211435300,2.009435302734375,-0.042759306728839874,-0.019470756873488426,-0.001985253533348441
1761370695230047500,2.028047607421875,-0.03176405653357506,-0.01885990984737873,-0.021532366052269936
1761370695248658400,2.046658447265625,-0.01588202826678753,-0.021914144977927208,-0.016034740954637527
1761370695267270700,2.065270751953125,-0.016492875292897224,-0.030466007068753242,0.04818057641386986
1761370695285881600,2.083881591796875,-0.021990500390529633,-0.010918894782662392,0.08666395395994186
1761370695304494000,2.102494140625,-0.012216945178806782,-0.008475505746901035,0.07383616268634796
1761370695323104800,2.121104736328125,0.004275931045413017,-0.004199574701488018,0.05123481526970863
1761370695341717200,2.13971728515625,0.008551862090826035,-0.008475505746901035,0.052456509321928024
1761370695360328000,2.158327880859375,-0.01710372418165207,-0.013362283818423748,0.07627955079078674
1761370695378940400,2.1769404296875,-0.04214845970273018,0.0037414394319057465,0.0695602297782898
1761370695397551000,2.195551025390625,-0.031153209507465363,0.02817532978951931,0.023746687918901443
1761370695416163600,2.21416357421875,-0.005497625097632408,0.005573981441557407,-0.025808297097682953
1761370695434774500,2.2327744140625,0.004275931045413017,-0.019470756873488426,-0.045355409383773804
1761370695453386800,2.25138671875,-0.0036650835536420345,-0.03229855000972748,-0.05757235363125801
1761370695471997700,2.269997802734375,-0.0024433890357613564,-0.03290939703583717,-0.06856760382652283
1761370695490610000,2.28860986328125,0.009773556143045425,-0.024968381971120834,-0.07589777559041977
1761370695509220900,2.307220947265625,0.01710372418165207,-0.03290939703583717,-0.07345438003540039
1761370695527833000,2.3258330078125,0.016492875292897224,-0.03352024406194687,-0.05268557742238045
1761370695546444000,2.344444091796875,0.021379653364419937,-0.03596363216638565,-0.022754060104489326
1761370695565056300,2.36305615234375,0.023212196305394173,-0.021303297951817513,-0.00015271181473508477
1761370695583667200,2.381667236328125,0.020157959312200546,-0.01763821393251419,0.01885990984737873
1761370695602279400,2.400279541015625,0.013438640162348747,-0.021914144977927208,0.030466007068753242
1761370695620890400,2.418890380859375,0.0018325417768210173,-0.0035887276753783226,0.03718532621860504
1761370695639502600,2.437502685546875,0.004275931045413017,0.011682453565299511,0.03901786729693413
1761370695658113500,2.456113525390625,0.01588202826678753,0.00129805039614439,0.028633465990424156
1761370695676726000,2.47472607421875,0.015271181240677834,-0.010308047756552696,0.012751436792314053
1761370695695336700,2.493336669921875,0.01588202826678753,-0.027411770075559616,0.005421269219368696
1761370695713949200,2.51194921875,0.01588202826678753,-0.0231358390301466,0.005421269219368696
1761370695732560000,2.530559814453125,0.02076880633831024,-0.0164165198802948,0.012140588834881783
1761370695751172400,2.54917236328125,0.014660334214568138,-0.021303297951817513,0.0164165198802948
1761370695769783300,2.567783203125,0.006719320081174374,-0.017027366906404495,0.017027366906404495
1761370695788395500,2.5863955078125,0.004886778071522713,-0.00786465872079134,0.013973130844533443
1761370695807006500,2.60500634765625,0.006719320081174374,0.0019088976550847292,-0.00259610079228878
1761370695825618700,2.62361865234375,0.004886778071522713,-0.00908635277301073,-0.028251685202121735
1761370695844229600,2.642229736328125,0.004886778071522713,-0.0164165198802948,-0.025197450071573257
1761370695862841900,2.660841796875,0.0030542362947016954,-0.006642963737249374,-0.014813045971095562
1761370695881452800,2.679452880859375,0.0006108472589403391,-0.004199574701488018,-0.008704573847353458
1761370695900065000,2.69806494140625,0.004886778071522713,-0.012751436792314053,-0.019088976085186005
1761370695918676000,2.716676025390625,0.02076880633831024,-0.006032116711139679,-0.030695075169205666
1761370695937288200,2.7352880859375,0.025655584409832954,-0.006642963737249374,-0.04413371533155441
1761370695955899100,2.753899169921875,0.021379653364419937,-0.006032116711139679,-0.047798797488212585
1761370695974511400,2.772511474609375,0.012216945178806782,-0.015805672854185104,-0.025197450071573257
1761370695993122300,2.791122314453125,0.011606098152697086,-0.027411770075559616,-0.00259610079228878
1761370696011734500,2.809734619140625,0.008551862090826035,-0.02680092304944992,0.004810422193259001
1761370696030345500,2.828345458984375,0.004886778071522713,-0.011529741808772087,0.0011453386396169662
1761370696048958000,2.8469580078125,0.0018325417768210173,0.012293301522731781,-0.0050394898280501366
1761370696067568600,2.865568603515625,0.0036650835536420345,0.008017370477318764,-0.012369656935334206
1761370696086181000,2.88418115234375,0.010995250195264816,0.00862821750342846,0.0029778804164379835
1761370696104791800,2.902791748046875,0.02076880633831024,0.023288551717996597,0.03290939703583717
1761370696123404300,2.921404296875,0.029320668429136276,0.045889899134635925,0.0426829531788826
1761370696142015000,2.940014892578125,0.02504473738372326,0.05077667906880379,0.03290939703583717
1761370696160627500,2.95862744140625,-0.004275931045413017,0.031229566782712936,0.02680092304944992
1761370696179238400,2.97723828125,-0.018936265259981155,0.019623467698693275,0.026190076023340225
1761370696197850600,2.9958505859375,-0.02076880633831024,0.014736690558493137,0.018249060958623886
1761370696216461600,3.014461669921875,-0.011606098152697086,0.011071606539189816,-0.00015271181473508477
1761370696235073800,3.03307373046875,-0.0036650835536420345,0.009239064529538155,-0.013591351918876171
1761370696253684700,3.051684814453125,0.0018325417768210173,0.009849912486970425,-0.01175880990922451
1761370696272297000,3.070296875,0.0036650835536420345,0.022066857665777206,-0.007482878863811493
1761370696290908000,3.088907958984375,0.006108472589403391,0.036727190017700195,-0.0032069480512291193
1761370696309520100,3.10752001953125,-0.0012216945178806782,0.0361163429915905,-0.006261184345930815
1761370696328131000,3.126131103515625,-0.0018325417768210173,0.030007870867848396,-0.01175880990922451
1761370696346743300,3.144743408203125,0.011606098152697086,0.02145601063966751,-0.02214321307837963
1761370696365354200,3.163354248046875,0.022601349279284477,0.004963133949786425,-0.04107947647571564
1761370696383966500,3.181966552734375,0.020157959312200546,-0.012751436792314053,-0.04963133856654167
1761370696402577400,3.200577392578125,0.012216945178806782,-0.014583977870643139,-0.04291202127933502
1761370696421189600,3.219189697265625,0.0018325417768210173,-0.004810422193259001,-0.04413371533155441
1761370696439800600,3.237800537109375,-0.007330167107284069,0.0031305921729654074,-0.047798797488212585
1761370696458412800,3.256412841796875,-0.013438640162348747,-0.0035887276753783226,-0.04230117425322533
1761370696477023700,3.275023681640625,-0.012827792204916477,-0.0017561858985573053,-0.03436015918850899
1761370696495636200,3.29363623046875,-0.008551862090826035,-0.0005344913806766272,-0.03497100621461868
1761370696514247000,3.312246826171875,-0.00916270911693573,-0.012140588834881783,-0.036192700266838074
1761370696532859400,3.330859375,-0.007330167107284069,-0.021303297951817513,-0.04474456235766411
1761370696551470000,3.349469970703125,-0.006108472589403391,-0.015805672854185104,-0.055739812552928925
1761370696570082600,3.36808251953125,-0.007941014133393764,-0.0017561858985573053,-0.05268557742238045
1761370696588693200,3.386693359375,-0.009773556143045425,0.006184828467667103,-0.023364907130599022
1761370696607305700,3.4053056640625,-0.006108472589403391,0.01901262067258358,-0.014813045971095562
1761370696625916400,3.42391650390625,0.009773556143045425,0.00862821750342846,-0.030695075169205666
1761370696644529000,3.44252880859375,0.01710372418165207,-0.00786465872079134,-0.036192700266838074
1761370696663139800,3.461139892578125,0.007330167107284069,-0.02008160389959812,-0.022754060104489326
1761370696681752000,3.479751953125,-0.010995250195264816,-0.013362283818423748,-0.010537114925682545
1761370696700363000,3.498363037109375,-0.021990500390529633,-0.006642963737249374,-0.00015271181473508477
1761370696718975200,3.516975341796875,-0.02076880633831024,-0.007253811229020357,-0.0007635590736754239
1761370696737586200,3.535586181640625,-0.012827792204916477,-0.0164165198802948,-0.009315420873463154
1761370696756198400,3.554198486328125,-0.004886778071522713,-0.010918894782662392,-0.025808297097682953
1761370696774809300,3.572809326171875,-0.007941014133393764,-0.004810422193259001,-0.0459662564098835
1761370696793421600,3.591421630859375,-0.012827792204916477,-0.009697199799120426,-0.04046862944960594
1761370696812032500,3.610032470703125,-0.014660334214568138,-0.0035887276753783226,-0.029473381116986275
1761370696830644700,3.628644775390625,-0.018936265259981155,-0.013973130844533443,-0.014813045971095562
1761370696849255700,3.647255615234375,-0.022601349279284477,-0.02008160389959812,-0.0038177953101694584
1761370696867868000,3.665867919921875,-0.023823043331503868,-0.006642963737249374,0.0017561858985573053
1761370696886478800,3.684478759765625,-0.021379653364419937,0.00129805039614439,-0.0007635590736754239
1761370696905091300,3.70309130859375,-0.02076880633831024,-0.0011453386396169662,-0.0007635590736754239
1761370696923702000,3.721701904296875,-0.01710372418165207,0.0067956759594380856,0.0017561858985573053
1761370696942314500,3.740314453125,-0.010995250195264816,0.009239064529538155,0.0011453386396169662
1761370696960925200,3.75892529296875,-0.004886778071522713,-0.0029778804164379835,-0.010537114925682545
1761370696979537700,3.77753759765625,-0.005497625097632408,-0.015805672854185104,-0.02214321307837963
1761370696998148600,3.796148681640625,-0.005497625097632408,-0.013973130844533443,-0.016034740954637527
1761370697016760800,3.8147607421875,0.0030542362947016954,0.004963133949786425,-0.0032069480512291193
1761370697035371800,3.833371826171875,0.006108472589403391,0.009239064529538155,-0.001985253533348441
1761370697053984000,3.85198388671875,0,-0.0017561858985573053,-0.0050394898280501366
1761370697072595000,3.870594970703125,-0.007941014133393764,-0.005421269219368696,0.0005344913806766272
1761370697091207200,3.889207275390625,-0.011606098152697086,-0.005421269219368696,-0.004428642801940441
1761370697109818000,3.907818115234375,-0.014660334214568138,-0.0005344913806766272,-0.01725643500685692
1761370697128430300,3.926430419921875,-0.012827792204916477,-0.0005344913806766272,-0.03130592033267021
1761370697147041300,3.945041259765625,-0.012827792204916477,-0.007253811229020357,-0.03497100621461868
1761370697165653500,3.963653564453125,-0.011606098152697086,-0.014583977870643139,-0.013591351918876171
1761370697184264400,3.982264404296875,-0.007330167107284069,0.0037414394319057465,0.0164165198802948
1761370697202877000,4.000876953125,-0.0012216945178806782,0.0165692325681448,0.0231358390301466
1761370697221487600,4.019487548828125,0.006719320081174374,0.009849912486970425,0.009697199799120426
1761370697240100000,4.03810009765625,0.015271181240677834,-0.00908635277301073,-0.0032069480512291193
1761370697258710800,4.056710693359375,0.021990500390529633,-0.006642963737249374,-0.010537114925682545
1761370697277323300,4.0753232421875,0.01588202826678753,-0.0011453386396169662,-0.01175880990922451
1761370697295934000,4.093933837890625,0.005497625097632408,0.004352286923676729,-0.0038177953101694584
1761370697314546400,4.11254638671875,0.0036650835536420345,0.0037414394319057465,0.0035887276753783226
1761370697333157000,4.1311572265625,0.009773556143045425,0.0031305921729654074,0.006032116711139679
1761370697351769600,4.14976953125,0.017714571207761765,-0.0011453386396169662,-0.01175880990922451
1761370697370380500,4.168380615234375,0.023212196305394173,0.00007635590736754239,-0.03680354729294777
1761370697388992800,4.18699267578125,0.02504473738372326,0.000687203137204051,-0.04840964451432228
1761370697407603700,4.205603759765625,0.007941014133393764,-0.005421269219368696,-0.039857782423496246
1761370697426216000,4.2242158203125,0.007330167107284069,0.005573981441557407,-0.012980503961443901
1761370697444827000,4.242826904296875,0.016492875292897224,0.01779092662036419,0.004810422193259001
1761370697463439000,4.261439208984375,0.017714571207761765,0.030007870867848396,-0.01175880990922451
1761370697482050000,4.280050048828125,0.008551862090826035,0.0293970238417387,-0.021532366052269936
1761370697500662500,4.29866259765625,-0.00916270911693573,0.022066857665777206,-0.0007635590736754239
1761370697519273200,4.317273193359375,-0.01832541823387146,0.03061871975660324,0.022524992004036903
1761370697537885700,4.3358857421875,-0.022601349279284477,0.03184041380882263,0.031076854094862938
1761370697556496400,4.354496337890625,-0.023212196305394173,0.015347537584602833,0.02924431301653385
1761370697575108900,4.37310888671875,-0.021990500390529633,0.012904148548841476,0.02435753494501114
1761370697593719800,4.3917197265625,-0.01954711228609085,0.015347537584602833,0.02557922899723053
1761370697612332000,4.41033203125,-0.015271181240677834,0.02145601063966751,0.022524992004036903
1761370697630943000,4.42894287109375,-0.006719320081174374,0.0293970238417387,0.02008160389959812
1761370697649555200,4.44755517578125,-0.0024433890357613564,0.03184041380882263,0.012140588834881783
1761370697668166100,4.466166259765625,-0.006108472589403391,0.023288551717996597,0.015194825828075409
1761370697686778400,4.4847783203125,-0.007330167107284069,0.022066857665777206,0.020692450925707817
1761370697705389300,4.503389404296875,-0.004275931045413017,0.02145601063966751,0.006032116711139679
1761370697724001800,4.522001708984375,0,0.012904148548841476,-0.014813045971095562
1761370697742612500,4.540612548828125,-0.0036650835536420345,-0.0023670331574976444,0.0011453386396169662
1761370697761225000,4.559224853515625,-0.009773556143045425,0.00862821750342846,0.018249060958623886
1761370697779835600,4.577835693359375,-0.007330167107284069,0.02145601063966751,0.021914144977927208
1761370697798448000,4.5964482421875,-0.01038440316915512,0.02145601063966751,0.018249060958623886
1761370697817058800,4.615058837890625,-0.011606098152697086,0.00862821750342846,0.006642963737249374
1761370697835671300,4.63367138671875,-0.006108472589403391,-0.008475505746901035,-0.01725643500685692
1761370697854282200,4.6522822265625,0.0012216945178806782,-0.007253811229020357,-0.038636088371276855
1761370697872894500,4.67089453125,-0.006719320081174374,-0.010918894782662392,-0.05207473039627075
1761370697891505400,4.68950537109375,-0.013438640162348747,-0.01885990984737873,-0.04169032722711563
1761370697910117600,4.70811767578125,-0.02626643143594265,-0.009697199799120426,0.0035887276753783226
1761370697928728600,4.726728515625,-0.023212196305394173,-0.0029778804164379835,0.028633465990424156
1761370697947340800,4.7453408203125,-0.00916270911693573,-0.0011453386396169662,0.022524992004036903
1761370697965951700,4.76395166015625,-0.0006108472589403391,0.00007635590736754239,0.0164165198802948
1761370697984564200,4.782564208984375,0.004886778071522713,0.01046075951308012,0.010308047756552696
1761370698003175000,4.8011748046875,0.01038440316915512,0.014125842601060867,-0.00015271181473508477
1761370698021787400,4.819787353515625,0.008551862090826035,0.008017370477318764,-0.0007635590736754239
1761370698040398000,4.838398193359375,0.0036650835536420345,-0.00908635277301073,0.010918894782662392
1761370698059010600,4.857010498046875,0.006719320081174374,-0.02008160389959812,0.019470756873488426
1761370698077621200,4.875621337890625,0.009773556143045425,-0.013362283818423748,0.015194825828075409
1761370698096233700,4.894233642578125,0.015271181240677834,-0.009697199799120426,0.00786465872079134
1761370698114844700,4.9128447265625,0.014660334214568138,-0.0035887276753783226,-0.001985253533348441
1761370698133457000,4.931456787109375,0.011606098152697086,-0.005421269219368696,-0.001985253533348441
1761370698152067800,4.95006787109375,0.014049487188458443,-0.00908635277301073,-0.004428642801940441
1761370698170680000,4.96868017578125,0.021990500390529633,-0.0011453386396169662,-0.008704573847353458
1761370698189291000,4.987291015625,0.028098974376916885,0.0037414394319057465,-0.01725643500685692
1761370698207903200,5.0059033203125,0.029320668429136276,0.0031305921729654074,-0.01969982497394085
1761370698226514200,5.02451416015625,0.02748812735080719,0.004352286923676729,-0.013591351918876171
1761370698245126700,5.043126708984375,0.024433890357613564,0.0037414394319057465,-0.009315420873463154
1761370698263737300,5.0617373046875,0.023823043331503868,0.0025197449140250683,-0.005650337319821119
1761370698282349800,5.080349853515625,0.01832541823387146,0.005573981441557407,-0.008093725889921188
1761370698300960500,5.09896044921875,0.01588202826678753,0.0031305921729654074,-0.017867282032966614
1761370698319573000,5.117572998046875,0.01038440316915512,0.011682453565299511,-0.01847812905907631
1761370698338184000,5.136183837890625,0.0036650835536420345,0.01901262067258358,-0.00259610079228878
1761370698356796200,5.154796142578125,0.004275931045413017,0.02023431472480297,0.008475505746901035
1761370698375407000,5.173406982421875,0.00916270911693573,0.0165692325681448,0.006642963737249374
1761370698394019300,5.192019287109375,0.01588202826678753,0.0165692325681448,0.0035887276753783226
1761370698412630300,5.21063037109375,0.014660334214568138,0.023899398744106293,-0.001374406274408102
1761370698431242500,5.229242431640625,0.00916270911693573,0.039170581847429276,0.0005344913806766272
1761370698449853400,5.247853515625,0.011606098152697086,0.03489464893937111,0.00786465872079134
1761370698468466000,5.2664658203125,0.013438640162348747,0.01901262067258358,0.010918894782662392
1761370698487076600,5.28507666015625,0.011606098152697086,0.011071606539189816,0.017027366906404495
1761370698505689000,5.303689208984375,0.006108472589403391,0.009849912486970425,0.018249060958623886
1761370698524299800,5.3222998046875,-0.004275931045413017,0.006184828467667103,0.008475505746901035
1761370698542912300,5.340912353515625,-0.01832541823387146,0.0067956759594380856,-0.00015271181473508477
1761370698561523000,5.35952294921875,-0.022601349279284477,0.019623467698693275,-0.0007635590736754239
1761370698580135400,5.378135498046875,-0.02626643143594265,0.035505495965480804,0.015194825828075409
1761370698598746400,5.396746337890625,-0.02748812735080719,0.048333290964365005,0.03352024406194687
1761370698617358600,5.415358642578125,-0.01832541823387146,0.04100312292575836,0.04023956134915352
1761370698635969500,5.433969482421875,-0.009773556143045425,0.03184041380882263,0.02680092304944992
1761370698654581800,5.452581787109375,-0.014049487188458443,0.019623467698693275,0.013973130844533443
1761370698673192700,5.471192626953125,-0.018936265259981155,0.0037414394319057465,0.009697199799120426
1761370698691805000,5.489804931640625,-0.023212196305394173,0.00129805039614439,0.008475505746901035
1761370698710416000,5.508415771484375,-0.01954711228609085,0.0067956759594380856,0.0035887276753783226
1761370698729028400,5.5270283203125,-0.010995250195264816,0.007406522985547781,-0.0050394898280501366
1761370698747639000,5.54563916015625,-0.004275931045413017,0.014125842601060867,-0.00992626789957285
1761370698766251500,5.56425146484375,-0.006108472589403391,0.018401773646473885,-0.008093725889921188
1761370698784862200,5.5828623046875,-0.004886778071522713,0.023899398744106293,0.0005344913806766272
1761370698803474700,5.601474609375,0.006108472589403391,0.0293970238417387,0.008475505746901035
1761370698822085600,5.620085693359375,0.014049487188458443,0.028786176815629005,-0.001985253533348441
1761370698840697900,5.63869775390625,0.016492875292897224,0.02145601063966751,-0.019088976085186005
1761370698859308800,5.657308837890625,0.014660334214568138,0.018401773646473885,-0.02092151902616024
1761370698877921000,5.675921142578125,0.00916270911693573,0.02817532978951931,-0.01175880990922451
1761370698896532000,5.694531982421875,0.015271181240677834,0.022066857665777206,-0.009315420873463154
1761370698915144200,5.713144287109375,0.009773556143045425,0.022677704691886902,-0.006261184345930815
1761370698933755100,5.731755126953125,0.006108472589403391,0.0067956759594380856,-0.0038177953101694584
1761370698952367400,5.750367431640625,-0.0036650835536420345,-0.013973130844533443,-0.006261184345930815
1761370698970978300,5.768978271484375,-0.0024433890357613564,-0.02680092304944992,0.010918894782662392
1761370698989590800,5.7875908203125,0.0036650835536420345,-0.020692450925707817,0.01885990984737873
1761370699008201500,5.806201416015625,0.012216945178806782,-0.011529741808772087,0.015194825828075409
1761370699026814000,5.82481396484375,0.012827792204916477,-0.013973130844533443,0.010308047756552696
1761370699045424600,5.843424560546875,0.018936265259981155,-0.010308047756552696,0.00908635277301073
1761370699064037000,5.862037109375,0.021990500390529633,-0.0029778804164379835,0.021303297951817513
1761370699082647800,5.880647705078125,0.017714571207761765,0.023899398744106293,0.04023956134915352
1761370699101260300,5.89926025390625,0.00916270911693573,0.039170581847429276,0.045737188309431076
1761370699119871200,5.917871337890625,0.008551862090826035,0.02817532978951931,0.03901786729693413
1761370699138483500,5.9364833984375,0.01588202826678753,0.0165692325681448,0.029855160042643547
1761370699157094400,5.955094482421875,0.033596597611904144,0.015958385542035103,0.03168770298361778
1761370699175706600,5.97370654296875,0.03420744836330414,0.011682453565299511,0.017027366906404495
1761370699194317600,5.992317626953125,0.023823043331503868,0.0037414394319057465,-0.00992626789957285
1761370699212929800,6.0109296875,0.007941014133393764,0.013514995574951172,-0.028251685202121735
1761370699231540700,6.029540771484375,0.0018325417768210173,0.023899398744106293,-0.024586603045463562
1761370699250153200,6.0481533203125,0.008551862090826035,0.02145601063966751,-0.00992626789957285
1761370699268764000,6.066763916015625,0.005497625097632408,0.015958385542035103,-0.006261184345930815
1761370699287376400,6.08537646484375,-0.0012216945178806782,0.014125842601060867,-0.00015271181473508477
1761370699305987000,6.103987060546875,-0.007941014133393764,0.009239064529538155,0.011529741808772087
1761370699324599600,6.122599609375,-0.014660334214568138,0.009849912486970425,0.015805672854185104
1761370699343210200,6.141210205078125,-0.010995250195264816,0.014125842601060867,0.011529741808772087
1761370699361822700,6.15982275390625,-0.008551862090826035,0.009239064529538155,0.010308047756552696
1761370699380433700,6.17843359375,-0.011606098152697086,-0.0011453386396169662,0.0035887276753783226
1761370699399046000,6.1970458984375,-0.012216945178806782,-0.0017561858985573053,-0.0032069480512291193
1761370699417656800,6.21565673828125,-0.01038440316915512,-0.0029778804164379835,0.0035887276753783226
1761370699436269000,6.23426904296875,-0.010995250195264816,-0.0029778804164379835,0.0035887276753783226
1761370699454880000,6.2528798828125,-0.016492875292897224,-0.008475505746901035,-0.0038177953101694584
1761370699473492200,6.2714921875,-0.01710372418165207,-0.017027366906404495,-0.015423892997205257
1761370699492103200,6.290103271484375,-0.007330167107284069,-0.0231358390301466,-0.03008422814309597
1761370699510715400,6.30871533203125,0.006108472589403391,-0.022524992004036903,-0.03558185324072838
1761370699529326300,6.327326416015625,0.012827792204916477,-0.0164165198802948,-0.04352286830544472
1761370699547938800,6.345938720703125,0.021990500390529633,-0.008475505746901035,-0.03497100621461868
1761370699566549500,6.364549560546875,0.017714571207761765,-0.0011453386396169662,-0.031916771084070206
1761370699585162000,6.383161865234375,0.006719320081174374,-0.02008160389959812,-0.04230117425322533
1761370699603772700,6.401772705078125,-0.006719320081174374,-0.02680092304944992,-0.055739812552928925
1761370699622385200,6.42038525390625,-0.014049487188458443,-0.0231358390301466,-0.06368082761764526
1761370699640996000,6.43899609375,-0.014660334214568138,-0.023746687918901443,-0.05512896552681923
1761370699659608300,6.4576083984375,-0.02076880633831024,-0.0164165198802948,-0.016034740954637527
1761370699678219300,6.47621923828125,-0.029320668429136276,0.0037414394319057465,0.0017561858985573053
1761370699696831500,6.49483154296875,-0.029320668429136276,0.005573981441557407,0.010918894782662392
1761370699715442400,6.5134423828125,-0.021990500390529633,-0.011529741808772087,0.01885990984737873
1761370699734054700,6.5320546875,-0.012216945178806782,-0.023746687918901443,0.021914144977927208
1761370699752665600,6.55066552734375,-0.007941014133393764,-0.00908635277301073,0.006032116711139679
1761370699771278000,6.569278076171875,-0.0012216945178806782,-0.005421269219368696,-0.012369656935334206
1761370699789888800,6.587888671875,-0.004275931045413017,-0.022524992004036903,-0.014202198944985867
1761370699808501200,6.606501220703125,-0.014660334214568138,-0.02802261710166931,-0.0068720318377017975
1761370699827112000,6.62511181640625,-0.018936265259981155,-0.015805672854185104,-0.001985253533348441
1761370699845724400,6.643724365234375,-0.016492875292897224,-0.014583977870643139,-0.004428642801940441
1761370699864335000,6.662335205078125,-0.014049487188458443,-0.019470756873488426,-0.02092151902616024
1761370699882947600,6.680947509765625,-0.013438640162348747,-0.013973130844533443,-0.02641914412379265
1761370699901558500,6.69955859375,-0.007330167107284069,-0.012140588834881783,-0.027029991149902344
1761370699920170800,6.718170654296875,-0.004886778071522713,-0.015194825828075409,-0.025197450071573257
1761370699938781700,6.73678173828125,-0.013438640162348747,-0.013362283818423748,-0.016034740954637527
1761370699957394000,6.755393798828125,-0.017714571207761765,-0.007253811229020357,-0.006261184345930815
1761370699976004900,6.7740048828125,-0.016492875292897224,-0.015805672854185104,-0.008093725889921188
1761370699994617000,6.7926171875,-0.007941014133393764,-0.03962871432304382,-0.020310672000050545
1761370700013228000,6.81122802734375,0.0012216945178806782,-0.05123481526970863,-0.03008422814309597
1761370700031840500,6.829840576171875,0.0036650835536420345,-0.027411770075559616,-0.04169032722711563
1761370700050451200,6.848451171875,0.026877280324697495,-0.0005344913806766272,-0.03558185324072838
1761370700069063700,6.867063720703125,0.045202698558568954,-0.005421269219368696,-0.02641914412379265
1761370700087674400,6.88567431640625,0.04092676565051079,-0.007253811229020357,-0.022754060104489326
1761370700106286800,6.904286865234375,0.028098974376916885,0.004352286923676729,-0.01725643500685692
1761370700124897500,6.9228974609375,0.009773556143045425,0.004352286923676729,-0.014202198944985867
1761370700143510000,6.941510009765625,-0.004275931045413017,0.000687203137204051,-0.02092151902616024
1761370700162121000,6.960120849609375,-0.012827792204916477,-0.0029778804164379835,-0.031916771084070206
1761370700180733200,6.978733154296875,-0.010995250195264816,-0.008475505746901035,-0.023364907130599022
1761370700199344000,6.99734423828125,-0.007330167107284069,-0.015805672854185104,-0.020310672000050545
1761370700217956400,7.015956298828125,-0.014049487188458443,-0.006032116711139679,-0.017867282032966614
1761370700236567300,7.0345673828125,-0.01588202826678753,0.0037414394319057465,-0.01847812905907631
1761370700255179500,7.053179443359375,-0.012216945178806782,-0.0029778804164379835,-0.012369656935334206
1761370700273790500,7.07179052734375,-0.014049487188458443,-0.00786465872079134,-0.00015271181473508477
1761370700292403000,7.09040283203125,-0.013438640162348747,-0.013362283818423748,0.0011453386396169662
1761370700311013600,7.109013671875,-0.014660334214568138,-0.010308047756552696,0.006032116711139679
1761370700329626000,7.127626220703125,-0.014660334214568138,-0.006642963737249374,0.021914144977927208
1761370700348236800,7.14623681640625,-0.016492875292897224,0.00129805039614439,0.030466007068753242
1761370700366849300,7.164849365234375,-0.008551862090826035,0.006184828467667103,0.007253811229020357
1761370700385460200,7.183460205078125,0.008551862090826035,-0.011529741808772087,-0.017867282032966614
1761370700404072400,7.202072509765625,0.01588202826678753,-0.031076854094862938,-0.025197450071573257
1761370700422683400,7.220683349609375,0.014049487188458443,-0.03229855000972748,-0.014813045971095562
1761370700441295600,7.239295654296875,0.004886778071522713,-0.02680092304944992,-0.0007635590736754239
1761370700459906600,7.257906494140625,-0.0006108472589403391,-0.018249060958623886,0.019470756873488426
1761370700478518800,7.276518798828125,-0.00916270911693573,-0.014583977870643139,0.02924431301653385
1761370700497129700,7.295129638671875,-0.0018325417768210173,-0.015805672854185104,0.021303297951817513
1761370700515742200,7.3137421875,0.016492875292897224,-0.008475505746901035,0.017027366906404495
1761370700534353000,7.332352783203125,0.018936265259981155,0.0031305921729654074,0.010918894782662392
1761370700552965400,7.35096533203125,0.00916270911693573,-0.005421269219368696,-0.0038177953101694584
1761370700571576000,7.369576171875,-0.0030542362947016954,-0.0035887276753783226,-0.0007635590736754239
1761370700590188500,7.3881884765625,0.0024433890357613564,0.009239064529538155,0.013362283818423748
1761370700608799500,7.406799560546875,0.010995250195264816,0.012293301522731781,0.012140588834881783
1761370700627411700,7.42541162109375,0.015271181240677834,0.009849912486970425,-0.007482878863811493
1761370700646022700,7.444022705078125,0.013438640162348747,0.0067956759594380856,-0.012369656935334206
1761370700664635000,7.462634765625,0.017714571207761765,0.01046075951308012,0.004810422193259001
1761370700683245800,7.481245849609375,0.01954711228609085,0.024510245770215988,0.008475505746901035
1761370700701858000,7.499858154296875,0.011606098152697086,0.024510245770215988,-0.00015271181473508477
1761370700720469000,7.518468994140625,0.012216945178806782,0.012293301522731781,-0.01175880990922451
1761370700739081500,7.53708154296875,0.015271181240677834,0.015958385542035103,-0.011147962883114815
1761370700757692200,7.555692138671875,0.024433890357613564,0.012904148548841476,-0.001985253533348441
1761370700776304600,7.5743046875,0.020157959312200546,0.004352286923676729,-0.00259610079228878
1761370700794915300,7.592915283203125,0.013438640162348747,-0.006642963737249374,-0.001374406274408102
1761370700813527800,7.61152783203125,0.012827792204916477,-0.009697199799120426,0.007253811229020357
1761370700832138500,7.630138427734375,0.01038440316915512,-0.0029778804164379835,0.0023670331574976444
1761370700850751000,7.6487509765625,0.006108472589403391,-0.006642963737249374,-0.012369656935334206
1761370700869362000,7.66736181640625,0.0036650835536420345,-0.013973130844533443,-0.011147962883114815
1761370700887974100,7.68597412109375,0.004275931045413017,-0.004810422193259001,-0.001374406274408102
1761370700906585000,7.704585205078125,0.010995250195264816,-0.0011453386396169662,-0.0007635590736754239
1761370700925197300,7.723197265625,0.009773556143045425,0.00862821750342846,0.0029778804164379835
1761370700943808300,7.741808349609375,0.004275931045413017,0.011071606539189816,0.014583977870643139
1761370700962420700,7.760420654296875,-0.005497625097632408,0.022066857665777206,0.03290939703583717
1761370700981031400,7.779031494140625,-0.0036650835536420345,0.014736690558493137,0.023746687918901443
1761370700999644000,7.797643798828125,0.0036650835536420345,0.00129805039614439,0.0035887276753783226
1761370701018254600,7.816254638671875,0.007941014133393764,-0.019470756873488426,-0.020310672000050545
1761370701036867000,7.8348671875,0,-0.026190076023340225,-0.038636088371276855
1761370701055477800,7.853477783203125,-0.01710372418165207,-0.010918894782662392,-0.02764083817601204
1761370701074090200,7.87209033203125,-0.025655584409832954,-0.008475505746901035,-0.001374406274408102
1761370701092701200,7.890701171875,-0.030542362481355667,-0.0231358390301466,0.010308047756552696
1761370701111313400,7.9093134765625,-0.02504473738372326,-0.019470756873488426,0.008475505746901035
1761370701129924400,7.92792431640625,-0.006719320081174374,-0.006032116711139679,-0.001985253533348441
1761370701148536600,7.94653662109375,0.004886778071522713,0.0019088976550847292,-0.021532366052269936
1761370701167147500,7.9651474609375,0.0018325417768210173,0.000687203137204051,-0.019088976085186005
1761370701185759700,7.983759765625,-0.006719320081174374,-0.0005344913806766272,0.004199574701488018
1761370701204370700,8.00237060546875,-0.0036650835536420345,0.007406522985547781,0.01885990984737873
1761370701222983200,8.020983154296875,0.006108472589403391,0.015347537584602833,0.012140588834881783
1761370701241593900,8.03959375,0.012827792204916477,0.012904148548841476,0.004199574701488018
1761370701260206300,8.058206298828125,0.012216945178806782,0.01779092662036419,-0.001985253533348441
1761370701278817000,8.076817138671874,0.005497625097632408,0.023899398744106293,0.0029778804164379835
1761370701297429500,8.095429443359375,-0.0030542362947016954,0.028786176815629005,0.014583977870643139
1761370701316040200,8.114040283203124,-0.004886778071522713,0.026342788711190224,0.02008160389959812
1761370701334652700,8.132652587890625,-0.004275931045413017,0.020845163613557816,0.00786465872079134
1761370701353263600,8.151263671875,-0.0030542362947016954,0.00862821750342846,-0.007482878863811493
1761370701371875800,8.169875732421875,-0.0030542362947016954,-0.0029778804164379835,0.0011453386396169662
1761370701390486800,8.18848681640625,-0.011606098152697086,0.00129805039614439,0.0164165198802948
1761370701409099000,8.20709912109375,-0.01588202826678753,0.008017370477318764,0.01885990984737873
1761370701427710000,8.2257099609375,-0.007330167107284069,0.0293970238417387,0.010918894782662392
1761370701446322400,8.244322509765626,-0.0018325417768210173,0.031229566782712936,-0.010537114925682545
1761370701464933000,8.26293310546875,-0.005497625097632408,0.01779092662036419,-0.019088976085186005
1761370701483545600,8.281545654296876,-0.015271181240677834,-0.0029778804164379835,-0.011147962883114815
1761370701502156300,8.30015625,-0.01954711228609085,-0.0035887276753783226,0.014583977870643139
1761370701520768800,8.318768798828126,-0.013438640162348747,0.004963133949786425,0.020692450925707817
1761370701539379500,8.33737939453125,-0.005497625097632408,0.00129805039614439,0.005421269219368696
1761370701557992000,8.355991943359374,0.0018325417768210173,0.008017370477318764,0.006642963737249374
1761370701576603000,8.374602783203125,0.0036650835536420345,0.011682453565299511,0.010918894782662392
1761370701595215000,8.393215087890624,0.006108472589403391,0.006184828467667103,0.010308047756552696
1761370701613826000,8.411825927734375,0.006108472589403391,-0.00908635277301073,0.009697199799120426
1761370701632438300,8.430438232421874,0.007941014133393764,-0.018249060958623886,-0.00259610079228878
1761370701651049200,8.44904931640625,0.0012216945178806782,-0.021303297951817513,-0.014813045971095562
1761370701669661400,8.467661376953124,-0.01588202826678753,-0.0231358390301466,-0.008093725889921188
1761370701688272400,8.4862724609375,-0.02748812735080719,-0.02008160389959812,0.00786465872079134
1761370701706884900,8.504884765625,-0.021990500390529633,-0.006642963737249374,0.02557922899723053
1761370701725495600,8.52349560546875,-0.015271181240677834,-0.0011453386396169662,0.03168770298361778
1761370701744108000,8.54210791015625,-0.010995250195264816,-0.004810422193259001,0.0231358390301466
1761370701762719000,8.560718994140625,0.0006108472589403391,0.00007635590736754239,0.004199574701488018
1761370701781331200,8.579331298828125,0.004275931045413017,0.00007635590736754239,-0.008704573847353458
1761370701799942100,8.597942138671876,0,-0.0011453386396169662,-0.00015271181473508477
1761370701818554400,8.616554443359375,-0.0024433890357613564,0.0019088976550847292,0.007253811229020357
1761370701837165300,8.635165283203126,-0.0012216945178806782,-0.0011453386396169662,0.013362283818423748
1761370701855777500,8.653777587890625,0.0024433890357613564,0.00129805039614439,0.0164165198802948
1761370701874388500,8.672388427734376,0,-0.012751436792314053,0.015194825828075409
1761370701893000700,8.691000732421875,-0.0036650835536420345,-0.013362283818423748,0.014583977870643139
1761370701911611600,8.709611572265626,0,-0.0017561858985573053,0.00908635277301073
1761370701930224000,8.72822412109375,0.006108472589403391,0.012293301522731781,-0.00015271181473508477
1761370701948834800,8.746834716796876,0.007330167107284069,0.00862821750342846,-0.015423892997205257
1761370701967447300,8.765447265625,0.004886778071522713,0.0019088976550847292,-0.014813045971095562
1761370701986058000,8.78405810546875,0.00916270911693573,0.004352286923676729,-0.0032069480512291193
1761370702004670500,8.80267041015625,0.013438640162348747,0.015347537584602833,0.0017561858985573053
1761370702023281400,8.821281494140624,0.014660334214568138,0.00862821750342846,-0.001985253533348441
1761370702041893600,8.8398935546875,0.009773556143045425,-0.0005344913806766272,0.0035887276753783226
1761370702060504600,8.858504638671874,0.006719320081174374,0.00129805039614439,0.026190076023340225
1761370702079116800,8.87711669921875,0.006108472589403391,0.008017370477318764,0.021303297951817513
1761370702097727700,8.895727783203125,0.0012216945178806782,0.009849912486970425,-0.001374406274408102
1761370702116340000,8.914340087890626,-0.0012216945178806782,0.009239064529538155,-0.014202198944985867
1761370702134951000,8.932950927734375,-0.006108472589403391,0.01779092662036419,-0.01847812905907631
1761370702153563400,8.9515634765625,-0.01588202826678753,0.028786176815629005,-0.022754060104489326
1761370702172174000,8.970174072265625,-0.012827792204916477,0.004963133949786425,-0.00992626789957285
1761370702190786600,8.98878662109375,-0.009773556143045425,0.009239064529538155,0.0011453386396169662
1761370702209397200,9.007397216796875,0.0018325417768210173,0.014125842601060867,0.010918894782662392
1761370702228009700,9.026009765625,0.007941014133393764,0.00129805039614439,0.01763821393251419
1761370702246620400,9.044620361328125,0.016492875292897224,-0.011529741808772087,0.006642963737249374
1761370702265233000,9.06323291015625,0.02076880633831024,-0.034131091088056564,-0.00015271181473508477
1761370702283843800,9.08184375,0.014049487188458443,-0.03779617324471474,0.0023670331574976444
1761370702302456000,9.1004560546875,0.0006108472589403391,-0.0231358390301466,0.008475505746901035
1761370702321067000,9.11906689453125,-0.01038440316915512,-0.009697199799120426,0.0029778804164379835
1761370702339679200,9.13767919921875,-0.010995250195264816,-0.0029778804164379835,-0.0007635590736754239
1761370702358290200,9.156290283203125,-0.00916270911693573,0.000687203137204051,-0.0050394898280501366
1761370702376902400,9.17490234375,-0.0018325417768210173,0.0025197449140250683,-0.01175880990922451
1761370702395513300,9.193513427734375,0.004886778071522713,0.0067956759594380856,-0.019088976085186005
1761370702414125600,9.21212548828125,0.0024433890357613564,0.005573981441557407,-0.01725643500685692
1761370702432736500,9.230736572265625,-0.004275931045413017,-0.0035887276753783226,-0.00015271181473508477
1761370702451349000,9.249348876953125,-0.00916270911693573,0.00007635590736754239,0.013362283818423748
1761370702469959700,9.267959716796875,-0.009773556143045425,0.0037414394319057465,0.013362283818423748
1761370702488572200,9.286572265625,-0.012827792204916477,0.005573981441557407,0.004810422193259001
1761370702507182800,9.305182861328126,-0.006108472589403391,0.008017370477318764,-0.001374406274408102
1761370702525795300,9.32379541015625,0.0030542362947016954,0.009239064529538155,-0.012980503961443901
1761370702544406000,9.342406005859376,0.007941014133393764,0.009849912486970425,-0.024586603045463562
1761370702563018500,9.3610185546875,0,0.013514995574951172,-0.014202198944985867
1761370702581629400,9.37962939453125,-0.009773556143045425,0.023288551717996597,0.008475505746901035
1761370702600241700,9.39824169921875,-0.004275931045413017,0.04527905210852623,0.029855160042643547
1761370702618852600,9.4168525390625,0.007941014133393764,0.05993938818573952,0.03901786729693413
1761370702637464800,9.43546484375,0.006108472589403391,0.058717694133520126,0.03901786729693413
1761370702656075800,9.45407568359375,0.0006108472589403391,0.04405735805630684,0.0426829531788826
1761370702674688000,9.47268798828125,-0.0012216945178806782,0.028786176815629005,0.04085041210055351
1761370702693299000,9.491298828125,-0.004275931045413017,0.03489464893937111,0.03229855000972748
1761370702711911400,9.509911376953125,-0.0030542362947016954,0.037948887795209885,0.009697199799120426
1761370702730522000,9.528522216796874,-0.0006108472589403391,0.030007870867848396,-0.014813045971095562
1761370702749134600,9.547134521484375,-0.0012216945178806782,0.015958385542035103,-0.01969982497394085
1761370702767745300,9.565745361328124,0.0006108472589403391,0.013514995574951172,-0.005650337319821119
1761370702786357800,9.584357666015626,0.004886778071522713,0.014125842601060867,-0.00015271181473508477
1761370702804968700,9.60296875,0.015271181240677834,0.013514995574951172,0.004810422193259001
1761370702823581000,9.621580810546876,0.02626643143594265,0.015347537584602833,0.0005344913806766272
1761370702842192000,9.64019189453125,0.030542362481355667,0.011071606539189816,-0.00015271181473508477
1761370702860804000,9.65880419921875,0.023212196305394173,0.000687203137204051,0.009697199799120426
1761370702879415000,9.6774150390625,0.01588202826678753,0.011682453565299511,0.024968381971120834
1761370702898027300,9.69602734375,0.011606098152697086,0.015958385542035103,0.0231358390301466
1761370702916638200,9.71463818359375,0.010995250195264816,0.019623467698693275,0.00786465872079134
1761370702935250700,9.733250732421874,0.015271181240677834,0.025731941685080528,0.0005344913806766272
1761370702953861400,9.751861328125,0.022601349279284477,0.020845163613557816,-0.008093725889921188
1761370702972473900,9.770473876953124,0.02626643143594265,0.0067956759594380856,-0.014202198944985867
1761370702991084500,9.78908447265625,0.023212196305394173,-0.0029778804164379835,-0.016645587980747223
1761370703009697000,9.807697021484374,0.010995250195264816,-0.005421269219368696,-0.019088976085186005
1761370703028307700,9.8263076171875,-0.004275931045413017,-0.0017561858985573053,-0.019088976085186005
1761370703046920200,9.844920166015624,-0.00916270911693573,0.0031305921729654074,-0.014813045971095562
1761370703065531000,9.86353076171875,-0.007941014133393764,-0.006032116711139679,-0.013591351918876171
1761370703084143400,9.882143310546875,0.0024433890357613564,-0.006642963737249374,-0.016645587980747223
1761370703102754300,9.90075439453125,0.011606098152697086,-0.013973130844533443,-0.014202198944985867
1761370703121366500,9.919366455078125,0.011606098152697086,-0.023746687918901443,-0.0050394898280501366
1761370703139977500,9.9379775390625,0.0024433890357613564,-0.02680092304944992,0.007253811229020357
1761370703158589700,9.956589599609375,-0.006108472589403391,-0.01763821393251419,0.021914144977927208
1761370703177200600,9.97520068359375,-0.006108472589403391,-0.0029778804164379835,0.021914144977927208
1761370703195812900,9.993812744140625,0,0.004963133949786425,0.00908635277301073
1761370703214423800,10.012423828125,0.005497625097632408,-0.011529741808772087,-0.01175880990922451
1761370703233036300,10.031036376953125,0.004886778071522713,-0.027411770075559616,-0.019088976085186005
1761370703251647000,10.04964697265625,0.004886778071522713,-0.03168770298361778,-0.013591351918876171
1761370703270259500,10.068259521484375,0.006719320081174374,-0.024968381971120834,-0.012980503961443901
1761370703288870100,10.0868701171875,0.008551862090826035,-0.0231358390301466,-0.016034740954637527
1761370703307482600,10.105482666015625,0.010995250195264816,-0.028633465990424156,-0.016645587980747223
1761370703326093300,10.12409326171875,0.014049487188458443,-0.02924431301653385,-0.017867282032966614
1761370703344705800,10.142705810546875,0.014049487188458443,-0.031076854094862938,-0.021532366052269936
1761370703363316700,10.161316650390624,0.015271181240677834,-0.03718532621860504,-0.022754060104489326
1761370703381929000,10.179928955078125,0.01832541823387146,-0.03840702027082443,-0.023364907130599022
1761370703400540000,10.198539794921874,0.010995250195264816,-0.02008160389959812,-0.023975754156708717
1761370703419152100,10.217152099609375,0.006108472589403391,0.00129805039614439,-0.02641914412379265
1761370703437763000,10.23576318359375,-0.004886778071522713,0.013514995574951172,-0.017867282032966614
1761370703456375600,10.25437548828125,-0.007941014133393764,0.01779092662036419,-0.01175880990922451
1761370703474986200,10.272986328125,-0.008551862090826035,0.018401773646473885,-0.02214321307837963
1761370703493598700,10.2915986328125,-0.014049487188458443,0.022066857665777206,-0.03130592033267021
1761370703512209400,10.31020947265625,-0.02748812735080719,0.0165692325681448,-0.0325276181101799
1761370703530822000,10.32882177734375,-0.01710372418165207,-0.0017561858985573053,-0.01725643500685692
1761370703549432800,10.347432861328125,-0.01954711228609085,-0.00908635277301073,0.004810422193259001
1761370703568045000,10.366045166015626,-0.018936265259981155,-0.02435753494501114,0.011529741808772087
1761370703586656000,10.384656005859375,-0.026877280324697495,-0.008475505746901035,0.008475505746901035
1761370703605268200,10.403268310546874,-0.018936265259981155,-0.012140588834881783,0.012140588834881783
1761370703623879200,10.421879150390625,-0.01588202826678753,-0.02680092304944992,-0.0007635590736754239
1761370703642491400,10.440491455078124,-0.012216945178806782,-0.017027366906404495,-0.019088976085186005
1761370703661102300,10.459102294921875,-0.01038440316915512,-0.004810422193259001,-0.03008422814309597
1761370703679714800,10.47771484375,0.0024433890357613564,-0.0023670331574976444,-0.03374931216239929
1761370703698325500,10.496325439453125,0.012216945178806782,-0.013362283818423748,-0.03436015918850899
1761370703716938000,10.51493798828125,0.015271181240677834,-0.013362283818423748,-0.021532366052269936
1761370703735549000,10.533548828125,0.014660334214568138,0.0031305921729654074,-0.01725643500685692
1761370703754161200,10.5521611328125,0.0036650835536420345,0.01046075951308012,-0.023364907130599022
1761370703772772000,10.570772216796875,-0.0030542362947016954,0.012293301522731781,-0.02641914412379265
1761370703791384300,10.58938427734375,0.0006108472589403391,0.012293301522731781,-0.020310672000050545
1761370703809995300,10.607995361328125,0,0.012904148548841476,-0.014813045971095562
1761370703828607500,10.626607421875,-0.0012216945178806782,0.0031305921729654074,-0.025197450071573257
1761370703847218400,10.645218505859376,-0.0018325417768210173,0.00007635590736754239,-0.025197450071573257
1761370703865830700,10.66383056640625,0.004886778071522713,0.005573981441557407,-0.0331384651362896
1761370703884441600,10.682441650390626,0.01954711228609085,0.0025197449140250683,-0.0587940476834774
1761370703903054000,10.70105419921875,0.02748812735080719,-0.015194825828075409,-0.06978929787874222
1761370703921664800,10.719664794921876,0.007330167107284069,-0.007253811229020357,-0.017867282032966614
1761370703940277200,10.73827734375,-0.006719320081174374,-0.009697199799120426,0.027411770075559616
1761370703958888200,10.75688818359375,-0.02076880633831024,-0.009697199799120426,0.04023956134915352
1761370703977500400,10.77550048828125,-0.028098974376916885,-0.006642963737249374,0.029855160042643547
1761370703996111400,10.794111328125,-0.02626643143594265,-0.007253811229020357,0.012751436792314053
1761370704014723600,10.8127236328125,-0.01832541823387146,-0.013362283818423748,0.005421269219368696
1761370704033334500,10.83133447265625,-0.0012216945178806782,-0.012751436792314053,-0.011147962883114815
1761370704051946800,10.84994677734375,0.017714571207761765,-0.0023670331574976444,-0.01175880990922451
1761370704070557700,10.8685576171875,0.021990500390529633,-0.02557922899723053,-0.01175880990922451
1761370704089170200,10.887170166015625,0.01588202826678753,-0.010308047756552696,-0.023364907130599022
1761370704107780900,10.90578076171875,-0.004886778071522713,0.015347537584602833,-0.03924693539738655
1761370704126393300,10.924393310546876,-0.011606098152697086,0.03061871975660324,-0.04107947647571564
1761370704145004000,10.943004150390625,-0.01710372418165207,0.025731941685080528,-0.009315420873463154
1761370704163616500,10.961616455078126,-0.022601349279284477,0.01046075951308012,0.008475505746901035
1761370704182227500,10.9802275390625,-0.023212196305394173,0.00007635590736754239,-0.013591351918876171
