time,seconds_elapsed,z,y,x
1761371132317205800,0.102205810546875,0,0,0
1761371132335818500,0.120818603515625,-0.02828693389892578,-0.05470895767211914,0.1730998456478119
1761371132354429400,0.139429443359375,0.15062904357910156,-0.2357485294342041,0.27238357067108154
1761371132373042200,0.158042236328125,0.4121818542480469,-0.23693108558654785,0.2887765169143677
1761371132391653000,0.176653076171875,0.6917238235473633,-0.09651732444763184,0.06792032718658447
1761371132410265900,0.195265869140625,1.0359373092651367,0.1078643798828125,-0.08861535787582397
1761371132428876800,0.213876708984375,1.2942848205566406,0.2615852355957031,-0.062046051025390625
1761371132447489500,0.232489501953125,1.2750024795532227,0.3565840721130371,-0.0847586989402771
1761371132466100500,0.2511005859375,1.1602811813354492,0.44966721534729004,-0.23225069046020508
1761371132484713200,0.269713134765625,0.8794870376586914,0.5511891841888428,-0.4171640872955322
1761371132503324200,0.28832421875,0.7952518463134766,0.8005225658416748,-0.706331193447113
1761371132521937000,0.30693701171875,0.628056526184082,0.689410924911499,-0.9664629697799683
1761371132540547800,0.3255478515625,0.5807514190673828,0.6230230331420898,-1.0928008556365967
1761371132559160600,0.34416064453125,0.3184175491333008,0.5885930061340332,-1.2105488777160645
1761371132577771500,0.362771484375,-0.13008880615234375,0.2683417797088623,-1.2477471828460693
1761371132596384000,0.381384033203125,-0.5077743530273438,0.08536314964294434,-1.2192461490631104
1761371132614995200,0.3999951171875,-0.533574104309082,0.25093603134155273,-1.4236457347869873
1761371132633607700,0.418607666015625,-0.5231437683105469,0.4203798770904541,-1.479628324508667
1761371132652219000,0.437218994140625,-0.8090105056762695,0.547260046005249,-1.066940426826477
1761371132670831400,0.455831298828125,-0.9845724105834961,0.37421083450317383,-1.2243003845214844
1761371132689442600,0.474442626953125,-1.0390052795410156,0.2862389087677002,-1.4215686321258545
1761371132708055000,0.493054931640625,-0.7635116577148438,0.1963040828704834,-1.674328088760376
1761371132726666200,0.511666259765625,0.04689788818359375,0.16943097114562988,-1.5477471351623535
1761371132745278700,0.53027880859375,1.3168859481811523,0.06918597221374512,-1.4731333255767822
1761371132763890000,0.548889892578125,0.8047571182250977,-0.19144821166992188,-0.9251940250396729
1761371132782502400,0.56750244140625,0.6119318008422852,-0.050775766372680664,-0.3617243766784668
1761371132801113600,0.586113525390625,1.4205436706542969,-0.007130861282348633,-0.7629241943359375
1761371132819726000,0.60472607421875,1.6611452102661133,-0.25761914253234863,-0.8872458934783936
1761371132838337300,0.623337158203125,0.6449556350708008,-0.5771591663360596,-0.4844324588775635
1761371132856949800,0.64194970703125,-0.3158760070800781,-0.5319185256958008,-0.4904296398162842
1761371132875560700,0.660560791015625,-1.1141242980957031,-0.17337679862976074,-0.7022781372070312
1761371132894173400,0.67917333984375,-1.721658706665039,0.32027626037597656,-0.9235310554504395
1761371132912784400,0.697784423828125,-1.0920114517211914,0.44588756561279297,-0.7835376262664795
1761371132931397000,0.716397216796875,-0.003864288330078125,-0.8150649070739746,0.5099458694458008
1761371132950008000,0.735008056640625,0.25681400299072266,-1.728266954421997,0.7846474647521973
1761371132968620800,0.753620849609375,0.09502696990966797,-2.2561862468719482,0.6637754440307617
1761371132987231700,0.772231689453125,-0.3222780227661133,-2.3859968185424805,0.36687493324279785
1761371133005844500,0.790844482421875,-0.7401218414306641,-2.214322805404663,-0.08989477157592773
1761371133024455400,0.809455322265625,-1.223245620727539,-2.3146092891693115,0.11547589302062988
1761371133043068200,0.828068115234375,-1.63065767288208,-1.8299908638000488,-0.3804903030395508
1761371133061679000,0.84667919921875,-1.465357780456543,-1.4248042106628418,-0.7460765838623047
1761371133080291800,0.865291748046875,-0.9890036582946777,-1.4724738597869873,-0.44677734375
1761371133098902800,0.88390283203125,-0.5295124053955078,-1.4011852741241455,-0.28447866439819336
1761371133117515500,0.902515625,-0.19452619552612305,-1.3994166851043701,-0.2629117965698242
1761371133136126500,0.92112646484375,-0.060718536376953125,-1.169447898864746,-0.2739908695220947
1761371133154739200,0.9397392578125,-0.08432483673095703,-1.1405396461486816,-0.009418249130249023
1761371133173350100,0.95835009765625,-0.25260257720947266,-1.179666519165039,0.16526508331298828
1761371133191963000,0.976962890625,-0.34282684326171875,-1.14093017578125,0.08324599266052246
1761371133210573800,0.99557373046875,-0.4077029228210449,-1.1027369499206543,0.12315559387207031
1761371133229186600,1.0141865234375,-0.7162261009216309,-1.2100348472595215,0.23728513717651367
1761371133247797500,1.032797607421875,-0.8932933807373047,-0.9597787857055664,0.2915170192718506
1761371133266410200,1.05141015625,-1.0891838073730469,-0.8739662170410156,0.3680107593536377
1761371133285021200,1.070021240234375,-1.0245952606201172,-0.6003890037536621,0.27567386627197266
1761371133312939800,1.097939697265625,-0.7100601196289062,-0.29251623153686523,0.08439135551452637
1761371133331550700,1.11655078125,-0.4168968200683594,-0.19466209411621094,-0.09491419792175293
1761371133350163500,1.13516357421875,-0.2035689353942871,-0.05439043045043945,-0.027593374252319336
1761371133368774400,1.1537744140625,0.03934669494628906,-0.12525272369384766,0.019299983978271484
1761371133387387100,1.17238720703125,0.2802572250366211,-0.06131553649902344,-0.043898820877075195
1761371133405998000,1.190998046875,0.47431182861328125,0.02278614044189453,-0.1406095027923584
1761371133424610800,1.20961083984375,0.799830436706543,0.1367325782775879,-0.1350409984588623
1761371133443221800,1.2282216796875,0.873260498046875,-0.02391815185546875,-0.09741067886352539
1761371133461834500,1.24683447265625,0.8698644638061523,-0.14400911331176758,-0.2299811840057373
1761371133480445400,1.265445556640625,0.8361883163452148,-0.058802127838134766,-0.4712696075439453
1761371133499058200,1.28405810546875,0.7924747467041016,0.05634641647338867,-0.5529918670654297
1761371133517669000,1.302669189453125,0.8136091232299805,0.05180215835571289,-0.47158169746398926
1761371133536281900,1.32128173828125,0.9472894668579102,0.029430866241455078,-0.4463624954223633
1761371133554892800,1.339892822265625,1.0944747924804688,-0.01753377914428711,-0.38203883171081543
1761371133573505500,1.358505615234375,1.2455406188964844,-0.09693479537963867,-0.2394850254058838
1761371133592116700,1.37711669921875,1.3208446502685547,-0.20942902565002441,-0.0685265064239502
1761371133610729200,1.395729248046875,1.194859504699707,-0.4024546146392822,0.11129212379455566
1761371133629340400,1.41434033203125,0.9988384246826172,-0.4562404155731201,0.12897968292236328
1761371133647953000,1.432952880859375,0.7986211776733398,-0.4198579788208008,0.12929821014404297
1761371133666563800,1.451563720703125,0.7223110198974609,-0.36510372161865234,0.23641562461853027
1761371133685176600,1.470176513671875,0.7702255249023438,-0.4715549945831299,0.5437459945678711
1761371133703787800,1.488787841796875,0.9304513931274414,-0.7935564517974854,0.7365648746490479
1761371133722400300,1.507400146484375,1.041757583618164,-1.0483105182647705,0.728745698928833
1761371133741011500,1.526011474609375,0.8742332458496094,-1.1237752437591553,0.890143871307373
1761371133759624000,1.5446240234375,0.26540374755859375,-1.0243337154388428,1.1162309646606445
1761371133778235100,1.563235107421875,-0.31907176971435547,-0.5504043102264404,0.9835605621337891
1761371133796847600,1.58184765625,-0.6691217422485352,-0.10565400123596191,0.871558427810669
1761371133815458800,1.600458740234375,-0.7847046852111816,-0.057381629943847656,1.0549468994140625
1761371133834071300,1.6190712890625,-0.5199918746948242,-0.22365641593933105,1.1913535594940186
1761371133852682500,1.6376826171875,-0.19083881378173828,-0.44466209411621094,1.2619049549102783
1761371133871295000,1.656294921875,-0.1300191879272461,-0.7287101745605469,1.3744254112243652
1761371133889906200,1.67490625,-0.3795890808105469,-0.9024109840393066,1.2338860034942627
1761371133908518700,1.6935185546875,-0.772587776184082,-0.7701742649078369,0.7358002662658691
1761371133927129900,1.7121298828125,-1.1469759941101074,-0.5307645797729492,0.2830531597137451
1761371133945742300,1.730742431640625,-1.2833657264709473,-0.2414534091949463,0.02094101905822754
1761371133964353500,1.749353515625,-1.1224265098571777,-0.007173061370849609,0.01194453239440918
1761371133982966000,1.767966064453125,-0.8170866966247559,0.09338092803955078,0.1889028549194336
1761371134001577200,1.7865771484375,-0.4964742660522461,0.18723654747009277,0.2688119411468506
1761371134020189700,1.805189697265625,-0.3184366226196289,0.2208235263824463,0.2037811279296875
1761371134038801000,1.82380078125,-0.15428733825683594,0.25502753257751465,-0.03188633918762207
1761371134057413400,1.842413330078125,-0.014019966125488281,0.17076754570007324,-0.19747614860534668
1761371134076024600,1.861024658203125,0.20368194580078125,0.037683725357055664,-0.24468755722045898
1761371134094637000,1.879636962890625,0.2960939407348633,-0.06081533432006836,-0.3142354488372803
1761371134113248300,1.898248291015625,0.33834362030029297,-0.08664417266845703,-0.42636871337890625
1761371134131860700,1.91686083984375,0.2674674987792969,-0.13286709785461426,-0.6025195121765137
1761371134150472000,1.935471923828125,0.2136087417602539,-0.08944988250732422,-0.8023195266723633
1761371134169084400,1.95408447265625,0.15137863159179688,0.04860281944274902,-1.0011096000671387
1761371134187695600,1.972695556640625,0.2979698181152344,0.32869958877563477,-0.9151639938354492
1761371134206308000,1.99130810546875,0.4596891403198242,0.33354806900024414,-0.7730879783630371
1761371134224919300,2.009919189453125,0.7988777160644531,0.25302863121032715,-0.571723461151123
1761371134243531800,2.02853173828125,1.1052312850952148,-0.06924676895141602,-0.3953123092651367
1761371134262143000,2.04714306640625,1.1525230407714844,-0.4111003875732422,-0.38370275497436523
1761371134280755500,2.06575537109375,1.0270776748657227,-0.6144788265228271,-0.3863368034362793
1761371134299366700,2.08436669921875,0.6076908111572266,-0.6149301528930664,-0.412367582321167
1761371134317979400,2.1029794921875,0.15581893920898438,-0.4472334384918213,-0.4874715805053711
1761371134336590300,2.12159033203125,0.05779838562011719,-0.3382737636566162,-0.3992476463317871
1761371134355202800,2.140202880859375,0.23865985870361328,-0.5014207363128662,-0.01692676544189453
1761371134373814000,2.15881396484375,0.24823379516601562,-0.8522214889526367,0.4190483093261719
1761371134392426500,2.177426513671875,-0.07488632202148438,-1.0598080158233643,0.49987268447875977
1761371134411037700,2.19603759765625,-0.6708693504333496,-1.049614667892456,0.3725130558013916
1761371134429650400,2.214650390625,-1.3954591751098633,-0.9615600109100342,0.1972510814666748
1761371134448261400,2.233261474609375,-1.8890900611877441,-0.7637560367584229,-0.0992734432220459
1761371134466874000,2.2518740234375,-1.9963374137878418,-0.4875967502593994,-0.4387075901031494
1761371134485485000,2.270485107421875,-1.5856590270996094,-0.307741641998291,-0.4841654300689697
1761371134504097800,2.289097900390625,-0.8403139114379883,-0.2744326591491699,-0.05776238441467285
1761371134522708700,2.307708740234375,-0.07966232299804688,-0.4575815200805664,0.13090753555297852
1761371134541321500,2.326321533203125,0.4456348419189453,-0.6208162307739258,0.11960887908935547
1761371134559932400,2.344932373046875,0.6231746673583984,-0.8135523796081543,0.031230449676513672
1761371134578545200,2.363545166015625,0.5791969299316406,-0.8105053901672363,-0.30585217475891113
1761371134597156000,2.382156005859375,0.40462207794189453,-0.685173749923706,-0.5758740901947021
1761371134615768800,2.400768798828125,0.25794219970703125,-0.5215778350830078,-0.5662708282470703
1761371134634379800,2.4193798828125,0.2825460433959961,-0.33378171920776367,-0.26645565032958984
1761371134652992500,2.437992431640625,0.40095043182373047,-0.18655776977539062,0.08459281921386719
1761371134671603500,2.456603515625,0.36888980865478516,-0.1431267261505127,0.35468220710754395
1761371134690216200,2.47521630859375,0.1017141342163086,-0.12561345100402832,0.4173598289489746
1761371134708827100,2.4938271484375,-0.17725849151611328,-0.03571367263793945,0.20105957984924316
1761371134727440000,2.51243994140625,-0.28302860260009766,0.07729554176330566,0.030620574951171875
1761371134746050800,2.53105078125,-0.11779594421386719,0.17860794067382812,-0.08077383041381836
1761371134764663600,2.54966357421875,0.29152488708496094,0.1564474105834961,-0.02326679229736328
1761371134783274500,2.5682744140625,0.7789087295532227,0.022463321685791016,0.12055110931396484
1761371134801887200,2.58688720703125,1.1401433944702148,-0.03266501426696777,0.17105722427368164
1761371134820498200,2.605498291015625,1.1990966796875,-0.09125232696533203,0.1486504077911377
1761371134839111000,2.62411083984375,1.0633106231689453,-0.1178598403930664,0.18111968040466309
1761371134857721900,2.642721923828125,0.8349123001098633,-0.14907264709472656,0.20934343338012695
1761371134876334600,2.66133447265625,0.6775999069213867,-0.23250985145568848,0.2036428451538086
1761371134894945800,2.67994580078125,0.5444822311401367,-0.3597850799560547,0.1613001823425293
1761371134913558300,2.698558349609375,0.4442319869995117,-0.5284957885742188,0.16945528984069824
1761371134932169500,2.71716943359375,0.3922767639160156,-0.6994693279266357,0.13878440856933594
1761371134950782000,2.735781982421875,0.4220752716064453,-0.8969707489013672,0.0892643928527832
1761371134969393000,2.754392822265625,0.4385690689086914,-1.072371244430542,0.14585280418395996
1761371134988005600,2.773005615234375,0.22329425811767578,-1.1897706985473633,0.20698857307434082
1761371135006616800,2.791616943359375,-0.24776172637939453,-1.1825029850006104,0.19832277297973633
1761371135025229300,2.810229248046875,-0.6561980247497559,-0.9725892543792725,0.08790016174316406
1761371135043840500,2.828840576171875,-0.7310943603515625,-0.757068395614624,0.04345893859863281
1761371135062453000,2.847452880859375,-0.4016990661621094,-0.6948113441467285,0.2982821464538574
1761371135081064200,2.866064208984375,0.10833930969238281,-0.5221695899963379,0.645054817199707
1761371135099676700,2.8846767578125,0.5222368240356445,-0.2964024543762207,1.0602977275848389
1761371135118288000,2.903287841796875,0.6434011459350586,-0.1979990005493164,1.5442161560058594
1761371135136900400,2.921900390625,0.5840053558349609,-0.11050796508789062,1.6584997177124023
1761371135155511600,2.940511474609375,0.3276538848876953,0.0011286735534667969,1.4401483535766602
1761371135174124000,2.9591240234375,-0.19746685028076172,0.15491247177124023,0.9769067764282227
1761371135192735200,2.9777353515625,-0.7245211601257324,0.39325642585754395,0.6039266586303711
1761371135211347700,2.99634765625,-0.9153833389282227,0.6590290069580078,0.4185636043548584
1761371135229959000,3.014958984375,-0.6513652801513672,0.827888011932373,0.3745605945587158
1761371135248571400,3.0335712890625,-0.09392738342285156,0.8844311237335205,0.3225698471069336
1761371135267182600,3.0521826171875,0.4014759063720703,0.796494722366333,0.21036243438720703
1761371135285795000,3.070795166015625,0.6109390258789062,0.7091555595397949,0.13936233520507812
1761371135304406300,3.08940625,0.4313936233520508,0.4735593795776367,0.04256415367126465
1761371135323018800,3.108018798828125,0.30318260192871094,0.49465179443359375,-0.27878689765930176
1761371135341630000,3.1266298828125,0.4070100784301758,0.4718778133392334,-0.5570621490478516
1761371135360242400,3.145242431640625,0.7393884658813477,0.4570889472961426,-0.6744136810302734
1761371135378853600,3.163853515625,1.0847320556640625,0.41881799697875977,-0.7348852157592773
1761371135397466000,3.182466064453125,1.1119976043701172,0.43942737579345703,-0.7834465503692627
1761371135416077300,3.201077392578125,0.8822956085205078,0.6488938331604004,-0.8436236381530762
1761371135434689800,3.219689697265625,0.8458118438720703,1.0060081481933594,-0.7881176471710205
1761371135453301000,3.238301025390625,0.9348182678222656,1.0109739303588867,-0.3105287551879883
1761371135471913500,3.25691357421875,0.7339859008789062,0.18420934677124023,0.9543403387069702
1761371135490524700,3.275524658203125,0.12032413482666016,-0.8225674629211426,1.4108633995056152
1761371135509137400,3.294137451171875,-0.15169239044189453,-0.8935437202453613,1.2661900520324707
1761371135527748400,3.312748291015625,-0.28206920623779297,-1.1882851123809814,0.7322883605957031
1761371135546360800,3.33136083984375,-0.31701183319091797,-1.5250849723815918,0.2065725326538086
1761371135564972000,3.349971923828125,-0.6507253646850586,-1.6536839008331299,-0.3338344097137451
1761371135583584500,3.36858447265625,-0.9976458549499512,-1.387195110321045,-0.6692767143249512
1761371135602195700,3.38719580078125,-1.0963149070739746,-0.9498410224914551,-0.738452672958374
1761371135620808400,3.405808349609375,-0.7518815994262695,-0.6621971130371094,-0.850731611251831
1761371135639419400,3.42441943359375,-0.24333810806274414,-0.6940293312072754,-0.7787306308746338
1761371135658032000,3.4430322265625,-0.010209083557128906,-0.6584973335266113,-0.7285079956054688
1761371135676643000,3.46164306640625,-0.16654682159423828,-0.41779327392578125,-0.6843767166137695
1761371135695255800,3.480255859375,-0.2866697311401367,-0.12520647048950195,-0.682044506072998
1761371135713866800,3.49886669921875,0.1190958023071289,-0.14948129653930664,-0.5307166576385498
1761371135732479500,3.5174794921875,0.9480266571044922,-0.5292892456054688,-0.30789971351623535
1761371135751090400,3.53609033203125,1.7347097396850586,-1.0730078220367432,-0.02446913719177246
1761371135769703200,3.554703125,1.7816495895385742,-1.6574277877807617,0.21497035026550293
1761371135788314000,3.573314208984375,1.0734052658081055,-1.9641451835632324,0.17557811737060547
1761371135806926800,3.5919267578125,0.032120704650878906,-1.8210797309875488,-0.31760525703430176
1761371135825537800,3.610537841796875,-0.8558864593505859,-1.6526052951812744,-0.5034472942352295
1761371135844150500,3.629150634765625,-1.1555500030517578,-1.3866462707519531,-0.5840482711791992
1761371135862761500,3.647761474609375,-0.9056510925292969,-1.1912569999694824,-0.5076806545257568
1761371135881374200,3.666374267578125,-0.4284677505493164,-1.1105313301086426,-0.17306923866271973
1761371135899985200,3.684985107421875,0.0914602279663086,-0.8781843185424805,0.03683590888977051
1761371135918598000,3.703597900390625,0.32070159912109375,-0.7483599185943604,0.37780046463012695
1761371135937208800,3.722208740234375,0.16445255279541016,-0.7164807319641113,0.9883216619491577
1761371135955821600,3.740821533203125,0.005274772644042969,-0.49086761474609375,1.2639728784561157
1761371135974432500,3.7594326171875,0.07030010223388672,-0.2624235153198242,1.3119384050369263
1761371135993045200,3.778045166015625,0.29569053649902344,-0.2852311134338379,1.4011427164077759
1761371136011656200,3.79665625,0.45542049407958984,-0.42329978942871094,1.3913300037384033
1761371136030269000,3.81526904296875,0.24372291564941406,-0.6182279586791992,1.3493528366088867
1761371136048879900,3.8338798828125,-0.22674083709716797,-0.5956175327301025,1.0687997341156006
1761371136067492600,3.85249267578125,-0.6526284217834473,-0.4675016403198242,0.6372020244598389
1761371136086103600,3.871103515625,-0.6049327850341797,-0.2992415428161621,0.13498902320861816
1761371136104716300,3.88971630859375,-0.20782756805419922,-0.19393110275268555,-0.14943718910217285
1761371136123327200,3.9083271484375,0.2810478210449219,-0.16364574432373047,-0.1895890235900879
1761371136141940000,3.92693994140625,0.7890081405639648,-0.18878507614135742,-0.20750832557678223
1761371136160551000,3.945551025390625,1.367715835571289,-0.379361629486084,-0.05398869514465332
1761371136179163600,3.96416357421875,1.8632831573486328,-0.7124719619750977,0.060787200927734375
1761371136197774600,3.982774658203125,1.930506706237793,-0.9574441909790039,-0.032530784606933594
1761371136216387300,4.00138720703125,1.399566650390625,-0.9561178684234619,-0.3739922046661377
1761371136234998300,4.019998291015625,0.5518760681152344,-0.6529037952423096,-0.8898780345916748
1761371136253611000,4.038611083984375,0.012277603149414062,-0.10428929328918457,-1.3535022735595703
1761371136272222000,4.057221923828125,-0.061695098876953125,0.250255823135376,-1.3716096878051758
1761371136290834700,4.075834716796875,0.6206521987915039,0.20306015014648438,-0.9743690490722656
1761371136309445600,4.094445556640625,1.791036605834961,-0.043747663497924805,-0.8036565780639648
1761371136328058400,4.113058349609375,2.947127342224121,-0.45327019691467285,-0.6260631084442139
1761371136346669300,4.13166943359375,3.2665748596191406,-0.899899959564209,-0.4018430709838867
1761371136365282000,4.150281982421875,2.5558815002441406,-1.1348345279693604,-0.4248535633087158
1761371136383893000,4.16889306640625,1.3996467590332031,-0.9347500801086426,-0.6794447898864746
1761371136402505700,4.187505615234375,0.41478443145751953,-0.7031035423278809,-0.646660566329956
1761371136421116700,4.20611669921875,-0.08137226104736328,-0.47963476181030273,-0.37085580825805664
1761371136439729400,4.2247294921875,-0.3177309036254883,-0.3711419105529785,0.09245967864990234
1761371136458340400,4.24334033203125,-0.46490001678466797,-0.21768546104431152,0.5327043533325195
1761371136476953000,4.261953125,-0.6174640655517578,-0.08701753616333008,0.6851248741149902
1761371136495564300,4.280564208984375,-0.5628175735473633,-0.004344463348388672,0.5752042531967163
1761371136514176800,4.2991767578125,-0.3156614303588867,-0.046022891998291016,0.3825087547302246
1761371136532787700,4.31778759765625,0.026368141174316406,-0.16895246505737305,0.3136937618255615
1761371136551400400,4.336400390625,0.3577442169189453,-0.3157668113708496,0.46527600288391113
1761371136570011400,4.355011474609375,0.7390108108520508,-0.4338951110839844,0.6885677576065063
1761371136588624100,4.3736240234375,0.9876279830932617,-0.638885498046875,0.8468228578567505
1761371136607235000,4.392235107421875,0.9234161376953125,-0.8484086990356445,0.8848576545715332
1761371136625847800,4.410847900390625,0.5926218032836914,-0.8717222213745117,0.6662559509277344
1761371136644458800,4.429458740234375,0.2753152847290039,-0.8330388069152832,0.36307263374328613
1761371136663071500,4.448071533203125,-0.0051631927490234375,-0.7672452926635742,0.28355860710144043
1761371136681682400,4.466682373046875,-0.06283378601074219,-0.6758408546447754,0.2993127107620239
1761371136700295200,4.485295166015625,0.13941478729248047,-0.6897439956665039,0.411504864692688
1761371136718906000,4.503906005859375,0.30449581146240234,-0.8426413536071777,0.670609712600708
1761371136737518800,4.522518798828125,0.1248922348022461,-1.098149299621582,0.8511943817138672
1761371136756129800,4.5411298828125,-0.4687209129333496,-1.2917370796203613,0.7603652477264404
1761371136774742500,4.559742431640625,-0.9571475982666016,-1.2990729808807373,0.49115312099456787
1761371136793353500,4.578353515625,-1.2828025817871094,-1.1190638542175293,0.11919069290161133
1761371136811966200,4.59696630859375,-1.503908634185791,-0.8466558456420898,-0.23844575881958008
1761371136830577200,4.6155771484375,-1.4027509689331055,-0.4619436264038086,-0.6224420070648193
1761371136849190000,4.63418994140625,-0.9724059104919434,-0.18291997909545898,-0.7004508972167969
1761371136867800800,4.65280078125,-0.4550895690917969,-0.11470174789428711,-0.42807888984680176
1761371136886413600,4.67141357421875,-0.14153194427490234,-0.17876434326171875,0.008409976959228516
1761371136905024500,4.6900244140625,-0.018476486206054688,-0.3986964225769043,0.4300137758255005
1761371136923637200,4.70863720703125,0.04142284393310547,-0.5094194412231445,0.5185263156890869
1761371136942248200,4.727248291015625,-0.06804084777832031,-0.6180815696716309,0.43739283084869385
1761371136960861000,4.74586083984375,-0.39708423614501953,-0.5908212661743164,0.2213897705078125
1761371136979472000,4.764471923828125,-0.8969030380249023,-0.39129638671875,-0.037999629974365234
1761371136998084600,4.783084716796875,-1.2958111763000488,-0.06419134140014648,-0.2541358470916748
1761371137016695600,4.801695556640625,-1.2796611785888672,0.29149580001831055,-0.34979963302612305
1761371137035308300,4.820308349609375,-0.9126033782958984,0.5674519538879395,-0.32286715507507324
1761371137053919200,4.838919189453125,-0.5430135726928711,0.735846996307373,-0.12729549407958984
1761371137072532000,4.857531982421875,-0.32648372650146484,0.9174637794494629,0.0776667594909668
1761371137091143000,4.876142822265625,-0.08803272247314453,1.115910530090332,0.14624691009521484
1761371137109755600,4.894755615234375,0.45034217834472656,1.176027536392212,0.1746886968612671
1761371137128366600,4.91336669921875,1.2174348831176758,1.1640198230743408,0.036638855934143066
1761371137146979300,4.931979248046875,1.8440790176391602,0.8414032459259033,0.02080976963043213
1761371137165590300,4.95059033203125,1.9714641571044922,0.2873218059539795,0.10552418231964111
1761371137184203000,4.969203125,1.4309425354003906,-0.07630276679992676,-0.14085984230041504
1761371137202814000,4.98781396484375,0.6086997985839844,-0.10960888862609863,-0.6827646493911743
1761371137221426400,5.006426513671875,-0.16413021087646484,0.02752375602722168,-0.9609776735305786
1761371137240037600,5.02503759765625,-0.7961149215698242,0.13162684440612793,-0.8948174715042114
1761371137258650400,5.043650390625,-1.08709716796875,0.18703269958496094,-0.7400087118148804
1761371137277261300,5.06226123046875,-1.2293310165405273,0.16906332969665527,-0.6103250980377197
1761371137295873800,5.080873779296875,-1.274057388305664,0.22983813285827637,-0.6971893310546875
1761371137314485000,5.099485107421875,-1.1368012428283691,0.26542234420776367,-0.793683648109436
1761371137333097500,5.118097412109375,-0.7480325698852539,0.09048271179199219,-0.7593547105789185
1761371137351708700,5.136708740234375,-0.23671436309814453,-0.3315153121948242,-0.6949787139892578
1761371137370321200,5.155321044921875,0.21494483947753906,-0.7513465881347656,-0.8397902250289917
1761371137388932400,5.173932373046875,0.6473712921142578,-0.9379818439483643,-1.1651318073272705
1761371137407544800,5.192544921875,0.7703161239624023,-0.8762507438659668,-1.1727021932601929
1761371137426156000,5.211156005859375,0.2040729522705078,-0.6508557796478271,-1.0907248258590698
1761371137444768500,5.2297685546875,-0.3819541931152344,-0.15823149681091309,-1.1722978353500366
1761371137463379700,5.248379638671875,-0.48173046112060547,0.29320645332336426,-1.2706905603408813
1761371137481992200,5.2669921875,-0.00018787384033203125,0.5309522151947021,-1.0431246757507324
1761371137500603400,5.285603271484375,0.9734115600585938,0.5868065357208252,-0.4959009885787964
1761371137519215900,5.3042158203125,2.111116409301758,0.5859823226928711,0.09174180030822754
1761371137537827000,5.3228271484375,2.8997879028320312,0.3936648368835449,0.5837165713310242
1761371137556439600,5.341439453125,2.903219223022461,0.26175785064697266,0.8026227951049805
1761371137575050800,5.36005078125,2.193833351135254,0.334669828414917,0.7309534549713135
1761371137593663200,5.378663330078125,1.0132360458374023,0.5350415706634521,0.47684240341186523
1761371137612274400,5.3972744140625,-0.11518478393554688,0.6910629272460938,0.284932017326355
1761371137630887000,5.415886962890625,-0.8844137191772461,0.7694361209869385,0.31595003604888916
1761371137649498000,5.434498046875,-1.2221603393554688,0.7126588821411133,0.49301838874816895
1761371137668110600,5.453110595703125,-1.152571678161621,0.6005527973175049,0.675444483757019
1761371137686721800,5.4717216796875,-0.9787702560424805,0.43171024322509766,0.8304796814918518
1761371137705334300,5.490334228515625,-0.719390869140625,0.2893543243408203,0.820867657661438
1761371137723945500,5.508945556640625,-0.4105100631713867,0.06345748901367188,0.7393285632133484
1761371137742558000,5.527557861328125,-0.09121417999267578,-0.13276958465576172,0.6838508248329163
1761371137761169000,5.5461689453125,0.18659305572509766,-0.29479408264160156,0.6625192761421204
1761371137779781600,5.56478173828125,0.34870052337646484,-0.39287781715393066,0.7708125114440918
1761371137798392600,5.583392578125,0.4113903045654297,-0.3929579257965088,0.9466789960861206
1761371137817005300,5.60200537109375,0.26903533935546875,-0.3039531707763672,1.1200401782989502
1761371137835616300,5.6206162109375,0.0674734115600586,-0.16581439971923828,1.2792563438415527
1761371137854229000,5.63922900390625,-0.30173397064208984,-0.08591938018798828,1.3913723230361938
1761371137872840000,5.65783984375,-0.7333059310913086,-0.0906529426574707,1.4536439180374146
1761371137891452700,5.67645263671875,-0.9407377243041992,-0.36734533309936523,1.2242677211761475
1761371137910063600,5.695063720703125,-0.9294257164001465,-0.25040149688720703,1.2904409170150757
1761371137928676400,5.71367626953125,-1.0918641090393066,-0.549201488494873,1.5883350372314453
1761371137947287300,5.732287353515625,-1.0356669425964355,-0.7323050498962402,1.7994877099990845
1761371137965900000,5.750900146484375,-0.7095623016357422,-0.6549420356750488,1.617540717124939
1761371137984511000,5.769510986328125,-0.040266990661621094,-0.6840829849243164,1.2777223587036133
1761371138003123700,5.788123779296875,0.5238761901855469,-0.9197402000427246,0.8899521827697754
1761371138021734700,5.806734619140625,0.8094625473022461,-0.9086885452270508,0.4259999990463257
1761371138040347400,5.825347412109375,0.7000188827514648,-0.6234853267669678,0.01572096347808838
1761371138058958300,5.843958251953125,0.5789422988891602,-0.10515975952148438,-0.23534739017486572
1761371138077570800,5.86257080078125,0.5602560043334961,0.2613511085510254,-0.2884845733642578
1761371138096182000,5.88118212890625,0.7495088577270508,0.3165469169616699,-0.10057687759399414
1761371138114794500,5.89979443359375,1.0148429870605469,0.18834781646728516,-0.0863959789276123
1761371138133405700,5.91840576171875,0.9387445449829102,-0.0899662971496582,-0.1285921335220337
1761371138152018200,5.93701806640625,0.5179224014282227,-0.35608625411987305,-0.1710904836654663
1761371138170629400,5.95562939453125,-0.05180072784423828,-0.40474462509155273,-0.3846012353897095
1761371138189241900,5.974241943359375,-0.5710659027099609,-0.346174955368042,-0.508591890335083
1761371138207853000,5.99285302734375,-0.8919191360473633,-0.22412848472595215,-0.5470508337020874
1761371138226465500,6.011465576171875,-0.9246463775634766,-0.08964014053344727,-0.6672991514205933
1761371138245076700,6.03007666015625,-0.7280616760253906,-0.01812744140625,-0.8032128810882568
1761371138263689200,6.048689208984375,-0.4546041488647461,-0.025098800659179688,-0.9253095388412476
1761371138282300400,6.067300537109375,-0.10352230072021484,0.024273395538330078,-1.1115353107452393
1761371138300913000,6.085912841796875,0.19895172119140625,0.09893989562988281,-1.2905969619750977
1761371138319523800,6.10452392578125,0.39711856842041016,0.23740291595458984,-1.3460683822631836
1761371138338136600,6.123136474609375,0.5116090774536133,0.4116096496582031,-1.1520060300827026
1761371138356747500,6.14174755859375,0.5192880630493164,0.46605396270751953,-0.8533473014831543
1761371138375360300,6.1603603515625,0.5293512344360352,0.39763402938842773,-0.6872134208679199
1761371138393971200,6.17897119140625,0.4934673309326172,0.23510217666625977,-0.6617616415023804
1761371138412584000,6.197583984375,0.4886503219604492,0.11297416687011719,-0.694388747215271
1761371138431195000,6.21619482421875,0.42076778411865234,0.00861501693725586,-0.573736310005188
1761371138449807600,6.2348076171875,0.13682842254638672,-0.02258777618408203,-0.34852659702301025
1761371138468418600,6.25341845703125,-0.3901653289794922,-0.051043033599853516,-0.3441842794418335
1761371138487031300,6.27203125,-0.8443069458007812,-0.13698434829711914,-0.5383683443069458
1761371138505642200,6.290642333984375,-1.0958118438720703,-0.21491336822509766,-0.7734620571136475
1761371138524254700,6.309254638671875,-1.1834831237792969,-0.1614360809326172,-0.967369794845581
1761371138542866000,6.327865966796875,-1.383687973022461,-0.07909297943115234,-1.1654889583587646
1761371138561478400,6.346478515625,-1.405226707458496,-0.01323080062866211,-1.1756153106689453
1761371138580089600,6.365089599609375,-0.9833507537841797,-0.05029439926147461,-0.813234806060791
1761371138598702000,6.3837021484375,-0.2328653335571289,-0.2341454029083252,-0.3848147392272949
1761371138617313300,6.402313232421875,0.6895856857299805,-0.469482421875,-0.16594552993774414
1761371138635925800,6.42092578125,1.2226371765136719,-0.6862258911132812,0.05045592784881592
1761371138654537000,6.439536865234375,1.0168447494506836,-0.7941102981567383,0.14163661003112793
1761371138673149400,6.4581494140625,0.20051956176757812,-0.5218009948730469,-0.22293591499328613
1761371138691760600,6.4767607421875,-0.4851560592651367,-0.18169641494750977,-0.6632941961288452
1761371138710373000,6.495373046875,-0.44840431213378906,0.09301137924194336,-0.8773024082183838
1761371138728984000,6.513984130859375,0.1391429901123047,0.12862372398376465,-0.41192686557769775
1761371138747596800,6.5325966796875,0.648381233215332,0.2846102714538574,0.22035813331604004
1761371138766207700,6.551207763671875,0.7449169158935547,0.5020542144775391,0.7716348767280579
1761371138784820500,6.569820556640625,0.49353885650634766,0.6149008274078369,1.1074856519699097
1761371138803431400,6.588431396484375,0.0022830963134765625,0.7715864181518555,1.0618679523468018
1761371138822044200,6.607044189453125,-0.7244014739990234,0.9716897010803223,0.8083212375640869
1761371138840655000,6.625655029296875,-1.380244255065918,1.1549420356750488,0.6268182396888733
1761371138859267600,6.644267578125,-1.6432323455810547,1.3557214736938477,0.5664464831352234
1761371138877878800,6.662878662109375,-1.3295507431030273,1.3949394226074219,0.6670483946800232
1761371138896491500,6.681491455078125,-0.6454172134399414,1.211315631866455,0.91270911693573
1761371138915102500,6.7001025390625,0.03266620635986328,1.0293059349060059,1.0429915189743042
1761371138933715000,6.71871484375,0.4764566421508789,0.8712620735168457,1.1801639795303345
1761371138952326100,6.737326171875,0.700160026550293,0.7547259330749512,1.3167685270309448
1761371138970938600,6.755938720703125,0.8890018463134766,0.6336212158203125,1.3129013776779175
1761371138989549800,6.7745498046875,1.0237598419189453,0.5763487815856934,1.1727995872497559
1761371139008162300,6.793162353515625,0.9089431762695312,0.4416346549987793,1.1260812282562256
1761371139026773500,6.8117734375,0.5682029724121094,0.3632650375366211,1.109073281288147
1761371139045386000,6.830385986328125,0.24257564544677734,0.3788423538208008,1.1421818733215332
1761371139063997200,6.8489970703125,-0.02281665802001953,0.34978485107421875,1.2699164152145386
1761371139082609700,6.867609619140625,-0.11516761779785156,0.29689836502075195,1.2798080444335938
1761371139101220600,6.886220703125,-0.2555379867553711,0.19959211349487305,1.2320067882537842
1761371139119833300,6.904833251953125,-0.5058860778808594,0.03973674774169922,1.1295678615570068
1761371139138444300,6.9234443359375,-0.7456569671630859,-0.08139753341674805,0.9624706506729126
1761371139157057000,6.94205712890625,-0.8946652412414551,-0.20102405548095703,0.7387863993644714
1761371139175668000,6.96066796875,-1.0016827583312988,-0.234649658203125,0.4936763048171997
1761371139194280400,6.979280517578125,-0.8324465751647949,-0.07582712173461914,0.2234419584274292
1761371139212891600,6.9978916015625,-0.04239463806152344,-0.07526636123657227,0.029135823249816895
1761371139231504400,7.01650439453125,1.2476844787597656,-0.49027490615844727,0.0660390853881836
1761371139250115300,7.035115234375,2.0196399688720703,-0.9785351753234863,0.166642427444458
1761371139268727800,7.053727783203125,1.6051092147827148,-1.4671978950500488,0.27948665618896484
1761371139287339000,7.072339111328125,0.36716461181640625,-1.3620665073394775,-0.01659417152404785
1761371139305951500,7.090951416015625,-0.8501901626586914,-0.6783280372619629,-0.6454355716705322
1761371139324562700,7.109562744140625,-1.4882030487060547,-0.10346412658691406,-0.910297155380249
1761371139343175200,7.128175048828125,-1.207148551940918,0.09770965576171875,-0.5993753671646118
1761371139361786400,7.146786376953125,-0.22119617462158203,-0.032892704010009766,-0.02360665798187256
1761371139380398800,7.16539892578125,0.3484153747558594,-0.380734920501709,0.5081996917724609
1761371139399010000,7.184010009765625,0.14562511444091797,-0.5624151229858398,0.46876949071884155
1761371139417622500,7.20262255859375,-0.5730886459350586,-0.3983173370361328,-0.16740131378173828
1761371139436233500,7.2212333984375,-1.2148618698120117,-0.2000141143798828,-0.780192494392395
1761371139454846200,7.23984619140625,-1.408705234527588,0.013211727142333984,-0.9604265689849854
1761371139473457200,7.25845703125,-0.9804115295410156,0.09399223327636719,-0.7358615398406982
1761371139492070000,7.27706982421875,0.14011287689208984,-0.02789783477783203,-0.5050408840179443
1761371139510680800,7.295680908203125,1.205409049987793,-0.4886631965637207,-0.32608306407928467
1761371139529293600,7.31429345703125,1.9301910400390625,-1.0995409488677979,-0.236464262008667
1761371139547904500,7.332904541015625,1.9422683715820312,-1.4252238273620605,-0.4329836368560791
1761371139566517200,7.351517333984375,1.3692493438720703,-1.3190014362335205,-0.8248802423477173
1761371139585128200,7.370128173828125,0.4475593566894531,-1.0835413932800293,-1.0308817625045776
1761371139603740700,7.38874072265625,-0.37270069122314453,-0.8408067226409912,-0.980219841003418
1761371139622352000,7.407351806640625,-0.8398847579956055,-0.5207111835479736,-0.7382327318191528
1761371139640964400,7.42596435546875,-1.0141773223876953,-0.22490930557250977,-0.3846259117126465
1761371139659575600,7.444575439453125,-0.9985408782958984,0.07362127304077148,-0.25177621841430664
1761371139678188000,7.46318798828125,-0.8726024627685547,0.26107263565063477,-0.3464632034301758
1761371139696799200,7.48179931640625,-0.6191740036010742,0.3005814552307129,-0.5602861642837524
1761371139715411700,7.50041162109375,-0.2683219909667969,0.2548027038574219,-0.6898882389068604
1761371139734023000,7.51902294921875,0.2071695327758789,0.2259516716003418,-0.7550028562545776
1761371139752635400,7.537635498046875,0.6974363327026367,0.16452527046203613,-0.7644757032394409
1761371139771246300,7.556246337890625,0.9230785369873047,0.09563517570495605,-0.8205816745758057
1761371139789859000,7.574859130859375,0.8059043884277344,0.0668191909790039,-0.9826102256774902
1761371139808470000,7.593469970703125,0.49622535705566406,0.09965324401855469,-1.1052087545394897
1761371139827082800,7.612082763671875,0.21494483947753906,0.14326977729797363,-1.1835298538208008
1761371139845693700,7.630693603515625,0.1192312240600586,0.1410679817199707,-1.1572741270065308
1761371139864306400,7.649306396484375,-0.0644693374633789,0.2764556407928467,-1.0165824890136719
1761371139882917400,7.66791748046875,-0.5205974578857422,0.4491710662841797,-0.6959546804428101
1761371139901530000,7.686530029296875,-0.9420938491821289,0.4869420528411865,-0.35927820205688477
1761371139920141000,7.70514111328125,-0.867213249206543,0.32880258560180664,-0.04533720016479492
1761371139938753800,7.72375390625,-0.07177925109863281,0.17081570625305176,0.06375551223754883
1761371139957364700,7.74236474609375,0.7757968902587891,-0.028581857681274414,0.2631816864013672
1761371139975977200,7.760977294921875,1.0005483627319336,-0.20177149772644043,0.49190711975097656
1761371139994588400,7.77958837890625,0.5620651245117188,-0.18019533157348633,0.5132787227630615
1761371140013201000,7.798200927734375,-0.19377422332763672,0.09853601455688477,0.2731431722640991
1761371140031812000,7.81681201171875,-0.7111425399780273,0.3656430244445801,0.15111279487609863
1761371140050424600,7.835424560546875,-0.7642755508422852,0.5895280838012695,-0.035774827003479004
1761371140069035800,7.854035888671875,-0.2470235824584961,0.624739408493042,-0.2971363067626953
1761371140087648300,7.872648193359375,0.6796350479125977,0.4840734004974365,-0.3748197555541992
1761371140106259500,7.891259521484375,1.6766490936279297,0.4618825912475586,-0.3047912120819092
1761371140124872000,7.909871826171875,2.331012725830078,0.4298512935638428,-0.0022603273391723633
1761371140143483100,7.928483154296875,2.2701339721679688,0.3634176254272461,0.4850846529006958
1761371140162095600,7.947095703125,1.5320758819580078,0.40792059898376465,0.8079645037651062
1761371140180706800,7.965706787109375,0.44593048095703125,0.5314528942108154,0.7263269424438477
1761371140199319300,7.9843193359375,-0.5668659210205078,0.653146505355835,0.5994069576263428
1761371140217930200,8.00293017578125,-1.3770370483398438,0.7465815544128418,0.5216941833496094
1761371140236543000,8.02154296875,-1.8810710906982422,0.8655672073364258,0.40416502952575684
1761371140255154000,8.04015380859375,-1.9613275527954102,0.981497049331665,0.2706623077392578
1761371140273766700,8.0587666015625,-1.640192985534668,1.0206615924835205,0.17088639736175537
1761371140292377600,8.077377685546875,-1.0373096466064453,0.8939123153686523,0.21952533721923828
1761371140310990300,8.095990234375,-0.5122880935668945,0.7244088649749756,0.2539405822753906
1761371140329601300,8.114601318359375,-0.05567455291748047,0.5950784683227539,0.22112369537353516
1761371140348214000,8.133214111328124,0.3462228775024414,0.4751710891723633,0.20691347122192383
1761371140366825000,8.151824951171875,0.6323070526123047,0.38106226921081543,0.345339298248291
1761371140385437700,8.170437744140624,0.7439823150634766,0.24936175346374512,0.6580233573913574
1761371140404048600,8.189048583984375,0.6018266677856445,0.18140029907226562,1.0003471374511719
1761371140422661000,8.2076611328125,0.26505374908447266,0.07384181022644043,1.0623023509979248
1761371140441272300,8.226272216796875,-0.12876224517822266,-0.05597567558288574,1.0239505767822266
1761371140459884800,8.244884765625,-0.4063596725463867,-0.15627002716064453,1.0388412475585938
1761371140478496000,8.26349609375,-0.7259578704833984,-0.19804787635803223,0.9330118894577026
1761371140497108500,8.2821083984375,-1.0883922576904297,-0.22941231727600098,0.9084210395812988
1761371140515719700,8.3007197265625,-1.2750773429870605,-0.09252238273620605,0.903488278388977
1761371140534332200,8.319332275390625,-1.3345203399658203,-0.02149200439453125,0.9365030527114868
1761371140552943400,8.337943359375,-1.2429404258728027,-0.028418540954589844,0.917519211769104
1761371140571555800,8.356555908203125,-1.0782995223999023,-0.09828495979309082,0.8324062824249268
1761371140590167000,8.3751669921875,-0.593562126159668,-0.2705845832824707,0.8211963176727295
1761371140608779500,8.393779541015626,-0.1089029312133789,-0.38375020027160645,0.6937292814254761
1761371140627390700,8.412390625,0.14739322662353516,-0.2904212474822998,0.3651546239852905
1761371140646003200,8.431003173828126,0.03938865661621094,-0.010217666625976562,-0.00017499923706054688
1761371140664614100,8.4496142578125,-0.19878005981445312,0.25049281120300293,-0.223313570022583
1761371140683227000,8.468226806640626,-0.12494659423828125,0.46668529510498047,-0.19047856330871582
1761371140701837800,8.486837890625,0.2861175537109375,0.48267197608947754,-0.019751548767089844
1761371140720450600,8.505450439453124,0.8114356994628906,0.41263389587402344,-0.03420829772949219
1761371140739061500,8.5240615234375,1.156294822692871,0.23282623291015625,-0.18047237396240234
1761371140757674200,8.54267431640625,1.0054292678833008,0.03290700912475586,-0.3485703468322754
1761371140776285200,8.56128515625,0.5125417709350586,-0.06128120422363281,-0.6236361265182495
1761371140794898000,8.57989794921875,0.13457489013671875,-0.048058509826660156,-0.9110203981399536
1761371140813508900,8.5985087890625,0.11723613739013672,-0.051111459732055664,-1.0684210062026978
1761371140832121600,8.61712158203125,0.29819202423095703,-0.03892922401428223,-0.9529606103897095
1761371140850732500,8.635732666015626,0.2943534851074219,-0.05374741554260254,-0.7971570491790771
1761371140869345000,8.654344970703125,0.167999267578125,-0.061995506286621094,-0.7864853143692017
1761371140887956200,8.672956298828124,0.17572784423828125,-0.08577919006347656,-0.8103206157684326
1761371140906568700,8.691568603515625,0.31470680236816406,-0.05780315399169922,-0.9096956253051758
1761371140925180000,8.710179931640624,0.3777618408203125,0.09363770484924316,-0.9217591285705566
1761371140943792400,8.72879248046875,0.4490642547607422,0.2534518241882324,-0.6999537944793701
1761371140962403600,8.747403564453125,0.6437158584594727,0.30590319633483887,-0.4309347867965698
1761371140981016000,8.76601611328125,0.8919486999511719,0.2151181697845459,-0.2327580451965332
1761371140999627300,8.784627197265625,0.9810934066772461,0.059052228927612305,-0.16868412494659424
1761371141018239700,8.80323974609375,0.6892776489257812,-0.19521093368530273,-0.12489867210388184
1761371141036851000,8.821850830078125,0.08599853515625,-0.3076043128967285,-0.3194164037704468
1761371141055463400,8.84046337890625,-0.5075340270996094,-0.35331296920776367,-0.3559647798538208
1761371141074074400,8.859074462890625,-0.8464784622192383,-0.37082672119140625,-0.31585001945495605
1761371141092687000,8.87768701171875,-1.077641487121582,-0.3643763065338135,-0.4637129306793213
1761371141111298000,8.896298095703125,-1.2586474418640137,-0.17414140701293945,-0.8031054735183716
1761371141129910800,8.914910888671875,-1.2506804466247559,0.12068772315979004,-0.9630242586135864
1761371141148521700,8.933521728515625,-1.0755157470703125,0.2978513240814209,-0.9140123128890991
1761371141167134500,8.952134521484375,-0.37594032287597656,0.34792470932006836,-0.5946173667907715
1761371141185745400,8.970745361328126,0.5049238204956055,0.2348625659942627,-0.17209148406982422
1761371141204358000,8.98935791015625,1.5428152084350586,0.07382035255432129,0.1374204158782959
1761371141222969000,9.007968994140626,2.012411117553711,-0.14342188835144043,0.40746474266052246
1761371141241581600,9.02658154296875,1.5003881454467773,-0.30689311027526855,0.7697387933731079
1761371141260192800,9.04519287109375,0.25384521484375,-0.010442733764648438,0.5200501680374146
1761371141278805200,9.06380517578125,-1.0036983489990234,0.4106717109680176,0.1067737340927124
1761371141297416400,9.08241650390625,-1.7809348106384277,0.8033285140991211,-0.2455957531929016
1761371141316029000,9.10102880859375,-1.9388742446899414,1.046626329421997,-0.3327063322067261
1761371141334640000,9.11964013671875,-1.4063615798950195,1.0198261737823486,0.03926694393157959
1761371141353252600,9.138252685546876,-0.5545940399169922,0.982083797454834,0.302278995513916
1761371141371863800,9.15686376953125,0.05546283721923828,0.9425697326660156,0.36015236377716064
1761371141390476300,9.175476318359374,0.2010173797607422,0.974494457244873,0.26247382164001465
1761371141409087200,9.194087158203125,-0.002960205078125,1.1305651664733887,0.15391206741333008
1761371141427700000,9.212699951171874,-0.3036165237426758,1.3142318725585938,0.12104249000549316
1761371141446311000,9.231310791015625,-0.5104036331176758,1.4870879650115967,0.2859628200531006
1761371141464923600,9.249923583984375,-0.7086544036865234,1.597167730331421,0.4742095172405243
1761371141483534600,9.26853466796875,-0.9092035293579102,1.6427719593048096,0.47268810868263245
1761371141502147300,9.287147216796875,-1.0403566360473633,1.6280725002288818,0.1727135181427002
1761371141520758300,9.30575830078125,-1.0659704208374023,1.598923683166504,-0.1606365442276001
1761371141539371000,9.32437109375,-0.9415264129638672,1.713552474975586,-0.2607382535934448
1761371141557982000,9.34298193359375,-0.6495199203491211,1.834352731704712,-0.09716445207595825
1761371141576594400,9.361594482421875,-0.18763446807861328,1.8675825595855713,0.16011589765548706
1761371141595205600,9.38020556640625,0.16411972045898438,1.7411856651306152,0.30697980523109436
1761371141613818000,9.398818115234375,0.29631805419921875,1.533918857574463,0.22247180342674255
1761371141632429300,9.41742919921875,0.2381429672241211,1.341609239578247,0.05563277006149292
1761371141651041800,9.436041748046875,0.05992889404296875,1.2143120765686035,-0.07720452547073364
1761371141669652700,9.45465283203125,-0.14745712280273438,1.1626780033111572,-0.13940435647964478
1761371141688265500,9.473265380859376,-0.34631824493408203,1.1310274600982666,-0.11796790361404419
1761371141706876400,9.49187646484375,-0.43532562255859375,1.082315444946289,-0.12474751472473145
1761371141725489200,9.5104892578125,-0.3676567077636719,0.9664850234985352,-0.14969497919082642
1761371141744100000,9.52910009765625,-0.25662899017333984,0.726586103439331,-0.0735863447189331
1761371141762712800,9.547712890625,-0.051667213439941406,0.4918363094329834,-0.06895112991333008
1761371141781323800,9.56632373046875,-0.09566497802734375,0.42404890060424805,-0.32932138442993164
1761371141799936300,9.584936279296874,-0.47626686096191406,0.5203990936279297,-0.6749824285507202
1761371141818547500,9.60354736328125,-0.8248510360717773,0.8018913269042969,-1.1294584274291992
1761371141837160000,9.622159912109375,-1.0648713111877441,1.1812081336975098,-1.4043772220611572
1761371141855771100,9.640771240234375,-0.7612428665161133,1.3553242683410645,-0.7942323684692383
1761371141874383600,9.659383544921875,0.16867733001708984,1.3410625457763672,-0.0022585391998291016
1761371141892994800,9.677994873046876,1.4448318481445312,0.8204669952392578,0.778234601020813
1761371141911607300,9.696607177734375,2.393434524536133,-0.03819417953491211,1.250048041343689
1761371141930218500,9.715218505859376,2.638458251953125,-0.7999746799468994,0.9693878889083862
1761371141948831000,9.7338310546875,2.0512847900390625,-1.0123822689056396,0.11283940076828003
1761371141967442000,9.75244189453125,0.7110881805419922,-1.1032798290252686,-0.3779182434082031
1761371141986054700,9.7710546875,-0.5330352783203125,-0.9323065280914307,-0.7494996786117554
1761371142004665600,9.78966552734375,-1.446134090423584,-0.6070780754089355,-1.1134370565414429
1761371142023278300,9.8082783203125,-1.749934196472168,-0.40600109100341797,-1.1401749849319458
1761371142041889300,9.82688916015625,-1.2101945877075195,-0.29531002044677734,-0.956009030342102
1761371142060501800,9.845501708984376,-0.16281700134277344,-0.41456103324890137,-0.6134922504425049
1761371142079113000,9.864113037109375,0.5238552093505859,-0.6535274982452393,-0.4006156921386719
1761371142097725400,9.882725341796874,0.6339921951293945,-0.8374593257904053,-0.35651397705078125
1761371142116336600,9.901336669921875,0.33010292053222656,-0.7729277610778809,-0.44299209117889404
1761371142134949000,9.91994921875,-0.07861804962158203,-0.6749672889709473,-0.44658422470092773
1761371142153560300,9.938560302734375,-0.3302297592163086,-0.6145925521850586,-0.38886165618896484
1761371142172172800,9.9571728515625,-0.22945499420166016,-0.5543618202209473,-0.36575305461883545
1761371142190783700,9.97578369140625,-0.027042388916015625,-0.581972599029541,-0.22376108169555664
1761371142209396500,9.994396484375,0.06424999237060547,-0.6007862091064453,-0.10399210453033447
1761371142228007400,10.01300732421875,0.03685474395751953,-0.5836648941040039,0.02485513687133789
1761371142246620200,10.0316201171875,-0.10760021209716797,-0.6210188865661621,0.009953618049621582
1761371142265231000,10.050231201171876,-0.16318130493164062,-0.5892038345336914,-0.24943113327026367
1761371142283843600,10.068843505859375,-0.1189718246459961,-0.4932711124420166,-0.38117170333862305
1761371142302454800,10.087454833984374,0.011539459228515625,-0.4365363121032715,-0.21794402599334717
1761371142321067300,10.1060673828125,0.1681051254272461,-0.422870397567749,0.03316950798034668
1761371142339678500,10.124678466796874,0.45651721954345703,-0.40328288078308105,0.14523613452911377
1761371142358291000,10.143291015625,0.8034124374389648,-0.3921017646789551,0.34352177381515503
1761371142376902100,10.161902099609375,1.0640058517456055,-0.46352171897888184,0.5049476623535156
1761371142395514600,10.1805146484375,0.9702787399291992,-0.5629692077636719,0.5465461611747742
1761371142414125600,10.19912548828125,0.7501010894775391,-0.3617398738861084,0.23844802379608154
1761371142432738300,10.21773828125,0.32109642028808594,-0.028120994567871094,-0.0974583625793457
1761371142451349200,10.236349365234375,0.13162708282470703,0.2562370300292969,0.07405567169189453
1761371142469962000,10.2549619140625,0.45452308654785156,0.6124653816223145,0.36506056785583496
1761371142488573000,10.273572998046875,1.0667171478271484,0.46247243881225586,0.7310143113136292
1761371142507185400,10.292185302734374,1.822993278503418,-0.046079158782958984,1.0467609167099
1761371142525796600,10.310796630859375,2.256169319152832,-0.7004733085632324,1.2176792621612549
1761371142544409000,10.3294091796875,2.0113182067871094,-1.2765686511993408,1.3541431427001953
1761371142563020300,10.348020263671875,1.108565330505371,-1.4896233081817627,1.1687867641448975
1761371142581632800,10.3666328125,-0.031584739685058594,-1.2112205028533936,0.8827071189880371
1761371142600244000,10.385243896484376,-0.8801803588867188,-0.7955007553100586,0.5493871569633484
1761371142618856400,10.4038564453125,-1.31931734085083,-0.14575910568237305,0.016887664794921875
1761371142637467400,10.42246728515625,-1.315608024597168,0.2835068702697754,-0.17792701721191406
1761371142656080100,10.441080078125,-0.8149137496948242,0.10479974746704102,0.437755823135376
1761371142674691000,10.459691162109374,-0.0954742431640625,-0.14265012741088867,1.025888442993164
1761371142693303600,10.478303466796875,0.4038887023925781,-0.21259546279907227,1.2708770036697388
1761371142711914800,10.496914794921874,0.6539030075073242,-0.11545848846435547,1.2730681896209717
1761371142730527200,10.51552734375,0.4526968002319336,-0.09867048263549805,1.233598232269287
1761371142749138400,10.534138427734375,-0.08762359619140625,-0.0859670639038086,1.1607537269592285
1761371142767751000,10.5527509765625,-0.680302619934082,-0.028562068939208984,0.9593355059623718
1761371142786361900,10.57136181640625,-0.9563875198364258,0.07337236404418945,0.5807000398635864
1761371142804974600,10.589974609375,-0.918696403503418,0.06384038925170898,0.2864055037498474
1761371142823585500,10.60858544921875,-0.6825389862060547,-0.009716033935546875,0.16867178678512573
1761371142842198300,10.6271982421875,-0.43553829193115234,0.017036914825439453,0.10679495334625244
1761371142860809200,10.645809326171875,-0.27287769317626953,0.13427209854125977,0.12199980020523071
1761371142879421700,10.664421630859374,-0.10943317413330078,0.25756025314331055,0.18775808811187744
1761371142898033000,10.683032958984375,0.035887718200683594,0.3676791191101074,0.21110183000564575
1761371142916645400,10.701645263671875,0.08607292175292969,0.2891578674316406,0.4023233652114868
1761371142935256600,10.720256591796876,0.15322589874267578,0.2428722381591797,0.4873552918434143
1761371142953869000,10.738869140625,0.23424053192138672,0.15400362014770508,0.4816567003726959
1761371142972480000,10.75747998046875,0.25654125213623047,-0.015659809112548828,0.2418014407157898
1761371142991092700,10.7760927734375,0.23704910278320312,-0.044664859771728516,-0.1029895544052124
1761371143009703700,10.79470361328125,0.1643390655517578,0.0028777122497558594,-0.2564082145690918
1761371143028316400,10.81331640625,0.1987771987915039,-0.07188749313354492,-0.10360610485076904
1761371143046927400,10.83192724609375,0.20412349700927734,-0.04534196853637695,-0.06585550308227539
1761371143065539800,10.850539794921875,0.04767036437988281,-0.031711578369140625,-0.3056443929672241
1761371143084151000,10.869151123046874,-0.1671161651611328,0.07081079483032227,-0.5318371057510376
1761371143102763500,10.887763427734376,-0.41506481170654297,0.37846994400024414,-0.7155364751815796
1761371143121374700,10.906374755859375,-0.27581310272216797,0.3765597343444824,-0.3538038730621338
1761371143139987200,10.9249873046875,0.26645469665527344,0.11171770095825195,0.1304076910018921
1761371143158598100,10.94359814453125,0.9219627380371094,-0.3286442756652832,0.2870211601257324
1761371143177211000,10.9622109375,1.121415138244629,-0.7400751113891602,0.3160092830657959
1761371143195821800,10.98082177734375,0.9784002304077148,-0.8143391609191895,-0.18671703338623047
1761371143214434300,10.999434326171874,0.6200809478759766,-0.6812424659729004,-0.580081582069397
1761371143233045500,11.01804541015625,0.1345205307006836,-0.40346479415893555,-0.7876354455947876
1761371143251658000,11.036657958984375,-0.05135059356689453,-0.22269153594970703,-0.8898872137069702
1761371143270269200,11.055269287109375,0.16090679168701172,-0.2375011444091797,-0.7489316463470459
1761371143288881700,11.073881591796875,0.48134422302246094,-0.35390806198120117,-0.33686959743499756
1761371143307492900,11.092492919921876,0.46425628662109375,-0.40676116943359375,0.0055429935455322266
1761371143326105300,11.111105224609375,0.06025981903076172,-0.37984657287597656,0.2766624689102173
1761371143344716300,11.12971630859375,-0.35674571990966797,-0.3754143714904785,0.3403879404067993
1761371143363329000,11.1483291015625,-0.5167961120605469,-0.4596562385559082,0.2587052583694458
1761371143381940000,11.16693994140625,-0.5367393493652344,-0.5645837783813477,0.0830686092376709
1761371143400552400,11.185552490234375,-0.5891666412353516,-0.7940390110015869,-0.02973151206970215
1761371143419163600,11.20416357421875,-0.33869075775146484,-0.8944857120513916,-0.05375266075134277
1761371143437776100,11.222776123046875,-0.39925098419189453,-0.8044300079345703,-0.18168413639068604
1761371143456387300,11.24138720703125,-0.5246086120605469,-0.8618755340576172,-0.29643285274505615
1761371143474999800,11.259999755859376,-0.6284990310668945,-0.7207767963409424,-0.3523836135864258
1761371143493610800,11.27861083984375,-0.4987926483154297,-0.5304031372070312,-0.35669755935668945
