time,seconds_elapsed,z,y,x
1761369638841822000,0.205822021484375,-0.24303627014160156,-0.48526930809020996,-0.1283026933670044
1761369638860432000,0.224431884765625,-0.16486835479736328,-0.6359579563140869,-0.5909183025360107
1761369638879043300,0.243043212890625,0.3792123794555664,-0.8959357738494873,-0.6574782133102417
1761369638897653000,0.261653076171875,1.0004186630249023,-1.0442086458206177,-0.5929805040359497
1761369638916264700,0.2802646484375,1.0358400344848633,-1.1723170280456543,-0.6100916862487793
1761369638934874400,0.298874267578125,0.7638454437255859,-1.159787893295288,-0.7585501670837402
1761369638953485800,0.31748583984375,0.26776885986328125,-1.0908925533294678,-0.3791191577911377
1761369638972095700,0.336095703125,0.12122154235839844,-0.4915100932121277,-0.24886870384216309
1761369638990707200,0.354707275390625,0.32926177978515625,-0.11319637298583984,-0.2637026309967041
1761369639009317000,0.373317138671875,-0.3609609603881836,-0.013317346572875977,-0.28740572929382324
1761369639027928600,0.391928466796875,-1.660177230834961,0.5474514961242676,-0.5757660865783691
1761369639046538500,0.41053857421875,-2.327023983001709,0.9822628498077393,-0.7135815620422363
1761369639065150000,0.42914990234375,-1.9750022888183594,1.380567193031311,-0.39328598976135254
1761369639083759900,0.447759765625,-1.6482019424438477,1.093265175819397,0.7215828895568848
1761369639102371300,0.466371337890625,-2.4037365913391113,0.36444735527038574,1.4133727550506592
1761369639120981200,0.484981201171875,-2.932551383972168,-0.0190126895904541,1.1036114692687988
1761369639139592700,0.5035927734375,-3.0778746604919434,-0.3076212406158447,0.5169039964675903
1761369639158202400,0.522202392578125,-2.820922374725342,-0.15202486515045166,0.43246519565582275
1761369639176813800,0.540813720703125,-2.4277191162109375,0.9558233022689819,1.5380663871765137
1761369639195423700,0.559423828125,-2.163363456726074,1.9902719259262085,2.5797414779663086
1761369639214035200,0.57803515625,-1.7867779731750488,1.7698580026626587,2.134774923324585
1761369639232645000,0.59664501953125,-0.5029244422912598,0.4489901065826416,2.367222785949707
1761369639251256600,0.615256591796875,2.9016432762145996,-0.47367143630981445,2.2084338665008545
1761369639269866500,0.633866455078125,5.545560359954834,0.8125464916229248,-2.1558260917663574
1761369639288478000,0.65247802734375,8.446739196777344,0.2886981964111328,-5.790798187255859
1761369639307088000,0.671087890625,15.727187156677246,-1.3846666812896729,-3.869004011154175
1761369639325699300,0.68969921875,19.936067581176758,-2.037503719329834,-2.8590054512023926
1761369639344309200,0.708309326171875,16.311695098876953,-2.6832449436187744,-4.574227333068848
1761369639362920700,0.726920654296875,11.091292381286621,-2.353072166442871,-4.643165588378906
1761369639381530600,0.745530517578125,7.667332649230957,-1.4959871768951416,-2.5506575107574463
1761369639400142000,0.76414208984375,4.689250946044922,-1.0179157257080078,-1.3570070266723633
1761369639418752000,0.782751953125,1.7629756927490234,-0.7412550449371338,-0.8767554759979248
1761369639437363200,0.80136328125,-0.2841682434082031,-0.19558930397033691,-0.6247050762176514
1761369639455973400,0.819973388671875,-1.19927978515625,1.388401985168457,-0.7045156955718994
1761369639474584600,0.83858447265625,0.47162437438964844,1.8656706809997559,0.2741892337799072
1761369639493194800,0.85719482421875,0.8367757797241211,1.4016072750091553,0.5525954961776733
1761369639511806000,0.875805908203125,-0.21591663360595703,1.065814733505249,0.12401509284973145
1761369639530415900,0.894415771484375,-1.8353652954101562,1.1862069368362427,-0.8014669418334961
1761369639549027300,0.91302734375,-4.006407260894775,1.4360413551330566,-1.714816689491272
1761369639567637200,0.93163720703125,-5.650786876678467,1.4961390495300293,-1.7429414987564087
1761369639586248700,0.950248779296875,-6.4988298416137695,1.43439781665802,-2.2741312980651855
1761369639604858600,0.968858642578125,-6.066972255706787,1.7302255630493164,-2.328913450241089
1761369639623470000,0.987469970703125,-6.333531856536865,1.2797300815582275,-1.3257219791412354
1761369639642080000,1.006080078125,-7.194904327392578,0.5315817594528198,-0.5418955087661743
1761369639660691500,1.02469140625,-7.896117687225342,-0.39262646436691284,0.04220736026763916
1761369639679301400,1.04330126953125,-7.997973442077637,-0.6295633316040039,0.33521533012390137
1761369639697912800,1.061912841796875,-7.119306564331055,-0.445955753326416,0.20928800106048584
1761369639716522800,1.080522705078125,-6.094425201416016,-0.35664522647857666,-0.18094849586486816
1761369639735134200,1.09913427734375,-5.545837879180908,-0.7662657499313354,-0.49217426776885986
1761369639753744100,1.117744140625,-5.104665756225586,-1.3310675621032715,-0.6496070623397827
1761369639772355600,1.13635546875,-4.128062725067139,-1.6038858890533447,-0.7032120227813721
1761369639790965500,1.154965576171875,-3.1269307136535645,-1.8520622253417969,0.4418431520462036
1761369639809577000,1.173576904296875,-2.6920418739318848,-1.7607784271240234,1.592382788658142
1761369639828187000,1.192186767578125,-0.8998775482177734,-1.1647603511810303,0.946602463722229
1761369639846798300,1.21079833984375,1.7706270217895508,-0.3455393314361572,-0.25493693351745605
1761369639865408000,1.229407958984375,3.605769157409668,0.5268995761871338,-1.083366870880127
1761369639884019500,1.24801953125,4.354903221130371,1.1849822998046875,-0.9182223081588745
1761369639902629400,1.26662939453125,4.7237396240234375,0.29965972900390625,0.6077134609222412
1761369639921240800,1.28524072265625,5.827365875244141,0.8555655479431152,-0.3862634301185608
1761369639939850800,1.303850830078125,6.700716972351074,1.1428351402282715,-1.813376545906067
1761369639958462200,1.322462158203125,6.691978454589844,1.3292815685272217,-2.708177089691162
1761369639977072000,1.341072021484375,5.849028587341309,1.663748025894165,-2.083946466445923
1761369639995683600,1.35968359375,6.54695987701416,2.3344979286193848,-0.3748958110809326
1761369640014293500,1.37829345703125,7.615625381469727,1.4631576538085938,2.108963966369629
1761369640032905000,1.396905029296875,7.88066291809082,0.06150460243225098,3.697847366333008
1761369640051515000,1.415514892578125,7.012831687927246,-0.7001066207885742,3.9488730430603027
1761369640070126300,1.434126220703125,4.590709686279297,-0.3986867666244507,2.555046558380127
1761369640088736300,1.452736328125,1.2632207870483398,-0.06212717294692993,1.5755592584609985
1761369640107347700,1.47134765625,-1.5456323623657227,0.27614039182662964,0.9381792545318604
1761369640125957600,1.48995751953125,-3.8087596893310547,0.6864460706710815,0.25053560733795166
1761369640144569000,1.508569091796875,-5.86515474319458,0.9867081642150879,-0.26964688301086426
1761369640163179000,1.527178955078125,-6.730457305908203,1.050442099571228,-1.1403683423995972
1761369640181790500,1.54579052734375,-6.454129695892334,0.8776974678039551,-2.071648597717285
1761369640200400400,1.564400390625,-6.432729721069336,0.6696435213088989,-2.625922679901123
1761369640219011600,1.583011474609375,-7.029850959777832,0.3623391389846802,-2.2881622314453125
1761369640237621800,1.601621826171875,-7.311967372894287,0.42273974418640137,-1.653587818145752
1761369640256233000,1.62023291015625,-6.933387279510498,0.886263370513916,-1.665550947189331
1761369640274843100,1.638843017578125,-6.129688739776611,0.7039282321929932,-2.374943256378174
1761369640293454300,1.657454345703125,-5.4878058433532715,-0.2119145393371582,-2.7896337509155273
1761369640312064300,1.676064208984375,-4.902763843536377,-1.2575329542160034,-2.0067925453186035
1761369640330675700,1.69467578125,-3.9933509826660156,-1.2756361961364746,-1.0890394449234009
1761369640349285600,1.71328564453125,-2.5052833557128906,-0.607597827911377,-0.5351882576942444
1761369640367897000,1.73189697265625,-0.6713953018188477,0.18086671829223633,-0.9550221562385559
1761369640386507000,1.750507080078125,1.3171863555908203,1.1985342502593994,-1.4521979093551636
1761369640405118500,1.769118408203125,3.5308189392089844,2.172684669494629,-1.565463662147522
1761369640423728400,1.787728271484375,5.190518379211426,2.31355619430542,-0.36325907707214355
1761369640442339800,1.80633984375,6.000699043273926,1.9313006401062012,1.5576419830322266
1761369640460949800,1.82494970703125,6.879573822021484,2.5325655937194824,2.0487513542175293
1761369640479561200,1.843561279296875,7.949837684631348,2.3911054134368896,2.218292713165283
1761369640498171100,1.862171142578125,8.789247512817383,1.7218406200408936,2.0556483268737793
1761369640516782600,1.880782470703125,8.02100658416748,0.8716599941253662,2.3115179538726807
1761369640535392500,1.899392578125,5.735072135925293,0.43094801902770996,2.144507884979248
1761369640554004000,1.91800390625,4.790064811706543,0.07343530654907227,2.315199375152588
1761369640572614000,1.93661376953125,4.419480323791504,0.08565711975097656,2.6925199031829834
1761369640591225300,1.955225341796875,3.021413803100586,0.14721393585205078,3.09859299659729
1761369640609835300,1.973835205078125,1.1298017501831055,0.3944203853607178,2.861081123352051
1761369640628446700,1.99244677734375,-1.646139144897461,0.4146880507469177,2.3206121921539307
1761369640647056400,2.011056396484375,-4.389881134033203,-0.06280487775802612,1.2570260763168335
1761369640665667800,2.029667724609375,-6.217707633972168,0.13727056980133057,0.014415144920349121
1761369640684277800,2.04827783203125,-7.497712135314941,0.01568913459777832,-1.0481139421463013
1761369640702889200,2.06688916015625,-7.77670431137085,-0.13478267192840576,-1.3679978847503662
1761369640721499100,2.0854990234375,-6.960043907165527,-0.12803232669830322,-1.8065930604934692
1761369640740110600,2.104110595703125,-6.069375514984131,0.07764601707458496,-2.1757664680480957
1761369640758720500,2.122720458984375,-5.811060905456543,0.2717302441596985,-2.1210777759552
1761369640777332000,2.14133203125,-5.6701202392578125,0.5221197009086609,-1.655207633972168
1761369640795942000,2.15994189453125,-5.415468215942383,0.9892431497573853,-1.083731770515442
1761369640814553300,2.17855322265625,-5.147348880767822,1.5067529678344727,-0.8894013166427612
1761369640833163300,2.197163330078125,-5.353219032287598,0.11369931697845459,-0.06559589505195618
1761369640851774700,2.215774658203125,-5.012515068054199,-0.4041903614997864,-0.34987956285476685
1761369640870384600,2.234384521484375,-3.34908390045166,0.02344036102294922,-1.0931508541107178
1761369640888996000,2.25299609375,-1.7629680633544922,-0.19131410121917725,-0.7253174185752869
1761369640907606000,2.27160595703125,0.16269779205322266,0.08880841732025146,-0.6447128057479858
1761369640926217500,2.290217529296875,2.4331178665161133,0.5221471786499023,-0.9757808446884155
1761369640944827400,2.308827392578125,4.313894271850586,0.8502788543701172,-1.37737238407135
1761369640963438800,2.32743896484375,4.902610778808594,1.962388277053833,-1.223743200302124
1761369640982048800,2.346048828125,4.356341361999512,2.074033260345459,-0.7039849162101746
1761369641000660200,2.36466015625,5.504885673522949,2.726680278778076,-0.23361152410507202
1761369641019270100,2.383270263671875,7.145430564880371,2.046504497528076,1.4537384510040283
1761369641037881300,2.40188134765625,9.265191078186035,-0.49690425395965576,1.660214900970459
1761369641056491500,2.420491455078125,11.019753456115723,-3.5901193618774414,-0.31756699085235596
1761369641075102700,2.439102783203125,11.258797645568848,-4.448955535888672,-2.8556299209594727
1761369641093712600,2.457712646484375,10.805419921875,-2.9713125228881836,-2.552260398864746
1761369641112324000,2.476323974609375,9.069415092468262,-0.8754724860191345,0.05507814884185791
1761369641130934000,2.49493408203125,5.888566970825195,0.9589499235153198,1.8563772439956665
1761369641149545500,2.51354541015625,1.4410209655761719,1.7816188335418701,2.406923770904541
1761369641168155400,2.5321552734375,-2.6886940002441406,2.2536067962646484,1.601370096206665
1761369641186766800,2.550766845703125,-5.723933696746826,2.5973150730133057,0.8526820540428162
1761369641205376800,2.569376708984375,-7.159686088562012,2.7632312774658203,0.6034337878227234
1761369641223988200,2.58798828125,-6.456789493560791,2.8503196239471436,0.7248068451881409
1761369641242598100,2.60659814453125,-4.799755096435547,2.914881467819214,1.381561279296875
1761369641261209600,2.625209716796875,-3.5011544227600098,3.0193731784820557,1.0366950035095215
1761369641279819500,2.643819580078125,-4.032870769500732,3.1069092750549316,-0.39227598905563354
1761369641298431000,2.662430908203125,-5.603238582611084,3.1792287826538086,-1.1877074241638184
1761369641317041000,2.681041015625,-6.739380359649658,3.3768560886383057,-1.2312886714935303
1761369641335652400,2.69965234375,-7.214300632476807,3.0510194301605225,-0.6176926493644714
1761369641354262300,2.71826220703125,-6.693362712860107,2.415834426879883,0.15091902017593384
1761369641372873700,2.736873779296875,-5.407421588897705,1.6758244037628174,-0.22062528133392334
1761369641391483600,2.755483642578125,-4.655580043792725,1.1377160549163818,-0.332378089427948
1761369641410094800,2.7740947265625,-4.082677364349365,0.9089289307594299,-0.22122862935066223
1761369641428704800,2.792704833984375,-2.991642951965332,1.0494263172149658,-0.291906476020813
1761369641447316200,2.811316162109375,-1.0019512176513672,0.8007105588912964,-0.3422474265098572
1761369641465926100,2.829926025390625,1.0713415145874023,0.3053933382034302,0.6389381289482117
1761369641484537600,2.84853759765625,3.302431106567383,-0.5756572484970093,2.8463878631591797
1761369641503147500,2.8671474609375,4.875248908996582,-1.4328633546829224,3.5331525802612305
1761369641521759000,2.885759033203125,4.860532760620117,-2.0439326763153076,2.252676010131836
1761369641540369000,2.904368896484375,6.292710304260254,-1.7932778596878052,1.2866290807724
1761369641558980400,2.92298046875,9.108811378479004,-2.0460381507873535,2.3629164695739746
1761369641577590300,2.94159033203125,11.902753829956055,-3.1454012393951416,4.125784873962402
1761369641596201700,2.96020166015625,10.975592613220215,-3.172456979751587,4.223989963531494
1761369641614811600,2.978811767578125,7.107601165771484,-2.167628288269043,2.841527223587036
1761369641633423000,2.997423095703125,3.8417482376098633,-1.6745223999023438,1.6666655540466309
1761369641652033000,3.016032958984375,2.1971120834350586,-1.9163317680358887,0.4385048747062683
1761369641670644500,3.03464453125,2.3389978408813477,-1.6954476833343506,-0.7388398051261902
1761369641689254400,3.05325439453125,2.6362075805664062,-1.3722987174987793,-2.138294219970703
1761369641707865600,3.071865478515625,3.787764549255371,0.5939934253692627,-3.3089005947113037
1761369641726475800,3.090475830078125,4.339512825012207,3.1801819801330566,-4.184678077697754
1761369641745087000,3.1090869140625,3.033721923828125,4.195654392242432,-2.994323253631592
1761369641763697200,3.127697265625,1.9338874816894531,4.709143161773682,-1.2776665687561035
1761369641782308400,3.146308349609375,0.719639778137207,4.4908294677734375,-0.10892979800701141
1761369641800918300,3.164918212890625,-1.6912493705749512,3.7521677017211914,0.007365912199020386
1761369641819529700,3.18352978515625,-5.070337772369385,2.7210278511047363,-0.6135927438735962
1761369641838139600,3.2021396484375,-7.6597394943237305,1.4652107954025269,-0.8647947311401367
1761369641856751000,3.220751220703125,-8.924447059631348,0.3951590061187744,-1.57012939453125
1761369641875361000,3.239361083984375,-9.606117248535156,0.3810266852378845,-2.544232130050659
1761369641893972500,3.257972412109375,-10.060019493103027,-0.17314830422401428,-2.5673980712890625
1761369641912582400,3.27658251953125,-8.890167236328125,-0.3440956473350525,-1.8442714214324951
1761369641931193900,3.29519384765625,-7.720309257507324,-0.4468080997467041,-1.0787794589996338
1761369641949803800,3.3138037109375,-6.385093688964844,-0.32530391216278076,-0.18027597665786743
1761369641968415200,3.332415283203125,-3.9481940269470215,0.1084287166595459,1.27573823928833
1761369641987025200,3.351025146484375,-0.45365047454833984,0.20359182357788086,2.854269504547119
1761369642005636600,3.36963671875,2.921527862548828,0.14289164543151855,3.3648905754089355
1761369642024246500,3.38824658203125,6.012231826782227,-0.553088903427124,4.814155578613281
1761369642042858000,3.40685791015625,7.429142951965332,-1.4766182899475098,4.898440361022949
1761369642061468000,3.425468017578125,7.865128517150879,-1.336317777633667,2.8795278072357178
1761369642080079000,3.4440791015625,8.114901542663574,0.5842537879943848,0.20181405544281006
1761369642098689300,3.462689208984375,8.477437019348145,1.4476051330566406,-1.0485994815826416
1761369642117300500,3.481300537109375,7.794650077819824,0.5569417476654053,1.1218359470367432
1761369642135910400,3.499910400390625,6.996036529541016,0.22912359237670898,2.7767422199249268
1761369642154521900,3.51852197265625,6.9906768798828125,0.4422585964202881,3.6869821548461914
1761369642173131800,3.5371318359375,3.49521541595459,-0.5009273290634155,3.741547107696533
1761369642191743200,3.5557431640625,0.11390495300292969,-1.1142765283584595,3.2795019149780273
1761369642210353200,3.574353271484375,-0.8446874618530273,-2.0695791244506836,2.533566474914551
1761369642228964600,3.592964599609375,-0.5476961135864258,-2.8942039012908936,1.6406493186950684
1761369642247574500,3.611574462890625,0.7682332992553711,-1.4162079095840454,-0.3915500342845917
1761369642266186000,3.63018603515625,1.9992523193359375,-0.2808910608291626,-2.0053305625915527
1761369642284796000,3.6487958984375,1.0586509704589844,-0.5357232093811035,-1.9723262786865234
1761369642303407400,3.667407470703125,-0.9624223709106445,-0.15620529651641846,-2.9423890113830566
1761369642322017300,3.686017333984375,-2.307535171508789,0.5861902832984924,-3.95943021774292
1761369642340628700,3.704628662109375,-3.2730512619018555,0.6014898419380188,-4.146632194519043
1761369642359238700,3.72323876953125,-4.745226860046387,0.09432870149612427,-3.3793234825134277
1761369642377850000,3.74185009765625,-6.716521263122559,-0.6736981868743896,-2.8069024085998535
1761369642396459800,3.760459716796875,-8.707151412963867,-1.5350419282913208,-2.3931069374084473
1761369642415071200,3.7790712890625,-10.102511405944824,-1.759846806526184,-2.350151538848877
1761369642433681200,3.79768115234375,-10.470804214477539,-2.2203707695007324,-1.537839651107788
1761369642452292600,3.816292724609375,-8.559098243713379,-1.6814799308776855,-0.6186734437942505
1761369642470902500,3.834902587890625,-7.224172592163086,-1.6368412971496582,-0.22283422946929932
1761369642489514000,3.853513916015625,-6.084603786468506,-1.0788640975952148,-0.5299841165542603
1761369642508124000,3.8721240234375,-4.476124286651611,-0.4254946708679199,-1.3382898569107056
1761369642526735400,3.8907353515625,-2.765439987182617,0.04518699645996094,-1.983192801475525
1761369642545345300,3.90934521484375,-0.9643564224243164,0.47442102432250977,-1.472244143486023
1761369642563956700,3.927956787109375,1.4872055053710938,0.9317116737365723,-0.6583048701286316
1761369642582566700,3.946566650390625,4.669700622558594,1.1972289085388184,-0.728456974029541
1761369642601178000,3.96517822265625,5.631758689880371,1.066878318786621,-3.2140374183654785
1761369642619788000,3.9837880859375,5.0553388595581055,1.9134631156921387,-6.04726505279541
1761369642638399500,4.0023994140625,6.3934326171875,1.182985782623291,-4.556963920593262
1761369642657009400,4.021009521484375,8.423698425292969,-1.359703540802002,-1.095285415649414
1761369642675620600,4.03962060546875,8.887916564941406,-2.549685478210449,2.683767795562744
1761369642694230800,4.058230712890625,9.635197639465332,-1.7767163515090942,5.281798362731934
1761369642712842000,4.076842041015625,8.287646293640137,-0.1341545581817627,9.271650314331055
1761369642731452000,4.095451904296875,4.502727508544922,0.714494526386261,9.355279922485352
1761369642750063400,4.1140634765625,2.4366207122802734,0.7755079865455627,7.576995372772217
1761369642768673300,4.13267333984375,1.7924556732177734,0.8676080703735352,5.2773027420043945
1761369642787284700,4.15128466796875,1.3142213821411133,1.2473502159118652,2.207383632659912
1761369642805894700,4.169894775390625,0.3073396682739258,1.4684956073760986,-0.12235069274902344
1761369642824506000,4.188506103515625,-1.614696979522705,1.3957273960113525,0.31815433502197266
1761369642843116000,4.207115966796875,-2.9075827598571777,1.0089988708496094,0.562110424041748
1761369642861727500,4.2257275390625,-3.938344955444336,-0.2063140869140625,-0.0770258903503418
1761369642880337400,4.24433740234375,-4.693838119506836,-0.6210331916809082,-1.695577621459961
1761369642898948900,4.262948974609375,-5.351165771484375,-0.794336199760437,-2.8904786109924316
1761369642917558800,4.281558837890625,-5.896857738494873,-0.8001084327697754,-3.1693859100341797
1761369642936170200,4.300170166015625,-6.321409702301025,-0.7290732860565186,-3.0603160858154297
1761369642954780200,4.3187802734375,-6.454935550689697,-0.9703371524810791,-2.6239452362060547
1761369642973391600,4.3373916015625,-6.152935028076172,-1.4231927394866943,-1.8002352714538574
1761369642992001300,4.356001220703125,-5.674736022949219,-2.344492197036743,-0.8332288265228271
1761369643010612700,4.37461279296875,-5.568514823913574,-3.048501491546631,-0.09592795372009277
1761369643029222700,4.39322265625,-4.447368621826172,-0.532036304473877,-1.2346718311309814
1761369643047834000,4.411834228515625,-2.7165474891662598,1.4542427062988281,-0.5980753898620605
1761369643066444000,4.430444091796875,-0.05611228942871094,1.1065058708190918,2.5122365951538086
1761369643085055500,4.449055419921875,3.281571865081787,-0.12550067901611328,5.100457668304443
1761369643103665400,4.46766552734375,6.026812553405762,0.48926353454589844,6.148362159729004
1761369643122276900,4.48627685546875,6.361156940460205,0.8230628967285156,4.075872421264648
1761369643140886800,4.50488671875,3.937150001525879,2.292893886566162,1.3599176406860352
1761369643159498200,4.523498291015625,3.4597206115722656,4.349844932556152,-0.7870566844940186
1761369643178108200,4.542108154296875,4.586950302124023,5.964794635772705,-1.8240716457366943
1761369643196719600,4.5607197265625,5.8445258140563965,4.7850165367126465,-0.5004854202270508
1761369643215329500,4.57932958984375,6.256234169006348,2.566657543182373,3.0359866619110107
1761369643233941000,4.59794091796875,5.868696212768555,1.4802765846252441,4.855613708496094
1761369643252550700,4.616550537109375,4.048989295959473,0.7779953479766846,3.5913403034210205
1761369643271162000,4.635162109375,2.4225759506225586,0.18242216110229492,1.2742135524749756
1761369643289772000,4.65377197265625,1.995957374572754,0.35263967514038086,0.2898046374320984
1761369643308383500,4.672383544921875,1.4155473709106445,0.15556704998016357,0.6243136525154114
1761369643326993400,4.690993408203125,0.5450878143310547,-0.5350600481033325,0.9076462388038635
1761369643345604900,4.70960498046875,-1.7098579406738281,-0.9757773280143738,0.8958418369293213
1761369643364214800,4.72821484375,-4.403301239013672,-1.6324598789215088,0.6419506669044495
1761369643382826200,4.746826171875,-6.17720365524292,-1.7130159139633179,-0.14235109090805054
1761369643401436200,4.765436279296875,-6.551602363586426,-1.1744648218154907,-1.1674329042434692
1761369643420047600,4.784047607421875,-6.707468032836914,-0.9194648265838623,-1.459038496017456
1761369643438657500,4.802657470703125,-7.2697296142578125,-1.221893548965454,-0.9041954278945923
1761369643457269000,4.82126904296875,-7.209117889404297,-1.609563946723938,0.04053536057472229
1761369643475879000,4.83987890625,-6.460073471069336,-2.1671395301818848,1.019120216369629
1761369643494490400,4.858490478515625,-6.005049228668213,-2.4213600158691406,1.0322678089141846
1761369643513100000,4.87710009765625,-5.756624698638916,-2.6760876178741455,1.0267034769058228
1761369643531711500,4.89571142578125,-5.034612655639648,-2.622542381286621,0.7361838817596436
1761369643550321400,4.9143212890625,-4.172125339508057,-2.423694610595703,0.2848929166793823
1761369643568932900,4.932932861328125,-2.8100037574768066,-2.07586669921875,1.2240521907806396
1761369643587542800,4.951542724609375,1.6123123168945312,-1.888643741607666,2.193690538406372
1761369643606154200,4.970154296875,5.408721446990967,-2.377335548400879,-1.281177043914795
1761369643624764200,4.98876416015625,5.056960582733154,0.1650862693786621,-6.237225532531738
1761369643643375600,5.007375732421875,2.447780132293701,3.189875602722168,-8.747954368591309
1761369643661985500,5.025985595703125,4.70225715637207,5.130241870880127,-7.41697883605957
1761369643680597000,5.044596923828125,8.75416374206543,5.704689979553223,-3.3126370906829834
1761369643699207000,5.06320703125,12.821187019348145,5.0622639656066895,2.0131547451019287
1761369643717818400,5.081818359375,14.16526985168457,5.258975028991699,4.221703052520752
1761369643736428300,5.10042822265625,11.083971977233887,4.842050552368164,3.025477886199951
1761369643755039700,5.119039794921875,4.798567771911621,3.525648593902588,1.435839056968689
1761369643773649400,5.1376494140625,-0.7676405906677246,2.1098127365112305,0.6440230011940002
1761369643792260900,5.1562607421875,-2.4357285499572754,0.9921026229858398,1.7139883041381836
1761369643810870800,5.174870849609375,-1.4280061721801758,0.5263047218322754,2.9128222465515137
1761369643829482200,5.193482177734375,-0.1955251693725586,-0.3521442413330078,4.0114521980285645
1761369643848092200,5.212092041015625,-0.5413331985473633,-1.002490520477295,3.2493481636047363
1761369643866703600,5.23070361328125,-2.8065643310546875,-1.5612399578094482,2.145966053009033
1761369643885313500,5.2493134765625,-5.704043388366699,-1.7821943759918213,0.9590452313423157
1761369643903925000,5.267925048828125,-7.93205451965332,-2.0648396015167236,-0.23345309495925903
1761369643922535000,5.286534912109375,-8.181424140930176,-1.737461805343628,-0.7160028219223022
1761369643941146400,5.305146484375,-6.897245407104492,-1.59855055809021,-0.21921107172966003
1761369643959756300,5.32375634765625,-5.2881178855896,-1.7468745708465576,1.0112695693969727
1761369643978367500,5.342367431640625,-4.444314479827881,-1.6869640350341797,1.5606696605682373
1761369643996977700,5.360977783203125,-4.174528121948242,-1.5911798477172852,1.6383477449417114
1761369644015588900,5.3795888671875,-4.498202800750732,-1.4133224487304688,1.2466579675674438
1761369644034198800,5.39819873046875,-5.1988630294799805,-1.2971787452697754,1.4162416458129883
1761369644052810200,5.416810302734375,-5.476122856140137,-1.246833324432373,1.5149586200714111
1761369644071420200,5.435420166015625,-3.5492873191833496,-0.6557765007019043,0.7929246425628662
1761369644090031600,5.454031494140625,-1.168900966644287,-0.44014406204223633,0.40985584259033203
1761369644108641500,5.4726416015625,0.3871421813964844,-0.09233856201171875,0.24253451824188232
1761369644127253000,5.4912529296875,1.565800666809082,0.4169473648071289,-0.3515075445175171
1761369644145863000,5.50986279296875,2.427556037902832,0.6855645179748535,-1.6319494247436523
1761369644164474400,5.528474365234375,2.200533866882324,1.5651254653930664,-3.081510066986084
1761369644183084000,5.547083984375,2.408970355987549,3.705507278442383,-3.3335654735565186
1761369644201695700,5.56569580078125,4.647037506103516,4.919797897338867,-0.9067379832267761
1761369644220305400,5.584305419921875,8.252429008483887,3.0807580947875977,2.550715923309326
1761369644238916900,5.602916748046875,12.115507125854492,2.3604531288146973,2.9965133666992188
1761369644257526800,5.62152685546875,13.306585311889648,1.5262951850891113,3.389341354370117
1761369644276138200,5.64013818359375,10.432646751403809,1.0187702178955078,3.5236520767211914
1761369644294748200,5.658748046875,5.006464004516602,1.0505380630493164,2.0897626876831055
1761369644313359600,5.677359619140625,0.7011194229125977,0.8554196357727051,0.4607304334640503
1761369644331969500,5.695969482421875,-0.7721109390258789,0.8797402381896973,-0.8868143558502197
1761369644350581000,5.7145810546875,-0.9042682647705078,0.31560730934143066,-1.19918692111969
1761369644369191000,5.73319091796875,-0.28073692321777344,0.02210831642150879,-1.2257479429244995
1761369644387802400,5.75180224609375,-0.6955623626708984,-0.3804931640625,-0.881758451461792
1761369644406412300,5.770412353515625,-1.9835495948791504,-0.7233865261077881,-0.6278983354568481
1761369644425023500,5.7890234375,-3.2639803886413574,-0.8608026504516602,-1.094252109527588
1761369644443633400,5.80763330078125,-4.435128211975098,-1.1631758213043213,-1.8228209018707275
1761369644462244900,5.826244873046875,-5.0346856117248535,-1.568166971206665,-1.9753049612045288
1761369644480854800,5.844854736328125,-5.574584007263184,-2.321930408477783,-1.922942042350769
1761369644499466200,5.86346630859375,-5.727385520935059,-2.706101894378662,-1.5806818008422852
1761369644518076200,5.882076171875,-6.037984848022461,-3.0610313415527344,-1.016090750694275
1761369644536687600,5.9006875,-6.061573028564453,-3.182738780975342,-0.7148250341415405
1761369644555297500,5.919297607421875,-6.088191032409668,-4.060524940490723,-0.38950562477111816
1761369644573909000,5.937908935546875,-5.406932830810547,-3.3533313274383545,-0.6610286235809326
1761369644592519000,5.956518798828125,-4.036620140075684,-2.1028027534484863,-0.656380295753479
1761369644611130400,5.97513037109375,-2.82643985748291,-1.260976791381836,0.4796024560928345
1761369644629740000,5.993739990234375,-0.3860130310058594,-0.28040409088134766,2.1783816814422607
1761369644648351500,6.0123515625,4.198482513427734,0.8005037307739258,3.774879217147827
1761369644666961400,6.03096142578125,6.447182655334473,0.39043092727661133,4.261518478393555
1761369644685572900,6.04957275390625,5.419841766357422,0.809417724609375,1.6441566944122314
1761369644704182800,6.068182861328125,5.267682075500488,2.550204277038574,-1.292831301689148
1761369644722794200,6.086794189453125,6.542037010192871,5.317789077758789,-3.005859851837158
1761369644741404200,6.105404052734375,6.466314315795898,4.981868267059326,-0.5205696821212769
1761369644760015600,6.124015625,7.71612548828125,4.713661193847656,2.4352617263793945
1761369644778625500,6.14262548828125,8.978717803955078,4.243179798126221,5.348628044128418
1761369644797237000,6.161237060546875,6.114316940307617,2.666271209716797,6.0878448486328125
1761369644815846700,6.1798466796875,1.0358057022094727,1.6918401718139648,3.0568766593933105
1761369644834458000,6.1984580078125,-2.4060325622558594,0.44904375076293945,0.3687494993209839
1761369644853068000,6.217068115234375,-2.0507631301879883,0.2511138916015625,-1.133448839187622
1761369644871679500,6.235679443359375,-0.2095355987548828,-0.44520139694213867,-0.24592924118041992
1761369644890289400,6.254289306640625,0.2052755355834961,-0.6300618648529053,0.24279236793518066
1761369644908900900,6.27290087890625,0.011797904968261719,-0.8735291957855225,0.637702465057373
1761369644927510800,6.2915107421875,-0.783355712890625,-1.4069509506225586,0.5244052410125732
1761369644946122200,6.310122314453125,-2.1031665802001953,-2.051403045654297,-0.5519342422485352
1761369644964732200,6.328732177734375,-3.841480255126953,-3.03273344039917,-0.8654459118843079
1761369644983343400,6.34734326171875,-5.078733921051025,-3.1402015686035156,-1.619140386581421
1761369645001953300,6.365953369140625,-5.861298561096191,-3.3189783096313477,-2.3253533840179443
1761369645020564700,6.384564697265625,-6.460269451141357,-4.345994472503662,-2.3214364051818848
1761369645039174700,6.403174560546875,-7.138214588165283,-4.1587066650390625,-2.096287727355957
1761369645057786000,6.4217861328125,-7.103683948516846,-5.026888847351074,-1.894284725189209
1761369645076396000,6.44039599609375,-6.684096336364746,-4.896085739135742,-1.4743515253067017
1761369645095007500,6.459007568359375,-5.331914901733398,-3.8383591175079346,-1.8272879123687744
1761369645113617400,6.477617431640625,-4.070010185241699,-2.6323957443237305,-1.6067405939102173
1761369645132228900,6.496228759765625,-2.477999687194824,-1.0155797004699707,0.09370684623718262
1761369645150838800,6.5148388671875,-1.2885470390319824,0.6010909080505371,1.5792694091796875
1761369645169450000,6.533449951171875,-0.3201413154602051,2.576770782470703,1.1501792669296265
1761369645188060000,6.552059814453125,1.43524169921875,3.866257667541504,1.5749925374984741
1761369645206671400,6.57067138671875,3.3638243675231934,3.542844772338867,2.109923839569092
1761369645225281300,6.58928125,4.873093605041504,4.493373394012451,0.4863317012786865
1761369645243892700,6.607892822265625,6.671923637390137,5.701122283935547,0.0933225154876709
1761369645262502700,6.626502685546875,7.571303844451904,6.511910438537598,0.6205357313156128
1761369645281114000,6.645114013671875,7.265390396118164,6.595798492431641,1.1660579442977905
1761369645299724000,6.66372412109375,7.097318172454834,6.720582008361816,1.3025803565979004
1761369645318335500,6.68233544921875,4.888455390930176,3.626523494720459,3.3225083351135254
1761369645336945400,6.7009453125,1.3051986694335938,1.5811200141906738,2.394925594329834
1761369645355556600,6.719556640625,0.7195606231689453,1.9699959754943848,0.3961119055747986
1761369645374166500,6.73816650390625,2.9389305114746094,0.9298906326293945,2.3626134395599365
1761369645392778000,6.756778076171875,4.212345123291016,-0.12879705429077148,4.615943431854248
1761369645411388000,6.775387939453125,3.7277984619140625,-1.0184776782989502,4.426914215087891
1761369645429999400,6.793999267578125,1.232865333557129,-0.7312815189361572,1.4280061721801758
1761369645448609300,6.812609375,-1.7810473442077637,-1.786586046218872,-0.7099291086196899
1761369645467220700,6.831220703125,-3.5010342597961426,-2.7268500328063965,-1.9902368783950806
1761369645485830700,6.84983056640625,-4.247200012207031,-3.404564380645752,-2.3127095699310303
1761369645504441900,6.86844189453125,-4.808122634887695,-3.5775513648986816,-2.5084006786346436
1761369645523051800,6.8870517578125,-6.209332466125488,-4.9157490730285645,-1.6478924751281738
1761369645541663200,6.905663330078125,-7.609341144561768,-5.078697204589844,-1.089888095855713
1761369645560273200,6.924273193359375,-7.9917707443237305,-5.3677544593811035,-0.47459542751312256
1761369645578884600,6.942884521484375,-7.473995685577393,-5.458763122558594,-0.20481902360916138
1761369645597494500,6.96149462890625,-6.4367523193359375,-5.223739147186279,0.4296790361404419
1761369645616106000,6.98010595703125,-5.871459484100342,-5.414441108703613,0.6653876304626465
1761369645634716000,6.9987158203125,-4.849581718444824,-4.562213897705078,-0.9453100562095642
1761369645653327400,7.017327392578125,-3.678905487060547,-3.206735610961914,-2.5042014122009277
1761369645671937000,7.03593701171875,-2.254732370376587,-1.7716994285583496,-2.1101016998291016
1761369645690548500,7.054548583984375,-0.5749602317810059,-0.08129310607910156,-0.5587574243545532
1761369645709158400,7.073158447265625,1.1468796730041504,1.0719308853149414,0.6968942880630493
1761369645727769900,7.091769775390625,3.0773773193359375,1.928323745727539,1.3951622247695923
1761369645746379800,7.1103798828125,3.45823335647583,2.8620834350585938,1.2014031410217285
1761369645764991200,7.1289912109375,3.725367546081543,4.506827354431152,-0.733423113822937
1761369645783601200,7.14760107421875,3.7619357109069824,6.324934959411621,-2.3873581886291504
1761369645802212600,7.166212646484375,4.278186321258545,7.267178058624268,-1.4998338222503662
1761369645820822500,7.184822509765625,4.993448257446289,6.335524082183838,0.9572893977165222
1761369645839433700,7.203433837890625,5.80898904800415,5.508972644805908,1.420799732208252
1761369645858043600,7.222043701171875,4.814916610717773,3.1708855628967285,2.3329458236694336
1761369645876655000,7.240655029296875,2.4181785583496094,1.443901538848877,2.1579291820526123
1761369645895265000,7.25926513671875,2.348581314086914,0.9562625885009766,1.888025164604187
1761369645913876500,7.27787646484375,3.8528566360473633,-0.8362045288085938,3.7912023067474365
1761369645932486400,7.296486328125,4.105137825012207,-2.419126510620117,4.836791515350342
1761369645951097900,7.315097900390625,3.153397560119629,-2.246278762817383,2.9497838020324707
1761369645969707800,7.333707763671875,1.919851303100586,-1.7950741052627563,0.7065482139587402
1761369645988319200,7.3523193359375,0.8582992553710938,-1.6493834257125854,-0.7201245427131653
1761369646006929000,7.370928955078125,-0.2090625762939453,-1.8141343593597412,-1.4763798713684082
1761369646025540400,7.389540283203125,-1.5904803276062012,-1.9631074666976929,-1.9615552425384521
1761369646044150300,7.408150390625,-3.0215039253234863,-2.097728729248047,-2.0305838584899902
1761369646062761700,7.42676171875,-4.433254718780518,-2.413344383239746,-1.7830207347869873
1761369646081371600,7.44537158203125,-5.899318695068359,-2.8356852531433105,-1.5204026699066162
1761369646099983000,7.463983154296875,-7.083063125610352,-3.2473394870758057,-0.9958295226097107
1761369646118593000,7.482593017578125,-7.795902252197266,-3.4070122241973877,-0.4069991111755371
1761369646137204500,7.50120458984375,-7.86746883392334,-3.497318983078003,-0.12556862831115723
1761369646155814100,7.519814208984375,-7.156602382659912,-3.6930105686187744,-0.20010590553283691
1761369646174425600,7.538425537109375,-6.035024642944336,-3.923905372619629,-0.44662874937057495
1761369646193035500,7.557035400390625,-5.062861919403076,-3.4899864196777344,-0.5977826714515686
1761369646211647000,7.57564697265625,-4.242764949798584,-2.0888595581054688,-0.1798827052116394
1761369646230257000,7.5942568359375,-3.136343002319336,-0.7728114128112793,0.22436851263046265
1761369646248868400,7.612868408203125,-1.7663969993591309,-0.4506702423095703,-0.5117639899253845
1761369646267478300,7.631478271484375,0.3365774154663086,0.7695846557617188,-2.5992178916931152
1761369646286089500,7.65008935546875,3.8957176208496094,2.1351819038391113,-3.8035013675689697
1761369646304699400,7.668699462890625,5.644558906555176,2.7257070541381836,-4.520775318145752
1761369646323310800,7.687310791015625,4.878705024719238,5.232361793518066,-4.322295188903809
1761369646341920800,7.705920654296875,4.4795942306518555,6.919302463531494,-2.6414637565612793
1761369646360532200,7.7245322265625,5.617897987365723,7.102234840393066,-0.3096599280834198
1761369646379142100,7.74314208984375,5.390876770019531,4.172976970672607,2.9046685695648193
1761369646397753600,7.761753662109375,5.039040565490723,0.33174943923950195,4.4373931884765625
1761369646416363500,7.780363525390625,6.693225860595703,-1.948088526725769,2.3391406536102295
1761369646434974700,7.798974609375,8.189600944519043,-2.660106658935547,-0.18716013431549072
1761369646453584600,7.817584716796875,8.331615447998047,-2.049581527709961,-0.7823874950408936
1761369646472196000,7.836196044921875,6.387226104736328,-1.2835519313812256,1.0830600261688232
1761369646490806000,7.854805908203125,3.4800844192504883,-0.39530813694000244,3.0549166202545166
1761369646509417500,7.87341748046875,1.0952033996582031,0.15203171968460083,2.1614227294921875
1761369646528027400,7.89202734375,0.2936868667602539,0.9254321455955505,-0.8247621655464172
1761369646546638800,7.910638916015625,-0.00838470458984375,1.6515209674835205,-2.8756330013275146
1761369646565248800,7.929248779296875,-1.2490663528442383,2.1278395652770996,-2.531081199645996
1761369646583860200,7.947860107421875,-3.016141891479492,2.0971405506134033,-0.7861948013305664
1761369646602470000,7.966469970703125,-5.230935573577881,1.471733808517456,1.25947105884552
1761369646621081300,7.985081298828125,-7.41346549987793,0.5886267423629761,2.754518985748291
1761369646639691300,8.003691162109375,-8.641881942749023,-0.5799657702445984,2.5048437118530273
1761369646658302700,8.022302734375,-8.638261795043945,-1.4804753065109253,0.7353129982948303
1761369646676912600,8.04091259765625,-7.663931846618652,-2.1347501277923584,-1.195476770401001
1761369646695524000,8.059524169921875,-6.975469589233398,-2.68660569190979,-2.001648187637329
1761369646714134000,8.078134033203124,-6.502829551696777,-2.7060048580169678,-1.8498263359069824
1761369646732745500,8.096745361328125,-6.01363468170166,-2.2276268005371094,-1.902172327041626
1761369646751355100,8.115355224609376,-5.608344554901123,-1.8383381366729736,-2.0801031589508057
1761369646769966600,8.133966552734375,-3.777397632598877,-0.5844368934631348,-2.7119288444519043
1761369646788576500,8.152576416015625,-1.4187898635864258,0.8309736251831055,-2.860661745071411
1761369646807188000,8.17118798828125,0.6376514434814453,1.5178546905517578,-2.8855087757110596
1761369646825798000,8.1897978515625,2.7816877365112305,1.0170540809631348,-2.801447868347168
1761369646844409300,8.208409423828124,5.274026870727539,1.2690577507019043,-3.1835851669311523
1761369646863019300,8.227019287109375,8.31729793548584,1.9633231163024902,-3.7388272285461426
1761369646881630700,8.245630615234376,9.95810604095459,1.4391684532165527,-2.4227519035339355
1761369646900240400,8.264240478515624,10.245597839355469,0.6783196926116943,-0.13625508546829224
1761369646918851800,8.282851806640625,10.450448036193848,-0.37529802322387695,1.9580457210540771
1761369646937461800,8.301461669921874,10.072623252868652,-0.915357232093811,2.657289743423462
1761369646956073200,8.3200732421875,8.004608154296875,-0.6603701114654541,2.5919370651245117
1761369646974683100,8.33868310546875,4.853447914123535,0.0815657377243042,2.4139084815979004
1761369646993294600,8.357294677734375,2.3185720443725586,1.0068305730819702,2.5145859718322754
1761369647011904500,8.375904541015625,0.48097991943359375,1.3918331861495972,2.874898910522461
1761369647030515700,8.394515625,-1.0307540893554688,1.3369803428649902,3.0767524242401123
1761369647049125600,8.413125732421875,-2.1812868118286133,1.1556854248046875,2.452826976776123
1761369647067737000,8.431737060546874,-2.677002429962158,1.5538303852081299,1.1354247331619263
1761369647086347000,8.450346923828125,-2.684497833251953,2.278822183609009,0.1230243444442749
1761369647104958500,8.46895849609375,-2.868624687194824,3.0208818912506104,-0.16363900899887085
1761369647123568400,8.487568359375,-3.5415635108947754,3.136488914489746,0.3679032325744629
1761369647142179800,8.506179931640625,-4.874749183654785,2.2526297569274902,1.0133717060089111
1761369647160789800,8.524789794921874,-6.055438995361328,1.2478468418121338,1.1209890842437744
1761369647179401000,8.54340087890625,-6.890471458435059,0.3860752582550049,1.169281244277954
1761369647198011000,8.562010986328126,-6.992104530334473,-0.3398551940917969,1.3869876861572266
1761369647216622300,8.580622314453125,-5.658190727233887,-0.43698155879974365,1.5209931135177612
1761369647235232300,8.599232177734375,-4.3854660987854,-0.6551342010498047,2.1103463172912598
1761369647253843700,8.61784375,-3.4744739532470703,-0.9661659002304077,3.0372276306152344
1761369647272453600,8.63645361328125,-2.6659622192382812,-2.317807674407959,4.189591884613037
1761369647291065000,8.655065185546874,1.1517257690429688,-2.8783998489379883,2.015610694885254
1761369647309675000,8.673675048828125,5.4435272216796875,-2.4976024627685547,-2.045628070831299
1761369647328286500,8.692286376953126,5.674325942993164,-0.8848075866699219,-5.451404094696045
1761369647346896100,8.710896240234375,4.030667304992676,0.7918689250946045,-5.200680732727051
1761369647365507600,8.729507568359375,3.4913339614868164,2.6492810249328613,-4.099238395690918
1761369647384117500,8.748117431640624,3.6342458724975586,3.953972339630127,-3.166362762451172
1761369647402729000,8.76672900390625,4.4381256103515625,3.575608253479004,-1.8594481945037842
1761369647421339000,8.7853388671875,5.649916648864746,2.413888692855835,0.14553606510162354
1761369647439950300,8.803950439453125,6.213686943054199,1.7139816284179688,2.2053914070129395
1761369647458560300,8.822560302734376,5.6384782791137695,1.0875952243804932,3.410731792449951
1761369647477171700,8.841171630859375,4.415224075317383,0.41992437839508057,2.7708497047424316
1761369647495781400,8.859781494140625,2.6365480422973633,-0.053084611892700195,1.3995888233184814
1761369647514392800,8.878392822265624,1.063054084777832,-0.004850447177886963,0.5621252059936523
1761369647533002800,8.897002685546875,0.5092229843139648,0.26267075538635254,0.5893310308456421
1761369647551614200,8.9156142578125,-0.3462867736816406,0.035169124603271484,0.6862952709197998
1761369647570224000,8.93422412109375,-1.8126168251037598,-0.38429099321365356,0.4380621910095215
1761369647588835600,8.952835693359376,-2.743046760559082,-0.59253990650177,0.14507508277893066
1761369647607445500,8.971445556640624,-3.3065648078918457,-0.646881103515625,0.48961710929870605
1761369647626057000,8.990056884765625,-4.46337890625,-0.8218433856964111,0.839202880859375
1761369647644667000,9.0086669921875,-6.003630638122559,-0.33501386642456055,0.6374897956848145
1761369647663278300,9.0272783203125,-7.120537281036377,-0.2735574245452881,0.4647703170776367
1761369647681888000,9.045887939453126,-7.800999641418457,-0.6606392860412598,-0.0055904388427734375
1761369647700499500,9.06449951171875,-7.791468143463135,-1.0358667373657227,-0.9704971313476562
1761369647719109400,9.083109375,-7.1457839012146,-1.6300370693206787,-1.646843671798706
1761369647737720800,9.101720947265624,-6.181830883026123,-1.9503605365753174,-1.9987350702285767
1761369647756330800,9.120330810546875,-4.188702583312988,-1.3177802562713623,-2.0170493125915527
1761369647774942200,9.138942138671876,-1.9417076110839844,-0.745875358581543,-1.321940302848816
1761369647793552100,9.15755224609375,-0.10521125793457031,0.3056163787841797,-0.8806602954864502
1761369647812163600,9.17616357421875,1.8741745948791504,0.5784754753112793,-1.4645057916641235
1761369647830773500,9.1947734375,4.413046360015869,0.3898649215698242,-1.471143364906311
1761369647849384700,9.213384765625,5.488861083984375,0.8327217102050781,-1.3589255809783936
1761369647867994600,9.23199462890625,4.906027317047119,2.0059618949890137,-0.17888641357421875
1761369647886606000,9.250606201171875,5.763721466064453,3.7173080444335938,1.4257662296295166
1761369647905216000,9.269216064453126,8.036209106445312,5.191307067871094,2.187396764755249
1761369647923827500,9.287827392578125,10.020204544067383,4.477142333984375,3.8874359130859375
1761369647942437400,9.306437255859375,10.954975128173828,3.1485514640808105,5.273685455322266
1761369647961048800,9.325048828125,9.963957786560059,2.7197017669677734,5.308675765991211
1761369647979658800,9.34365869140625,6.375312805175781,2.229029655456543,4.625414848327637
1761369647998270200,9.362270263671874,1.9528722763061523,1.347245693206787,3.456660032272339
1761369648016879900,9.3808798828125,-1.0223312377929688,0.4304530620574951,1.923742413520813
1761369648035491300,9.3994912109375,-1.0986452102661133,0.05574655532836914,1.0696252584457397
1761369648054101200,9.418101318359374,0.7864828109741211,-0.21725797653198242,1.1674100160598755
1761369648072712700,9.436712646484375,1.4422569274902344,-0.3430652618408203,1.2893694639205933
1761369648091322600,9.455322509765624,-0.24871826171875,-0.2671051025390625,1.063197374343872
1761369648109934000,9.47393408203125,-2.6046905517578125,-0.32242870330810547,1.1868791580200195
1761369648128544000,9.4925439453125,-4.594324588775635,-0.44284605979919434,0.6275514960289001
1761369648147155500,9.511155517578125,-6.742251396179199,-1.2200818061828613,-0.08802163600921631
1761369648165765400,9.529765380859375,-8.123261451721191,-1.5405104160308838,-0.8337727785110474
1761369648184376800,9.548376953125,-8.740845680236816,-1.798408031463623,-1.4582116603851318
1761369648202986500,9.566986572265625,-9.446434020996094,-2.4402666091918945,-1.4329402446746826
1761369648221598000,9.585597900390624,-9.432164192199707,-2.6003925800323486,-1.3414937257766724
1761369648240208000,9.604207763671875,-8.55756664276123,-2.8999383449554443,-1.1708580255508423
1761369648258819300,9.6228193359375,-6.250666618347168,-2.7043213844299316,-0.8971260190010071
1761369648277429200,9.64142919921875,-4.794198036193848,-2.57393479347229,-0.5593780279159546
1761369648296040700,9.660040771484375,-3.603250026702881,-2.005722761154175,-0.2786480188369751
1761369648314650600,9.678650634765624,-1.9705867767333984,-1.315422534942627,-0.29743489623069763
1761369648333262000,9.697261962890625,-1.0299100875854492,-0.3983025550842285,-0.8518297672271729
1761369648351872000,9.7158720703125,-1.1573166847229004,0.4308905601501465,-1.8506736755371094
1761369648370483200,9.734483154296875,-0.9080400466918945,1.115673542022705,-1.420925259590149
1761369648389093400,9.75309326171875,1.832226276397705,1.9487595558166504,0.24122750759124756
1761369648407704600,9.77170458984375,5.316402912139893,2.6206283569335938,0.5512889623641968
1761369648426314500,9.790314453125,7.943915367126465,4.020224571228027,-0.1141730546951294
1761369648444926000,9.808926025390624,10.32546329498291,5.107896327972412,-1.0278538465499878
1761369648463535900,9.827535888671875,10.29546070098877,3.5389881134033203,0.5672369003295898
1761369648482147300,9.846147216796876,10.26750659942627,3.2707409858703613,1.5667210817337036
1761369648500757200,9.86475732421875,9.122150421142578,2.5953221321105957,2.4238524436950684
1761369648519368700,9.88336865234375,5.728489875793457,1.1632037162780762,3.038011074066162
1761369648537978600,9.901978515625,1.2982568740844727,-0.3100247383117676,3.031851291656494
1761369648556590000,9.920590087890625,-1.9802680015563965,-1.2102439403533936,1.5302574634552002
1761369648575200000,9.939199951171876,-1.813399314880371,-0.1615748405456543,-0.004462122917175293
1761369648593811500,9.9578115234375,-0.5389537811279297,0.055283546447753906,-0.33210206031799316
1761369648612421000,9.976421142578126,-0.6298646926879883,-0.784170389175415,-0.1355677843093872
1761369648631032600,9.995032470703125,-1.5640907287597656,-1.2527790069580078,0.12125706672668457
1761369648649642500,10.013642578125,-2.0569591522216797,-1.2500462532043457,0.3779449462890625
1761369648668254000,10.03225390625,-2.6771035194396973,-1.1198577880859375,0.09037899971008301
1761369648686864000,10.05086376953125,-3.779294013977051,-1.4953596591949463,-0.08726906776428223
1761369648705475300,10.069475341796876,-5.095921039581299,-2.222632884979248,-0.38637351989746094
1761369648724085200,10.088085205078125,-6.13279914855957,-2.7697837352752686,-0.8399893045425415
1761369648742696700,10.10669677734375,-6.354635238647461,-2.907033681869507,-1.0498539209365845
1761369648761306600,10.125306640625,-6.086638450622559,-3.2597298622131348,-1.2235182523727417
1761369648779918000,10.14391796875,-5.433804512023926,-3.574864149093628,-1.2385563850402832
1761369648798528000,10.162528076171874,-4.831785202026367,-3.6721420288085938,-1.2784254550933838
1761369648817139500,10.181139404296875,-4.067088603973389,-3.0764992237091064,-1.6607071161270142
1761369648835749400,10.199749267578126,-2.792056083679199,-1.8367829322814941,-1.9935383796691895
1761369648854360800,10.21836083984375,-1.5497689247131348,-0.789759635925293,-1.7661759853363037
1761369648872970500,10.236970458984375,0.26259469985961914,0.24887466430664062,-1.6059496402740479
1761369648891582000,10.25558203125,2.3202171325683594,1.0581650733947754,-1.7177512645721436
1761369648910191900,10.27419189453125,4.003332138061523,1.691263198852539,-1.322702169418335
1761369648928803300,10.29280322265625,4.8217244148254395,3.057128429412842,-0.00290071964263916
1761369648947413200,10.311413330078125,5.394374847412109,3.6893205642700195,1.5396770238876343
1761369648966024700,10.330024658203126,6.10776424407959,5.09685754776001,1.5930876731872559
1761369648984634600,10.348634521484374,6.413404941558838,5.972933292388916,-0.02380526065826416
1761369649003246000,10.36724609375,7.32602596282959,4.940628528594971,-0.25933027267456055
1761369649021856000,10.38585595703125,7.998324394226074,4.577734470367432,0.19442951679229736
1761369649040467500,10.404467529296875,8.892217636108398,5.4042558670043945,0.6083265542984009
1761369649059077400,10.423077392578126,7.698723793029785,3.1945247650146484,3.038234233856201
1761369649077688800,10.441688720703125,3.5673933029174805,1.3959832191467285,3.2247345447540283
1761369649096298800,10.460298828125,-1.2328195571899414,0.30637598037719727,1.1910163164138794
1761369649114910200,10.47891015625,-3.9967331886291504,0.028099536895751953,-0.7241130471229553
1761369649133520000,10.497519775390625,-4.996031284332275,-0.6374354362487793,-1.0702890157699585
1761369649152131300,10.51613134765625,-5.057747840881348,-1.4248337745666504,-0.5087262988090515
1761369649170741200,10.5347412109375,-4.631672382354736,-1.8815057277679443,-0.33365997672080994
1761369649189352700,10.553352783203126,-3.769798755645752,-2.071483850479126,-0.39376720786094666
1761369649207962600,10.571962646484375,-3.0528416633605957,-2.1941659450531006,-0.4476153254508972
1761369649226574000,10.590573974609375,-2.5975465774536133,-2.2753376960754395,-0.3906886875629425
1761369649245184000,10.60918408203125,-3.3234972953796387,-2.6098217964172363,-0.2294025421142578
1761369649263795500,10.62779541015625,-4.520427227020264,-2.8620874881744385,-0.12172520160675049
1761369649282405400,10.6464052734375,-5.282320499420166,-3.081932306289673,-0.4010370075702667
1761369649301016800,10.665016845703125,-5.625517845153809,-3.155745029449463,-0.6503890156745911
1761369649319626800,10.683626708984375,-5.94063138961792,-3.325806140899658,-0.5308969616889954
1761369649338238200,10.70223828125,-5.195607662200928,-2.7681610584259033,-1.0307002067565918
1761369649356848000,10.72084814453125,-4.149019241333008,-1.993530511856079,-1.5825657844543457
1761369649375459600,10.73945947265625,-3.1459689140319824,-1.2345008850097656,-1.433945655822754
1761369649394069500,10.758069580078125,-2.008212089538574,-0.9682917594909668,-0.29890894889831543
1761369649412680700,10.7766806640625,0.07482624053955078,-0.44257307052612305,-0.24621742963790894
1761369649431291000,10.795290771484375,3.033033847808838,0.6933755874633789,-0.10217851400375366
1761369649449902000,10.813902099609376,5.448219299316406,1.872793197631836,1.5130810737609863
1761369649468512300,10.83251220703125,5.966691493988037,2.199559211730957,1.9916465282440186
1761369649487123500,10.85112353515625,6.0117950439453125,2.478731155395508,-0.40112465620040894
1761369649505733400,10.8697333984375,5.236924171447754,3.549945831298828,-2.7241733074188232
1761369649524344800,10.8883447265625,4.27759313583374,4.742767333984375,-3.1485178470611572
1761369649542954800,10.906954833984376,2.9501171112060547,5.011794567108154,-1.0024034976959229
1761369649561566200,10.925566162109375,3.0126829147338867,4.570908546447754,1.5288329124450684
1761369649580176100,10.944176025390625,3.6450185775756836,4.109834671020508,2.000969409942627
1761369649598787600,10.96278759765625,3.189955711364746,2.567732810974121,1.2694191932678223
