time,seconds_elapsed,z,y,x
1761311035749738500,0.209738525390625,-0.0734872817993164,0.13134765625,0.20423400402069092
1761311035768349700,0.228349609375,-0.06787586212158203,0.06641960144042969,0.14014029502868652
1761311035786962400,0.24696240234375,-0.1533675193786621,-0.09313488006591797,0.07895135879516602
1761311035805573600,0.26557373046875,-0.21705245971679688,-0.17382526397705078,0.062117934226989746
1761311035824186400,0.284186279296875,-0.26174116134643555,-0.19320297241210938,0.045195817947387695
1761311035842797600,0.302797607421875,-0.3785276412963867,-0.3295893669128418,-0.08986735343933105
1761311035861410300,0.321410400390625,-0.4854116439819336,-0.4215965270996094,-0.4883326292037964
1761311035880021500,0.340021484375,-0.48481130599975586,-0.49024057388305664,-0.6694742441177368
1761311035898634200,0.35863427734375,-0.30954694747924805,-0.5562591552734375,-0.5746958255767822
1761311035917245400,0.377245361328125,-0.391324520111084,-0.5193347930908203,-0.4083665609359741
1761311035935858200,0.395858154296875,-0.6242365837097168,-0.1842503547668457,-0.42282938957214355
1761311035954469600,0.4144697265625,-0.8627114295959473,0.25316524505615234,-0.5762293338775635
1761311035973082000,0.43308203125,-0.866096019744873,0.5756587982177734,-0.47185635566711426
1761311035991693300,0.451693359375,-0.3208937644958496,0.7929763793945312,-0.38768839836120605
1761311036010306300,0.470306396484375,0.5810031890869141,0.9779229164123535,-0.35452377796173096
1761311036028917500,0.48891748046875,1.5458173751831055,1.1412415504455566,-0.6528977155685425
1761311036047530200,0.5075302734375,2.5953073501586914,0.9812178611755371,-0.8412777185440063
1761311036066141400,0.526141357421875,3.6792521476745605,1.0197348594665527,-0.6348551511764526
1761311036084754200,0.544754150390625,4.805080890655518,0.9726052284240723,-0.15263307094573975
1761311036103365400,0.563365478515625,5.376595497131348,0.39936208724975586,0.6062227487564087
1761311036121978000,0.58197802734375,4.97134256362915,-0.2672591209411621,0.9021032452583313
1761311036140589300,0.60058935546875,4.2257914543151855,-0.7102146148681641,0.822157621383667
1761311036159202000,0.6192021484375,3.7812700271606445,-1.0045442581176758,0.6744236946105957
1761311036177813200,0.637813232421875,2.9979772567749023,-1.1322646141052246,0.6658916473388672
1761311036196426000,0.656426025390625,2.2843017578125,-0.8159379959106445,1.0254473686218262
1761311036215037200,0.675037109375,1.529942512512207,-0.6807656288146973,1.701253890991211
1761311036233650000,0.69364990234375,0.6232643127441406,-0.575439453125,1.817082166671753
1761311036252261000,0.71226123046875,-0.07444572448730469,-0.3191256523132324,1.1289801597595215
1761311036270873900,0.730873779296875,-0.2678556442260742,-0.43532562255859375,0.7781943082809448
1761311036289485300,0.7494853515625,-0.2691164016723633,-0.5051918029785156,0.7611713409423828
1761311036308097800,0.768097900390625,-0.6626310348510742,-0.488314151763916,0.8574799299240112
1761311036326709200,0.786709228515625,-1.273148536682129,-0.5100164413452148,1.0289887189865112
1761311036345322000,0.805322021484375,-1.838637351989746,-0.60563063621521,0.9577847123146057
1761311036363933200,0.82393310546875,-2.353425979614258,-0.7237286567687988,0.515081524848938
1761311036382546000,0.8425458984375,-2.6724605560302734,-0.6615300178527832,-0.00894308090209961
1761311036401157000,0.8611572265625,-2.367171287536621,-0.5160412788391113,0.15785789489746094
1761311036419769900,0.879769775390625,-1.8390417098999023,-0.5729885101318359,0.7909333109855652
1761311036438381000,0.898381103515625,-1.5216259956359863,-0.8201825618743896,0.9643412828445435
1761311036456993800,0.916993896484375,-1.3218388557434082,-1.2819757461547852,0.9433213472366333
1761311036475605000,0.93560498046875,-0.9800815582275391,-1.7097623348236084,0.8230140209197998
1761311036494217700,0.9542177734375,-0.36461877822875977,-1.885901689529419,0.7612472176551819
1761311036512829200,0.9728291015625,0.353912353515625,-1.7470781803131104,1.098708987236023
1761311036531442000,0.99144189453125,1.1299691200256348,-1.011167049407959,1.110661268234253
1761311036550053000,1.01005322265625,1.6367254257202148,0.02197122573852539,0.5087425708770752
1761311036568665900,1.028665771484375,2.544511318206787,1.2069048881530762,-0.3608356714248657
1761311036587277000,1.047277099609375,3.8301124572753906,1.4450349807739258,-0.11911225318908691
1761311036605889800,1.065889892578125,5.3835930824279785,1.6553449630737305,-0.20001840591430664
1761311036624501000,1.0845009765625,7.324819564819336,1.6898508071899414,-0.5073666572570801
1761311036643113700,1.10311376953125,8.036386489868164,1.2734174728393555,-0.3388082981109619
1761311036661725000,1.121724853515625,6.959117889404297,1.5700998306274414,-0.587763786315918
1761311036680337700,1.140337646484375,4.860634803771973,2.0878353118896484,-0.5490360260009766
1761311036698949000,1.15894921875,1.8047151565551758,1.8238677978515625,-0.29433703422546387
1761311036717561900,1.177561767578125,-1.3085756301879883,1.8241167068481445,-1.0484631061553955
1761311036736173000,1.196173095703125,-2.913850784301758,1.8942546844482422,-0.2826986312866211
1761311036754785800,1.214785888671875,-1.6773242950439453,1.8244071006774902,2.326946973800659
1761311036773397000,1.23339697265625,0.226898193359375,0.7506113052368164,4.5543904304504395
1761311036792009700,1.252009765625,1.0714740753173828,0.04062175750732422,3.3673815727233887
1761311036810621000,1.270620849609375,0.4688739776611328,-0.3371891975402832,0.06315422058105469
1761311036829233700,1.289233642578125,-1.1564016342163086,-1.031839370727539,-1.5137587785720825
1761311036847845000,1.30784521484375,-3.5127906799316406,-1.2547576427459717,-2.159395694732666
1761311036866457900,1.326457763671875,-5.896142959594727,-0.4734616279602051,-3.174217700958252
1761311036885069000,1.345069091796875,-6.611252784729004,-0.3541717529296875,-2.740494728088379
1761311036903681800,1.363681884765625,-5.878433704376221,0.18229341506958008,-3.4716036319732666
1761311036922293000,1.38229296875,-4.339741230010986,-1.0232477188110352,-1.8323802947998047
1761311036940905700,1.40090576171875,-2.6133055686950684,-1.1573565006256104,-1.029274344444275
1761311036959517000,1.419516845703125,-1.094191551208496,-1.2748236656188965,-0.1903935670852661
1761311036978129700,1.438129638671875,-0.562347412109375,-1.9063942432403564,0.7292676568031311
1761311036996740900,1.456740966796875,-0.5536365509033203,-2.590893268585205,1.0538067817687988
1761311037015353900,1.475353759765625,-0.6649670600891113,-2.720513105392456,0.7568652629852295
1761311037033965000,1.493965087890625,-0.10213279724121094,-2.43938946723938,0.6612614393234253
1761311037052577800,1.512577880859375,1.3657541275024414,-2.362457275390625,0.8715758323669434
1761311037071189000,1.53118896484375,2.5202064514160156,-2.700967788696289,0.7664116024971008
1761311037089801700,1.5498017578125,2.391921043395996,-2.8264503479003906,-0.18095767498016357
1761311037108413000,1.568412841796875,1.3647613525390625,-2.1592483520507812,-0.5495390892028809
1761311037127025700,1.587025634765625,-0.13992834091186523,-1.0717482566833496,-0.6279040575027466
1761311037145636900,1.605636962890625,-1.3724627494812012,0.3281979560852051,-2.0115299224853516
1761311037164249900,1.624249755859375,-1.3904991149902344,1.3660531044006348,-3.04453706741333
1761311037182861000,1.642861083984375,-0.17206192016601562,1.808664321899414,-2.6401009559631348
1761311037201473800,1.661473876953125,1.8002610206604004,2.0923805236816406,-1.0157603025436401
1761311037220085000,1.6800849609375,3.9111781120300293,2.7242355346679688,0.7660995721817017
1761311037238697700,1.69869775390625,5.860843181610107,2.7763805389404297,2.8359851837158203
1761311037257309000,1.717308837890625,5.741092681884766,2.2707815170288086,4.320245742797852
1761311037275921700,1.735921630859375,3.35396671295166,1.7243413925170898,4.411862373352051
1761311037294533000,1.754533203125,0.3819856643676758,1.5573501586914062,3.1675500869750977
1761311037313145900,1.773145751953125,-1.8467931747436523,1.738917350769043,1.280118465423584
1761311037331757000,1.791757080078125,-3.1437673568725586,1.7588748931884766,0.2305295467376709
1761311037350369800,1.810369873046875,-4.03696870803833,1.554290771484375,0.07677161693572998
1761311037368981000,1.82898095703125,-4.549539089202881,1.5676851272583008,0.2882506847381592
1761311037387593700,1.84759375,-4.40079402923584,1.0196647644042969,1.113795280456543
1761311037406205000,1.866204833984375,-4.0419535636901855,0.25940895080566406,1.9383611679077148
1761311037424818000,1.88481787109375,-3.649318218231201,-0.4513988494873047,2.184746742248535
1761311037443429000,1.90342919921875,-3.5550789833068848,-0.7866473197937012,1.4057883024215698
1761311037462041900,1.922041748046875,-3.3182473182678223,-0.8703784942626953,0.5128699541091919
1761311037480653000,1.940653076171875,-2.5649452209472656,-1.0129988193511963,0.3957078456878662
1761311037499265800,1.959265869140625,-0.9865617752075195,-1.0959184169769287,0.7351901531219482
1761311037517877000,1.977876953125,1.0142755508422852,-1.0881352424621582,1.3794667720794678
1761311037536489700,1.99648974609375,2.510158061981201,-1.0157432556152344,2.3118927478790283
1761311037555101200,2.01510107421875,3.7640132904052734,0.3162050247192383,1.5708568096160889
1761311037573714000,2.0337138671875,4.965465545654297,1.5023550987243652,0.43345022201538086
1761311037592325000,2.0523251953125,6.350520133972168,1.9423518180847168,-0.35773515701293945
1761311037610937900,2.070937744140625,8.009614944458008,1.8706660270690918,-0.8844523429870605
1761311037629549000,2.089549072265625,8.938167572021484,1.713019847869873,-1.2465004920959473
1761311037648161800,2.108161865234375,8.386531829833984,2.005253314971924,-2.113528251647949
1761311037666773000,2.12677294921875,6.546049118041992,2.309584617614746,-3.2863609790802
1761311037685386000,2.145385986328125,4.003288269042969,1.9465198516845703,-3.6203835010528564
1761311037703997200,2.1639970703125,1.3953914642333984,0.7247638702392578,-2.684450626373291
1761311037722610000,2.18260986328125,-1.0042266845703125,-0.6819610595703125,-0.9380320906639099
1761311037741221000,2.20122119140625,-3.1306939125061035,-1.5146188735961914,0.1204567551612854
1761311037759833900,2.219833740234375,-4.721078872680664,-0.8548088073730469,0.8639569282531738
1761311037778445000,2.238445068359375,-4.992898941040039,-0.672327995300293,1.0830848217010498
1761311037797057800,2.257057861328125,-3.659480094909668,-2.060969352722168,0.5399158000946045
1761311037815669200,2.275669189453125,-2.3368964195251465,-3.1448285579681396,-0.8405998349189758
1761311037834282000,2.294281982421875,-2.001718521118164,-3.427584648132324,-2.304645299911499
1761311037852893200,2.31289306640625,-2.714041233062744,-3.3193514347076416,-2.817625045776367
1761311037871506000,2.331505859375,-3.603675365447998,-2.886568784713745,-2.4826107025146484
1761311037890117000,2.3501171875,-3.693819999694824,-2.509646415710449,-2.293153762817383
1761311037908729900,2.368729736328125,-3.4696249961853027,-2.5129196643829346,-1.7484893798828125
1761311037927341300,2.38734130859375,-3.24044132232666,-2.6591265201568604,-1.1531010866165161
1761311037945954000,2.4059541015625,-3.2595834732055664,-2.3575339317321777,-0.017156124114990234
1761311037964565200,2.424565185546875,-3.624455451965332,-1.5839414596557617,1.9712340831756592
1761311037983178000,2.443177978515625,-3.152869701385498,-0.09179401397705078,3.334280490875244
1761311038001789200,2.4617890625,-0.9401984214782715,0.945035457611084,3.651118755340576
1761311038020402000,2.48040185546875,2.3676509857177734,0.6602544784545898,3.7465171813964844
1761311038039013400,2.499013427734375,5.56151008605957,0.6473116874694824,3.003384590148926
1761311038057626000,2.517626220703125,8.120100975036621,0.5632104873657227,2.3370091915130615
1761311038076237300,2.5362373046875,8.981544494628906,-0.6989932060241699,2.043379783630371
1761311038094850000,2.55485009765625,7.7847089767456055,-1.0532073974609375,1.0384752750396729
1761311038113461200,2.573461181640625,5.667214393615723,-0.3516726493835449,0.19737482070922852
1761311038132074000,2.592073974609375,2.9544906616210938,0.9659848213195801,-1.3614535331726074
1761311038150685400,2.610685546875,0.6233997344970703,2.72792387008667,-3.711639404296875
1761311038169298200,2.629298095703125,-0.45316410064697266,3.068282127380371,-4.052491664886475
1761311038187909400,2.647909423828125,-0.4755897521972656,2.7346749305725098,-2.7073521614074707
1761311038206522000,2.666522216796875,0.5792531967163086,2.73245906829834,-1.4344041347503662
1761311038225133300,2.68513330078125,2.2536706924438477,2.2739577293395996,-1.0070290565490723
1761311038243746300,2.703746337890625,3.4657669067382812,1.422391414642334,-0.9900963306427002
1761311038262357500,2.722357421875,3.67917537689209,0.795102596282959,-0.5411815643310547
1761311038280970200,2.74097021484375,2.8952159881591797,-0.817840576171875,0.7092885971069336
1761311038299581400,2.75958154296875,0.9854803085327148,-2.3501484394073486,1.3750842809677124
1761311038318194200,2.778194091796875,-1.3435535430908203,-3.570970058441162,1.7213400602340698
1761311038336805400,2.796805419921875,-3.1920218467712402,-3.986881732940674,1.5927220582962036
1761311038355418000,2.815418212890625,-4.037382125854492,-4.400628089904785,1.1237016916275024
1761311038374029600,2.834029541015625,-4.937681198120117,-4.650485515594482,-0.019466876983642578
1761311038392642300,2.852642333984375,-5.988816261291504,-4.42096471786499,-0.30503010749816895
1761311038411253500,2.87125341796875,-6.821494102478027,-4.084641456604004,0.39855360984802246
1761311038429866200,2.8898662109375,-6.660705089569092,-3.3483948707580566,0.6815602779388428
1761311038448477400,2.9084775390625,-4.990606307983398,-2.0875191688537598,-0.2523314952850342
1761311038467090400,2.92709033203125,-3.8897440433502197,-2.624300718307495,0.8381783962249756
1761311038485701600,2.94570166015625,-2.410123825073242,-2.608476161956787,1.351591944694519
1761311038504314400,2.964314453125,-0.26337623596191406,-1.4340758323669434,0.004070281982421875
1761311038522925600,2.982925537109375,2.107085704803467,0.1620011329650879,-1.4944806098937988
1761311038541538300,3.001538330078125,3.5649657249450684,1.4259490966796875,-2.1475818157196045
1761311038560149500,3.0201494140625,5.10018253326416,0.31421518325805664,-1.559894323348999
1761311038578762500,3.038762451171875,7.556696891784668,0.5772809982299805,-3.6098711490631104
1761311038597373700,3.057373779296875,9.633330345153809,1.0771656036376953,-3.611264228820801
1761311038615986400,3.075986328125,8.213319778442383,2.357116222381592,-1.165414571762085
1761311038634597600,3.09459765625,3.9345340728759766,1.3293652534484863,1.6696230173110962
1761311038653210400,3.11321044921875,-0.20287656784057617,-0.16213130950927734,0.8202822208404541
1761311038671821800,3.13182177734375,-4.229625701904297,-2.78825044631958,0.27799558639526367
1761311038690434600,3.1504345703125,-2.7578325271606445,-2.268639326095581,-0.5653347969055176
1761311038709045800,3.169045654296875,0.02619647979736328,-0.37586379051208496,-1.0714824199676514
1761311038727658500,3.187658447265625,-0.9969377517700195,-1.52774178981781,1.0102112293243408
1761311038746269700,3.206269775390625,-4.527124881744385,-2.8770809173583984,1.3564714193344116
1761311038764882700,3.224882568359375,-5.408067226409912,-1.8784550428390503,0.06770384311676025
1761311038783494000,3.243493896484375,-2.9555249214172363,-0.8379695415496826,0.01694810390472412
1761311038802106600,3.262106689453125,-1.8338804244995117,0.8309623003005981,-0.6705951690673828
1761311038820717800,3.2807177734375,-1.9955663681030273,1.7101644277572632,-1.6680123805999756
1761311038839330600,3.29933056640625,-1.5902471542358398,1.8966832160949707,-1.7883636951446533
1761311038857942000,3.31794189453125,-1.7838420867919922,1.5011931657791138,-1.716909408569336
1761311038876554800,3.3365546875,-3.105499744415283,0.8828907608985901,-0.7347759008407593
1761311038895166000,3.355166015625,-2.2691783905029297,0.3294413685798645,-0.053703904151916504
1761311038913778700,3.37377880859375,-0.602869987487793,-0.3513047695159912,-0.9720715880393982
1761311038932390000,3.392389892578125,-0.31624603271484375,-0.9182987213134766,-2.538701295852661
1761311038951003000,3.4110029296875,-0.17435073852539062,-1.4618277549743652,-1.8414523601531982
1761311038969614000,3.429614013671875,-1.2345666885375977,-2.3190207481384277,-0.5625173449516296
1761311038988226800,3.448226806640625,-1.3716497421264648,-2.101572036743164,0.621248722076416
1761311039006838000,3.466838134765625,-0.9496088027954102,-1.7699135541915894,1.9191875457763672
1761311039025450800,3.48545068359375,0.0828866958618164,-1.8037834167480469,3.9037108421325684
1761311039044062000,3.50406201171875,3.0463266372680664,-1.9973324537277222,3.4376637935638428
1761311039062675000,3.522675048828125,6.642729759216309,-2.205176830291748,0.08221963047981262
1761311039081286100,3.5412861328125,8.931147575378418,-2.0730180740356445,-2.611830949783325
1761311039099899000,3.55989892578125,7.500063896179199,-0.25522947311401367,-3.3670756816864014
1761311039118510000,3.578510009765625,4.823783874511719,1.4278273582458496,-2.3486764430999756
1761311039137123000,3.597123046875,2.377208709716797,2.866652488708496,-3.772676944732666
1761311039155734300,3.615734375,-0.08844947814941406,2.6278324127197266,-5.54142427444458
1761311039174347000,3.634346923828125,-0.06918525695800781,1.0861196517944336,-6.5001373291015625
1761311039192958200,3.652958251953125,2.6556320190429688,-0.822392463684082,-3.2544498443603516
1761311039211571000,3.671571044921875,5.423492431640625,-1.5326977968215942,1.9191510677337646
1761311039230182400,3.690182373046875,5.645806312561035,-1.5096967220306396,5.614283561706543
1761311039248795100,3.708795166015625,3.311643600463867,-0.8103104829788208,6.060844421386719
1761311039267406300,3.72740625,0.058223724365234375,0.1651989221572876,4.384854793548584
1761311039286019000,3.74601904296875,-2.4509029388427734,0.8645745515823364,2.342646837234497
1761311039304630300,3.76463037109375,-3.958508014678955,1.560746431350708,0.10819631814956665
1761311039323243000,3.783242919921875,-4.119478702545166,2.994727373123169,-1.8360493183135986
1761311039341854500,3.8018544921875,-3.602656364440918,3.523179531097412,-2.0052967071533203
1761311039360467200,3.82046728515625,-2.9509973526000977,3.895803213119507,-1.4315928220748901
1761311039379078400,3.839078369140625,-3.1676464080810547,3.831756114959717,-0.445706844329834
1761311039397691100,3.857691162109375,-4.246743679046631,3.090989351272583,0.4292813539505005
1761311039416302600,3.876302490234375,-5.642739295959473,2.502953290939331,0.5481128096580505
1761311039434915300,3.894915283203125,-6.659390449523926,1.9866478443145752,0.04577147960662842
1761311039453526500,3.913526611328125,-6.189123153686523,0.9404498338699341,-0.27813220024108887
1761311039472139300,3.93213916015625,-5.107283592224121,-0.014739751815795898,-0.36506491899490356
1761311039490750500,3.95075048828125,-4.5826497077941895,-0.49521225690841675,0.2836122512817383
1761311039509363500,3.969363525390625,-4.270407199859619,-0.719871461391449,1.2215312719345093
1761311039527974700,3.987974609375,-3.1995692253112793,-0.8502134084701538,1.4233675003051758
1761311039546587400,4.00658740234375,-1.7467594146728516,-0.9359235763549805,0.8054602742195129
1761311039565198600,4.025198486328125,0.5519475936889648,-0.957965612411499,0.45440518856048584
1761311039583811300,4.043811279296875,3.4222536087036133,-1.411653757095337,0.9934260249137878
1761311039602422800,4.0624228515625,5.8775434494018555,-2.2460148334503174,2.621690511703491
1761311039621035500,4.081035400390625,7.031256675720215,-3.4515018463134766,3.472410202026367
1761311039639646700,4.099646728515625,9.375653266906738,-3.5483052730560303,3.342989444732666
1761311039658259500,4.118259521484375,12.494447708129883,-3.498023271560669,3.906403064727783
1761311039676871000,4.136870849609375,13.96271800994873,-2.622025728225708,3.493356227874756
1761311039695483600,4.155483642578125,13.662484169006348,-1.3034656047821045,2.3319413661956787
1761311039714094800,4.1740947265625,12.585310935974121,0.44404518604278564,0.29936057329177856
1761311039732707600,4.19270751953125,10.251827239990234,2.123377561569214,-1.065591812133789
1761311039751318800,4.21131884765625,6.4275970458984375,2.855189085006714,-1.850845217704773
1761311039769931800,4.229931884765625,3.211690902709961,3.154773473739624,-1.4326907396316528
1761311039788543000,4.24854296875,1.890655517578125,3.4474382400512695,-1.1681114435195923
1761311039807155700,4.26715576171875,0.9420022964477539,2.9240050315856934,-0.7621116042137146
1761311039825767000,4.285766845703125,-0.33350467681884766,2.264406681060791,-0.8222060799598694
1761311039844380000,4.3043798828125,-1.8443183898925781,1.7943319082260132,-1.7686536312103271
1761311039862991000,4.3229912109375,-3.355268955230713,1.1929138898849487,-2.7364537715911865
1761311039881603800,4.341603759765625,-4.613352298736572,0.12137740850448608,-3.143737316131592
1761311039900215000,4.360215087890625,-5.4636993408203125,-1.2726787328720093,-3.0924198627471924
1761311039918828000,4.378828125,-6.201198101043701,-2.138011932373047,-1.785147786140442
1761311039937439200,4.397439208984375,-7.109780788421631,-3.81559419631958,-0.9140985012054443
1761311039956052000,4.416052001953125,-6.944176197052002,-4.767438888549805,-0.04185009002685547
1761311039974663200,4.4346630859375,-5.048880577087402,-5.330685615539551,0.10608398914337158
1761311039993276000,4.45327587890625,-4.600240707397461,-6.205785274505615,0.6982219219207764
1761311040011887400,4.471887451171875,-4.922932147979736,-6.305239677429199,1.457383394241333
1761311040030500000,4.4905,-5.4018659591674805,-5.1366119384765625,1.6327600479125977
1761311040049111300,4.509111328125,-4.912191867828369,-3.01202654838562,0.6461374759674072
1761311040067724000,4.52772412109375,-2.8479647636413574,-0.48114585876464844,-1.064418077468872
1761311040086335500,4.54633544921875,1.2034592628479004,1.2010526657104492,-0.8097396492958069
1761311040104948200,4.5649482421875,5.8035969734191895,0.703000545501709,1.2715635299682617
1761311040123559400,4.583559326171875,8.391883850097656,0.13161563873291016,1.9319926500320435
1761311040142172200,4.602172119140625,7.258847236633301,0.8133983612060547,0.9526467323303223
1761311040160783400,4.620783447265625,5.536004543304443,2.0840821266174316,0.036041975021362305
1761311040179396400,4.639396240234375,4.414498329162598,2.593728542327881,0.05572378635406494
1761311040198007600,4.658007568359375,3.2760372161865234,2.8108320236206055,-0.026530146598815918
1761311040216620300,4.676620361328125,1.5942111015319824,2.211360454559326,0.48679542541503906
1761311040235231500,4.6952314453125,-0.0723867416381836,0.9731574058532715,0.6052737236022949
1761311040253844500,4.713844482421875,-1.1893219947814941,0.5641698837280273,-0.3190946578979492
1761311040272455700,4.73245556640625,-0.8917546272277832,0.2091832160949707,-1.5679231882095337
1761311040291068400,4.751068359375,-1.3285675048828125,-0.49820947647094727,-1.63238525390625
1761311040309679600,4.7696796875,-2.8082008361816406,-0.6733388900756836,-0.9789902567863464
1761311040328292600,4.788292724609375,-4.256862640380859,-1.1181058883666992,-0.35240185260772705
1761311040346903800,4.80690380859375,-4.366339683532715,-1.5039949417114258,-0.48258233070373535
1761311040365516500,4.8255166015625,-3.5852231979370117,-1.7601313591003418,-0.47491219639778137
1761311040384127700,4.844127685546875,-3.130807399749756,-1.8594727516174316,-0.2559164762496948
1761311040402740700,4.86274072265625,-2.964418888092041,-1.9790985584259033,-0.14582106471061707
1761311040421352000,4.88135205078125,-2.4176578521728516,-2.210402011871338,0.002653658390045166
1761311040439964700,4.899964599609375,-2.3615403175354004,-2.2628374099731445,0.07434302568435669
1761311040458576000,4.918575927734375,-2.564894199371338,-2.0421183109283447,0.009079813957214355
1761311040477188900,4.93718896484375,-3.1509623527526855,-2.0010719299316406,-0.15076303482055664
1761311040495800000,4.955800048828125,-3.433910369873047,-1.738119125366211,-0.46804338693618774
1761311040514412800,4.974412841796875,-2.134110450744629,-1.6234731674194336,-0.7029540538787842
1761311040533024000,4.99302392578125,-0.5659127235412598,-0.19250965118408203,0.20240342617034912
1761311040551637000,5.011636962890625,-1.2274169921875,2.281966209411621,2.3397045135498047
1761311040570248200,5.030248291015625,2.7179760932922363,4.791429042816162,5.145542144775391
1761311040588861000,5.04886083984375,8.843417167663574,3.6137290000915527,5.41607666015625
1761311040607472000,5.06747216796875,13.221179962158203,2.3036742210388184,2.1284756660461426
1761311040626085000,5.086085205078125,15.673710823059082,1.6499080657958984,0.4976527690887451
1761311040644696300,5.1046962890625,14.624883651733398,2.639608860015869,0.5372539758682251
1761311040663309000,5.12330908203125,9.688065528869629,3.3829188346862793,1.3849862813949585
1761311040681920300,5.141920166015625,4.487390518188477,3.5270371437072754,0.965140700340271
1761311040700533200,5.160533203125,0.39571571350097656,3.065847873687744,-0.46581608057022095
1761311040719144400,5.17914453125,-3.441328525543213,2.2514638900756836,-1.2035176753997803
1761311040737757200,5.197757080078125,-5.410574913024902,1.7112140655517578,-0.9792294502258301
1761311040756368400,5.216368408203125,-5.490499496459961,1.031341552734375,-0.9126147627830505
1761311040774981400,5.2349814453125,-4.299457550048828,0.08543825149536133,-0.29709768295288086
1761311040793592600,5.253592529296875,-3.2904086112976074,-1.2231051921844482,0.7152507305145264
1761311040812205300,5.272205322265625,-2.9955320358276367,-2.0922415256500244,0.6579674482345581
1761311040830816500,5.29081640625,-2.9377174377441406,-2.334009885787964,-1.1394007205963135
1761311040849429500,5.309429443359375,-2.7397403717041016,-2.352992534637451,-2.6219029426574707
1761311040868040700,5.328040771484375,-2.4992589950561523,-2.0965592861175537,-2.7103211879730225
1761311040886653400,5.3466533203125,-3.1876096725463867,-2.7874879837036133,-1.3875874280929565
1761311040905265000,5.365264892578125,-4.061061382293701,-3.445115089416504,-0.17026250064373016
1761311040923877600,5.383877685546875,-3.5399856567382812,-3.999331474304199,0.8196690082550049
1761311040942488800,5.40248876953125,-2.253127098083496,-4.369841575622559,1.1466774940490723
1761311040961101600,5.4211015625,-0.7996745109558105,-4.474407196044922,0.8594070076942444
1761311040979713000,5.439713134765625,0.9578390121459961,-4.137853145599365,0.36643314361572266
1761311040998325800,5.45832568359375,1.0953717231750488,-2.8628673553466797,-0.5442624092102051
1761311041016937000,5.47693701171875,0.4525318145751953,-1.1560544967651367,-1.0355912446975708
1761311041035549700,5.4955498046875,0.34070396423339844,0.5443687438964844,-0.7959251403808594
1761311041054161200,5.5141611328125,0.8423237800598145,1.325930118560791,0.618071973323822
1761311041072774000,5.53277392578125,1.7691755294799805,1.217273235321045,2.54093599319458
1761311041091385000,5.551385009765625,2.4493908882141113,1.8617825508117676,1.7723366022109985
1761311041109997800,5.569997802734375,1.4499545097351074,2.0648374557495117,0.6428278684616089
1761311041128609300,5.588609375,0.2539181709289551,2.0172839164733887,-0.02265426516532898
1761311041147222000,5.607221923828125,0.454587459564209,2.345128059387207,-0.35774633288383484
1761311041165833200,5.625833251953125,1.677687168121338,2.0237464904785156,0.6761128902435303
1761311041184446200,5.6444462890625,2.184347152709961,1.6390714645385742,0.9450496435165405
1761311041203057400,5.663057373046875,1.066643238067627,1.0237975120544434,0.9813351035118103
1761311041221670100,5.681670166015625,-0.5698671340942383,0.7346081733703613,0.9133992195129395
1761311041240281300,5.70028125,-0.844480037689209,0.6007523536682129,1.057271957397461
1761311041258894300,5.718894287109375,-0.44019412994384766,0.13340044021606445,1.268141269683838
1761311041277505500,5.737505615234375,-0.6628551483154297,-0.453585147857666,1.00166654586792
1761311041296118300,5.7561181640625,-1.3123736381530762,-1.2437305450439453,0.6529808640480042
1761311041314729700,5.774729736328125,-1.5754127502441406,-2.1359915733337402,0.2848374843597412
1761311041333342500,5.793342529296875,-1.4862890243530273,-3.0611233711242676,-0.08224643766880035
1761311041351953700,5.81195361328125,-1.4326119422912598,-3.5994620323181152,-0.4211278259754181
1761311041370566400,5.83056640625,-1.6118483543395996,-3.818256139755249,-0.5085539221763611
1761311041389177900,5.849177734375,-2.396994113922119,-3.6588733196258545,-0.4905610978603363
1761311041407790600,5.86779052734375,-3.3267555236816406,-3.554088592529297,-0.30586132407188416
1761311041426401800,5.88640185546875,-3.8133227825164795,-3.2512080669403076,-0.007211282849311829
1761311041445014800,5.905014892578125,-3.637021780014038,-2.93550443649292,0.3932522237300873
1761311041463626000,5.9236259765625,-2.9449567794799805,-2.7259140014648438,1.115769386291504
1761311041482238700,5.94223876953125,-2.2718567848205566,-2.0790882110595703,1.958864688873291
1761311041500850000,5.960849853515625,-1.2007298469543457,-0.871859073638916,3.1510863304138184
1761311041519463000,5.979462890625,0.5880546569824219,0.6096096038818359,4.928867340087891
1761311041538074000,5.99807421875,2.327012538909912,2.3803930282592773,5.705315113067627
1761311041556686800,6.016686767578125,3.808138847351074,2.9682555198669434,5.419896602630615
1761311041575298300,6.03529833984375,6.017643451690674,3.0440754890441895,4.314113140106201
1761311041593911000,6.0539111328125,8.257973670959473,3.649160861968994,2.1710164546966553
1761311041612522200,6.072522216796875,8.448600769042969,5.109109878540039,-0.170010507106781
1761311041631135200,6.09113525390625,5.841456413269043,5.86675500869751,-1.0395214557647705
1761311041649746400,6.109746337890625,2.191540241241455,5.934022903442383,-2.0311291217803955
1761311041668359200,6.128359130859375,-0.6872105598449707,3.5090408325195312,-2.019946813583374
1761311041686970600,6.146970703125,-3.1267032623291016,0.03731393814086914,-1.5274336338043213
1761311041705583400,6.165583251953125,-5.2785162925720215,-2.624842643737793,-1.1103532314300537
1761311041724194600,6.184194580078125,-6.746833324432373,-4.902904510498047,-2.2843234539031982
1761311041742807600,6.2028076171875,-7.9221014976501465,-5.727818489074707,-3.576136827468872
1761311041761418800,6.221418701171875,-8.443741798400879,-5.762844085693359,-3.800032138824463
1761311041780031500,6.240031494140625,-9.304262161254883,-7.046360015869141,-3.7938177585601807
1761311041798643000,6.258642822265625,-8.505510330200195,-8.305673599243164,-3.577329397201538
1761311041817255700,6.277255615234375,-1.9061684608459473,-6.019442558288574,-5.392680644989014
1761311041835867000,6.295866943359375,2.4434947967529297,-3.7797675132751465,-4.941492080688477
1761311041854480000,6.31447998046875,4.121007919311523,-2.241633892059326,-2.333230972290039
1761311041873091000,6.333091064453125,3.287470817565918,-0.1476428508758545,1.242905855178833
1761311041891703800,6.351703857421875,0.7093267440795898,0.8960437774658203,3.6476876735687256
1761311041910315300,6.370315185546875,-2.1371254920959473,0.8813259601593018,3.107130527496338
1761311041928928000,6.388927978515625,-4.416270732879639,0.6447255611419678,1.069230556488037
1761311041947539200,6.407539306640625,-5.679255485534668,0.9138767719268799,0.5545150637626648
1761311041966152200,6.426152099609375,-4.876794815063477,1.1394119262695312,1.5022633075714111
1761311041984763400,6.444763427734375,-0.8954639434814453,1.1261250972747803,3.366164207458496
1761311042003376000,6.463376220703125,4.8560895919799805,0.5918278694152832,4.787694931030273
1761311042021987600,6.481987548828125,9.54274845123291,-0.6786818504333496,5.22175407409668
1761311042040600300,6.500600341796875,12.023115158081055,-0.7966046333312988,4.622122287750244
1761311042059211500,6.51921142578125,13.557890892028809,-0.32497406005859375,3.9215316772460938
1761311042077824500,6.537824462890625,15.710610389709473,-0.41312098503112793,3.9628241062164307
1761311042096435700,6.556435791015625,17.713794708251953,-0.2069101333618164,3.419708490371704
1761311042115048700,6.575048583984375,16.590503692626953,0.8750796318054199,3.0780134201049805
1761311042133660000,6.593659912109375,11.6572265625,2.810448169708252,2.0548582077026367
1761311042152272600,6.612272705078125,5.283034324645996,4.6030073165893555,0.018948733806610107
1761311042170884000,6.630884033203125,0.24274921417236328,6.014308452606201,-1.5897964239120483
1761311042189496800,6.649496826171875,-2.3587751388549805,5.158743858337402,-1.294529676437378
1761311042208108000,6.66810791015625,-3.3486461639404297,3.10357403755188,-0.6670560240745544
1761311042226721000,6.686720947265625,-4.397414684295654,1.203749656677246,-0.6559436321258545
1761311042245332200,6.705332275390625,-5.17343282699585,-0.05162334442138672,-0.6945886015892029
1761311042263945000,6.723945068359375,-5.452907562255859,-0.47890329360961914,-0.8220683932304382
1761311042282556400,6.742556396484375,-5.367072582244873,-0.4416508674621582,-0.9091253280639648
1761311042301169200,6.761169189453125,-5.138706684112549,0.10504508018493652,-1.3067320585250854
1761311042319780600,6.779780517578125,-5.359308242797852,0.37001514434814453,-1.3974452018737793
1761311042338393300,6.798393310546875,-6.129681587219238,-0.1936335563659668,-1.502130150794983
1761311042357004500,6.817004638671875,-6.842930793762207,-0.7092335224151611,-2.354271411895752
1761311042375617500,6.835617431640625,-7.971981525421143,-1.8708709478378296,-2.55379319190979
1761311042394228700,6.854228759765625,-9.196880340576172,-2.931149959564209,-2.5110104084014893
1761311042412841700,6.872841796875,-9.418214797973633,-3.2416305541992188,-2.544159412384033
1761311042431453000,6.891452880859375,-9.052637100219727,-3.26149845123291,-2.2560832500457764
1761311042450065700,6.910065673828125,-7.994549751281738,-3.413485288619995,-1.2639905214309692
1761311042468677000,6.928677001953125,-5.207183837890625,-3.2477030754089355,-0.2950810194015503
1761311042487289900,6.947289794921875,-1.3261756896972656,-3.055199146270752,0.4098672866821289
1761311042505901300,6.9659013671875,1.4741268157958984,-2.7549540996551514,0.6267368793487549
1761311042524514000,6.98451416015625,3.114795684814453,-1.4381823539733887,0.7555979490280151
1761311042543125200,7.003125244140625,4.550118446350098,-0.12335491180419922,0.9778966903686523
1761311042561738200,7.02173828125,6.284420967102051,1.7692108154296875,0.6119463443756104
1761311042580349400,7.040349365234375,5.905559539794922,3.877525806427002,0.1680004596710205
1761311042598962200,7.058962158203125,4.716322422027588,5.179720401763916,1.5612986087799072
1761311042617573600,7.07757373046875,7.027554988861084,5.785011291503906,5.389184951782227
1761311042636186400,7.096186279296875,9.156150817871094,5.602048397064209,7.6964921951293945
1761311042654797800,7.1147978515625,9.920866012573242,4.94569730758667,7.427724838256836
1761311042673410600,7.13341064453125,9.169628143310547,4.193554878234863,5.256326675415039
1761311042692021800,7.152021728515625,5.366976737976074,2.810479164123535,3.413893699645996
1761311042710634800,7.170634765625,1.4258956909179688,1.1330821514129639,2.4847846031188965
1761311042729246000,7.189245849609375,-0.35523033142089844,0.4082232713699341,0.7364695072174072
1761311042747859000,7.20785888671875,-0.2460165023803711,0.4334580898284912,-0.668675422668457
1761311042766470100,7.22647021484375,-0.5745906829833984,0.10545871406793594,-1.150033712387085
1761311042785083100,7.245083251953125,-0.4533348083496094,0.558879554271698,-0.9842362403869629
1761311042803694300,7.2636943359375,0.5009317398071289,1.4484256505966187,-0.12628096342086792
1761311042822307000,7.28230712890625,0.04055500030517578,1.7760462760925293,0.10651326179504395
1761311042840918500,7.30091845703125,0.44913291931152344,1.4950636625289917,-2.050936460494995
1761311042859531300,7.31953125,1.7957639694213867,0.6209335923194885,-6.382279396057129
1761311042878142700,7.338142822265625,1.5108451843261719,-1.0226118564605713,-9.839494705200195
1761311042896755500,7.35675537109375,-0.6886119842529297,-2.710789680480957,-11.318913459777832
1761311042915366700,7.37536669921875,-3.7787084579467773,-4.780303001403809,-9.191600799560547
1761311042933979600,7.393979736328125,-6.563582897186279,-5.565985679626465,-5.141542434692383
1761311042952590800,7.4125908203125,-7.394672870635986,-5.529570579528809,-1.1472349166870117
1761311042971203800,7.431203857421875,-5.793342590332031,-5.215727806091309,0.9239481687545776
1761311042989815000,7.44981494140625,-3.328124523162842,-4.97208833694458,1.3124710321426392
1761311043008428000,7.468427978515625,-1.5702853202819824,-5.26632833480835,2.1890437602996826
1761311043027039200,7.487039306640625,-0.8431978225708008,-5.650753974914551,3.116497278213501
1761311043045652200,7.50565234375,-0.30138587951660156,-5.51348352432251,4.3943939208984375
1761311043064263400,7.524263427734375,0.08403587341308594,-4.540352821350098,5.769987106323242
1761311043082876200,7.542876220703125,-0.5909667015075684,-2.905742645263672,5.131242752075195
1761311043101487600,7.561487548828125,-0.7128462791442871,-0.6601362228393555,3.2439403533935547
1761311043120100400,7.580100341796875,-0.8754410743713379,2.135471820831299,0.868554949760437
1761311043138711800,7.5987119140625,-0.6331658363342285,4.628983020782471,-1.6071581840515137
1761311043157324500,7.617324462890625,0.1042170524597168,6.179445266723633,-2.603353977203369
1761311043175936000,7.63593603515625,0.9802932739257812,6.474218368530273,-3.0453808307647705
1761311043194548700,7.654548828125,2.801887035369873,5.89044189453125,-4.016739845275879
1761311043213160200,7.67316015625,3.3444485664367676,5.272859573364258,-3.1339523792266846
1761311043231773000,7.69177294921875,1.7303438186645508,4.577864170074463,-0.28311604261398315
1761311043250384400,7.71038427734375,-0.09572124481201172,2.9274048805236816,1.5876381397247314
1761311043268997000,7.7289970703125,-1.6736345291137695,0.706998348236084,1.9076151847839355
1761311043287608300,7.7476083984375,-2.7813596725463867,0.13457989692687988,0.2970072329044342
1761311043306221300,7.76622119140625,-1.141469955444336,1.5081491470336914,-2.120067596435547
1761311043324832500,7.78483251953125,2.2334718704223633,2.6183576583862305,-2.2890145778656006
1761311043343445500,7.803445556640625,4.528524398803711,2.2910900115966797,-1.071397066116333
1761311043362056700,7.822056640625,3.905697822570801,1.9836704730987549,-1.2213149070739746
1761311043380669700,7.840669677734375,0.8598966598510742,1.6691205501556396,-2.1825144290924072
1761311043399281000,7.859281005859375,-2.1318321228027344,1.1383326053619385,-1.886725664138794
1761311043417894000,7.877893798828125,-4.3007731437683105,0.5204765796661377,-1.0744940042495728
1761311043436505000,7.896505126953125,-4.011815547943115,-0.3807401657104492,-0.9814362525939941
1761311043455118000,7.9151181640625,-2.496459484100342,-0.8202507495880127,-0.39025604724884033
1761311043473729300,7.933729248046875,-2.316384792327881,-1.5403411388397217,1.6046756505966187
1761311043492342000,7.952342041015625,-2.3070425987243652,-1.991856575012207,2.197230815887451
1761311043510953500,7.970953369140625,-1.9982600212097168,-2.2360496520996094,1.2530994415283203
1761311043529566500,7.98956640625,-1.0255651473999023,-2.5195910930633545,0.7659597396850586
1761311043548177700,8.008177734375,-0.18924808502197266,-2.215369701385498,1.8108595609664917
1761311043566790400,8.026790283203125,1.2351856231689453,-1.485826015472412,3.638563871383667
1761311043585401900,8.04540185546875,1.5586357116699219,-0.05509185791015625,3.1560378074645996
1761311043604014600,8.0640146484375,1.0323281288146973,1.4986991882324219,1.685455560684204
1761311043622626000,8.0826259765625,0.7133364677429199,3.525102138519287,0.5522885918617249
1761311043641238800,8.10123876953125,1.7640271186828613,5.230700492858887,0.3341798186302185
1761311043659850200,8.119850341796875,5.242922306060791,4.617779731750488,2.3369576930999756
1761311043678463000,8.138462890625,7.034954071044922,4.389840126037598,3.307002067565918
1761311043697074400,8.157074462890625,4.575462341308594,4.462079048156738,2.4966447353363037
1761311043715687200,8.175687255859375,2.1512222290039062,5.352025032043457,0.2691243290901184
1761311043734298600,8.194298583984375,1.5790085792541504,4.152425765991211,0.07247045636177063
1761311043752911400,8.212911376953125,2.022782325744629,2.1306533813476562,0.5362355709075928
1761311043771522800,8.231522705078126,2.016512393951416,0.22703838348388672,-0.5471981763839722
1761311043790135600,8.250135498046875,0.6646957397460938,-2.3640193939208984,-1.4630666971206665
1761311043808747000,8.2687470703125,-1.1050500869750977,-4.284299373626709,-0.5746490955352783
1761311043827359700,8.28735986328125,-4.482949733734131,-4.610317230224609,-0.37197208404541016
1761311043845971200,8.30597119140625,-6.196784973144531,-4.01802921295166,-0.38338005542755127
1761311043864584000,8.324583984375,-4.935989856719971,-4.9224629402160645,-0.28099381923675537
1761311043883195400,8.3431953125,-1.7742815017700195,-5.651515960693359,-0.800341784954071
1761311043901808000,8.36180810546875,0.49045848846435547,-5.119227886199951,-1.2212330102920532
1761311043920419600,8.380419677734375,2.2466578483581543,-3.8729922771453857,-1.125060796737671
1761311043939032300,8.3990322265625,2.8408689498901367,-3.8279547691345215,-1.2445719242095947
1761311043957643800,8.417643798828125,0.9718680381774902,-4.0380859375,-1.323312520980835
1761311043976256500,8.436256591796875,-2.396705150604248,-4.802796363830566,-1.0814223289489746
1761311043994868000,8.454867919921876,-4.410060882568359,-4.966785430908203,-1.1833022832870483
1761311044013480700,8.473480712890625,-5.332365989685059,-4.794203281402588,-1.3469724655151367
1761311044032092200,8.492092041015624,-4.843023300170898,-4.798832893371582,-0.6103121042251587
1761311044050705000,8.510704833984375,-4.007592678070068,-4.961597442626953,-0.8615383505821228
1761311044069316400,8.52931640625,-3.904104232788086,-4.479213714599609,-2.3892924785614014
1761311044087929000,8.54792919921875,-2.594866991043091,-1.4110937118530273,-4.014262676239014
1761311044106540500,8.56654052734375,-0.6850295066833496,-1.6095829010009766,-1.5249385833740234
1761311044125153300,8.5851533203125,0.9009819030761719,0.6869878768920898,-1.5458269119262695
1761311044143764700,8.6037646484375,-0.29493284225463867,2.3037147521972656,-2.2531182765960693
1761311044162377500,8.62237744140625,0.037312984466552734,2.8002071380615234,-0.4713447093963623
1761311044180989000,8.640989013671875,3.2640204429626465,4.678553581237793,0.08942973613739014
1761311044199601700,8.6596015625,7.522493839263916,6.9111528396606445,-0.037529945373535156
1761311044218213000,8.678213134765626,8.990303039550781,8.951008796691895,-0.008746981620788574
1761311044236825900,8.696825927734375,6.085972785949707,10.591487884521484,-0.4546716809272766
1761311044255437300,8.715437255859374,6.330478191375732,12.949573516845703,-0.459871768951416
1761311044274050000,8.734050048828125,7.118213176727295,11.538870811462402,-0.34022533893585205
1761311044292661500,8.75266162109375,5.18681526184082,8.838911056518555,-1.2262992858886719
1761311044311274200,8.771274169921876,2.220816135406494,6.373237609863281,-1.5728836059570312
1761311044329885700,8.7898857421875,0.20544910430908203,3.7031612396240234,0.45401373505592346
1761311044348498400,8.80849853515625,-0.6402072906494141,0.8691034317016602,2.7465596199035645
1761311044367110000,8.82710986328125,-1.6027417182922363,-2.0676517486572266,3.9703609943389893
1761311044385723000,8.845722900390625,-2.233865737915039,-4.64103364944458,3.289820432662964
1761311044404334000,8.864333984375,-1.8630449771881104,-7.18730354309082,1.5400446653366089
1761311044422946800,8.88294677734375,-0.9553916454315186,-8.968710899353027,-0.32083410024642944
1761311044441558300,8.901558349609376,-1.1724803447723389,-9.583670616149902,-0.8987789750099182
1761311044460171300,8.920171142578125,-1.7663466930389404,-9.430037498474121,-1.1722371578216553
1761311044478782500,8.938782470703124,-2.32340145111084,-9.123764038085938,-1.2209004163742065
1761311044497395500,8.9573955078125,-3.0074820518493652,-8.600207328796387,-1.499160885810852
1761311044516006700,8.976006591796875,-3.541914939880371,-7.918805122375488,-1.562723994255066
1761311044534619600,8.99461962890625,-3.9163362979888916,-7.87580680847168,-0.7909403443336487
1761311044553230800,9.01323095703125,-3.908604145050049,-7.2662129402160645,0.23810723423957825
1761311044571843800,9.03184375,-2.855955123901367,-6.463297367095947,1.5037481784820557
1761311044590455000,9.050455078125,-1.282956838607788,-5.674474239349365,2.574587106704712
1761311044609068000,9.069068115234375,-1.0037086009979248,-5.480546951293945,2.3601605892181396
1761311044627679200,9.08767919921875,-1.3074371814727783,-5.043256759643555,1.6116092205047607
1761311044646292200,9.106292236328125,-1.781451940536499,-3.510377883911133,0.5375293493270874
1761311044664903400,9.1249033203125,-2.6340878009796143,-1.1422247886657715,-0.43956804275512695
1761311044683516400,9.143516357421875,-2.6504695415496826,0.7658348083496094,0.19623708724975586
1761311044702127900,9.1621279296875,-1.4098317623138428,1.9025497436523438,0.8566376566886902
1761311044720740600,9.18074072265625,0.4471135139465332,2.8469552993774414,0.4542311429977417
1761311044739352000,9.19935205078125,3.653931140899658,4.818145751953125,-0.705215334892273
1761311044757964800,9.21796484375,6.209902286529541,6.907736778259277,-1.5973970890045166
1761311044776576300,9.236576171875,6.15579080581665,9.565157890319824,-2.0390443801879883
1761311044795189000,9.25518896484375,5.430093765258789,12.702228546142578,-2.8881280422210693
1761311044813800400,9.273800537109375,4.811478137969971,13.316933631896973,-2.23876690864563
1761311044832413200,9.2924130859375,5.122046947479248,11.775480270385742,-0.38595640659332275
1761311044851024600,9.311024658203126,4.1019697189331055,9.455763816833496,-0.22707319259643555
1761311044869637400,9.329637451171875,2.6657400131225586,6.78739070892334,-0.03072798252105713
1761311044888248800,9.348248779296876,2.7512903213500977,4.444247245788574,1.0449129343032837
1761311044906861800,9.36686181640625,3.656157970428467,1.8372249603271484,2.7631611824035645
1761311044925473000,9.38547314453125,2.9737019538879395,-1.064073085784912,3.296503782272339
1761311044944086000,9.4040859375,0.8786635398864746,-4.459717273712158,3.471668243408203
1761311044962697200,9.422697265625,-2.265892744064331,-5.373342990875244,1.1893543004989624
1761311044981310200,9.441310302734376,-4.613975524902344,-6.271821975708008,-0.8385952711105347
1761311044999921400,9.45992138671875,-5.362097263336182,-6.074822902679443,-1.6234488487243652
1761311045018534400,9.478534423828124,-4.927235126495361,-6.225315093994141,-1.0515413284301758
1761311045037145600,9.4971455078125,-4.74647855758667,-6.809720039367676,-0.5528056621551514
1761311045055758600,9.515758544921875,-4.444754600524902,-6.925147533416748,-0.7140638828277588
1761311045074370000,9.5343701171875,-5.576257705688477,-6.293391704559326,-1.3961870670318604
1761311045092982800,9.552982666015625,-6.814548015594482,-5.413792133331299,0.1159820556640625
1761311045111594200,9.57159423828125,-5.605810165405273,-5.666862964630127,2.524078607559204
1761311045130207000,9.59020703125,-5.518253326416016,-7.166408538818359,3.289071798324585
1761311045148818400,9.608818359375,-3.7658042907714844,-6.34282112121582,1.565279245376587
1761311045167431200,9.62743115234375,-1.21620512008667,-3.7938694953918457,-2.0226800441741943
1761311045186042600,9.646042724609375,2.1997427940368652,-2.1906352043151855,-0.9608747959136963
1761311045204655400,9.6646552734375,2.7739176750183105,1.2326774597167969,0.5425739288330078
1761311045223266800,9.683266845703125,-0.6308012008666992,5.4933037757873535,0.6505513191223145
1761311045241879800,9.7018798828125,-0.9334349632263184,8.55258560180664,1.7585737705230713
1761311045260491000,9.720490966796875,2.4679036140441895,9.85283088684082,1.9272468090057373
1761311045279104000,9.73910400390625,6.458879470825195,11.088315963745117,0.4520838260650635
1761311045297715200,9.757715087890626,10.41448974609375,11.291756629943848,1.9072625637054443
1761311045316328200,9.776328125,14.010458946228027,11.274768829345703,5.4552483558654785
1761311045334939600,9.794939697265624,13.316962242126465,9.88789176940918,7.4426679611206055
1761311045353552400,9.813552490234375,9.579383850097656,7.090738296508789,6.888127326965332
1761311045372163800,9.832163818359374,3.119205951690674,4.329455375671387,4.178055286407471
1761311045390776600,9.850776611328126,-2.64738392829895,2.1155166625976562,0.635575532913208
1761311045409388000,9.869387939453125,-5.300442695617676,-0.5395598411560059,-1.0318758487701416
1761311045428000800,9.888000732421874,-5.728633880615234,-3.911990165710449,-0.7184226512908936
1761311045446612200,9.9066123046875,-4.334007263183594,-4.290647983551025,-0.9543489217758179
1761311045465225200,9.92522509765625,-3.1689255237579346,-4.4004364013671875,-0.0029993653297424316
1761311045483836400,9.94383642578125,-2.344019889831543,-5.41587495803833,0.4688178300857544
1761311045502449400,9.962449462890625,-2.0389623641967773,-6.8148674964904785,0.3591107130050659
1761311045521060600,9.981060546875,-1.7583227157592773,-7.311308860778809,-0.6649167537689209
1761311045539673600,9.999673583984375,-2.3720717430114746,-7.552001476287842,-1.773620367050171
1761311045558285000,10.01828515625,-2.5505285263061523,-7.179527282714844,-2.157736301422119
1761311045576897800,10.036897705078125,-3.1582775115966797,-6.362814903259277,-1.383751392364502
1761311045595509200,10.05550927734375,-3.92883038520813,-5.6947126388549805,-0.41625696420669556
1761311045614122000,10.0741220703125,-3.38993501663208,-5.445671081542969,0.6455867290496826
1761311045632733400,10.0927333984375,-3.7883780002593994,-4.959181785583496,1.495274305343628
1761311045651346200,10.11134619140625,-4.41800594329834,-5.668241024017334,2.6287152767181396
1761311045669957600,10.12995751953125,-2.5151453018188477,-5.246636390686035,0.9228994846343994
1761311045688570600,10.148570556640625,-0.5296788215637207,-5.007347106933594,-0.024443864822387695
1761311045707181800,10.167181884765625,-0.7926011085510254,-3.2878832817077637,-2.3983993530273438
1761311045725794800,10.185794921875,-2.2227084636688232,1.4490432739257812,-3.6949806213378906
1761311045744406300,10.20440625,-0.6789751052856445,5.537423610687256,-1.0752198696136475
1761311045763019000,10.22301904296875,2.6937241554260254,10.108667373657227,-1.661468744277954
1761311045781630500,10.24163037109375,4.236179828643799,11.306278228759766,-2.5386295318603516
1761311045800243200,10.2602431640625,6.093928337097168,10.392544746398926,-4.471043586730957
1761311045818854700,10.278854736328125,6.645326614379883,9.877176284790039,-4.8883843421936035
1761311045837467600,10.297467529296876,5.78645658493042,9.88388442993164,-4.2665205001831055
1761311045856078800,10.316078857421875,4.65728759765625,9.014727592468262,-4.49523401260376
1761311045874691800,10.33469189453125,2.264495849609375,7.401761054992676,-3.5879361629486084
1761311045893303300,10.35330322265625,-0.5922994613647461,5.022513389587402,-3.0750603675842285
1761311045911916000,10.371916015625,-1.1243138313293457,2.3223094940185547,-1.0485472679138184
1761311045930527500,10.390527587890626,-0.5197162628173828,1.2878036499023438,-0.23624324798583984
1761311045949140200,10.40914013671875,-0.4527101516723633,-0.001399993896484375,0.33950352668762207
1761311045967751700,10.427751708984376,-0.9382200241088867,-1.7961621284484863,1.800877332687378
1761311045986364700,10.44636474609375,-1.667557716369629,-3.3128175735473633,1.9213366508483887
1761311046004975900,10.464975830078124,-1.827897071838379,-4.908295631408691,1.5662689208984375
1761311046023588900,10.4835888671875,-1.6679468154907227,-5.915807247161865,1.0341029167175293
1761311046042200300,10.502200439453125,-1.1077756881713867,-4.8689494132995605,-0.3588658571243286
1761311046060813000,10.52081298828125,-1.2589726448059082,-4.008666038513184,-0.9365313053131104
1761311046079424500,10.539424560546875,-1.663224220275879,-3.6966657638549805,0.06065046787261963
1761311046098037200,10.558037353515624,-2.2350172996520996,-4.111701011657715,0.8132138848304749
1761311046116648700,10.576648681640625,-2.4390087127685547,-4.838920593261719,1.5903253555297852
1761311046135261700,10.59526171875,-2.928201675415039,-5.808856010437012,1.4783072471618652
1761311046153873000,10.613872802734376,-4.078367233276367,-6.479868412017822,1.432120680809021
1761311046172486000,10.63248583984375,-4.023969650268555,-6.339229583740234,1.434146523475647
1761311046191097300,10.651097412109374,-3.3129262924194336,-5.788916110992432,0.5549027919769287
1761311046209710000,10.6697099609375,-2.7833142280578613,-5.012348175048828,-0.7790935039520264
1761311046228321500,10.688321533203125,-2.503272533416748,-3.989993095397949,-1.9531257152557373
1761311046246934300,10.706934326171876,-1.5321273803710938,-1.5714149475097656,-2.9796652793884277
1761311046265545700,10.725545654296875,-0.41486167907714844,0.5788321495056152,-2.1701738834381104
1761311046284158700,10.74415869140625,-0.16706180572509766,1.7104511260986328,-0.7773318290710449
1761311046302770000,10.76277001953125,2.274655342102051,3.8754143714904785,0.07258939743041992
1761311046321383000,10.7813828125,5.561590671539307,5.837278366088867,0.24390435218811035
1761311046339994400,10.799994384765625,7.088971138000488,6.727789402008057,0.0977013111114502
1761311046358607000,10.818607177734375,6.512148380279541,8.5917387008667,-2.5899012088775635
1761311046377218600,10.837218505859376,4.763296604156494,11.093891143798828,-5.7355146408081055
1761311046395831600,10.85583154296875,4.8240861892700195,12.15312385559082,-6.866815090179443
1761311046414442800,10.87444287109375,6.988977909088135,9.684835433959961,-2.4025306701660156
1761311046433055700,10.8930556640625,5.781476020812988,6.973036766052246,1.3633055686950684
1761311046451667200,10.911667236328125,1.0751070976257324,4.267204761505127,3.822380542755127
1761311046470280000,10.930280029296876,-2.3806228637695312,2.6447596549987793,3.4146058559417725
1761311046488891400,10.948891357421875,-3.0825018882751465,0.746180534362793,2.635018825531006
1761311046507504400,10.96750439453125,-1.8189620971679688,-0.7366394996643066,1.423802375793457
1761311046526115600,10.986115478515625,-0.6361026763916016,-2.631894111633301,1.0591363906860352
1761311046544728600,11.004728515625,0.3367319107055664,-3.53597354888916,0.8446743488311768
1761311046563339800,11.02333984375,0.2481074333190918,-4.454107284545898,1.939152479171753
1761311046581952800,11.041952880859375,-1.0818428993225098,-5.072828769683838,3.7266457080841064
1761311046600564200,11.060564208984376,-1.6805157661437988,-4.774209976196289,3.114760160446167
1761311046619177000,11.079177001953125,-2.532790422439575,-4.535287857055664,1.8235160112380981
1761311046637788400,11.097788330078124,-3.7497000694274902,-5.090244293212891,1.5341683626174927
1761311046656401400,11.1164013671875,-4.22480583190918,-5.299270153045654,0.9570643901824951
1761311046675012600,11.1350126953125,-4.157615661621094,-5.22773551940918,1.1050033569335938
1761311046693625600,11.15362548828125,-2.2535548210144043,-5.0393500328063965,1.3807425498962402
1761311046712237000,11.172237060546875,-1.8249790668487549,-4.424025058746338,-0.279498815536499
1761311046730849800,11.190849853515624,-1.54006028175354,-3.7604751586914062,-2.763979434967041
1761311046749461200,11.209461181640625,-0.8096027374267578,-1.8917794227600098,-3.1897640228271484
1761311046768074200,11.22807421875,-1.096883773803711,-0.4063901901245117,-2.431523561477661
1761311046786685400,11.246685546875,-0.09833478927612305,1.0398569107055664,-2.133131742477417
