time,seconds_elapsed,z,y,x
1761753152992007400,0.09100732421875,-0.00007635809743078426,-0.000839939049910754,0
1761753153029668900,0.1286689453125,-0.00038179047987796366,-0.0005345066892914474,-0.00045814859913662076
1761753153067330000,0.166330078125,-0.00022907429956831038,-0.0006872228696011007,-0.0001527161948615685
1761753153104991500,0.203991455078125,0.00007635809743078426,-0.00038179047987796366,0
1761753153142652700,0.241652587890625,-0.00007635809743078426,-0.0005345066892914474,0
1761753153180314000,0.279314208984375,-0.00022907429956831038,-0.0011453714687377214,-0.0001527161948615685
1761753153217975300,0.316975341796875,0.00007635809743078426,-0.0012980876490473747,0
1761753153255636700,0.35463671875,0.00022907429956831038,-0.0005345066892914474,-0.0001527161948615685
1761753153293298000,0.3922978515625,0.00007635809743078426,-0.0009926552884280682,0
1761753153330959400,0.42995947265625,0.00022907429956831038,-0.0012980876490473747,0
1761753153368620500,0.46762060546875,-0.0005345066892914474,-0.0006872228696011007,0
1761753153406282000,0.505281982421875,0.0005345066892914474,-0.0009926552884280682,0.000305432389723137
1761753153443943200,0.542943115234375,-0.00038179047987796366,-0.0011453714687377214,0.0001527161948615685
1761753153481604600,0.5806044921875,-0.00022907429956831038,-0.000839939049910754,0
1761753153519265800,0.618265869140625,-0.00038179047987796366,-0.00038179047987796366,0.000305432389723137
1761753153556927200,0.65592724609375,0.00022907429956831038,-0.0011453714687377214,0.000305432389723137
1761753153594588400,0.69358837890625,0.00007635809743078426,-0.0005345066892914474,-0.000305432389723137
1761753153632249600,0.73124951171875,0.00007635809743078426,-0.00038179047987796366,0
1761753153669911000,0.7689111328125,-0.00038179047987796366,-0.0006872228696011007,0.0001527161948615685
1761753153707572200,0.806572265625,-0.000839939049910754,-0.0011453714687377214,0.0001527161948615685
1761753153745233700,0.844233642578125,0.00007635809743078426,-0.000839939049910754,-0.0001527161948615685
1761753153782894800,0.881894775390625,-0.00022907429956831038,-0.0006872228696011007,0
1761753153820556300,0.919556396484375,0.00038179047987796366,-0.000839939049910754,0
1761753153858217500,0.957217529296875,0.00022907429956831038,-0.0009926552884280682,0.0001527161948615685
1761753153895879000,0.99487890625,-0.00022907429956831038,-0.0005345066892914474,0
1761753153933540000,1.0325400390625,-0.00007635809743078426,-0.0011453714687377214,-0.0001527161948615685
1761753153971201300,1.070201171875,-0.00038179047987796366,-0.0006872228696011007,0
1761753154008862700,1.10786279296875,-0.00022907429956831038,-0.0009926552884280682,0.0001527161948615685
1761753154046524000,1.14552392578125,-0.00007635809743078426,-0.0009926552884280682,0
1761753154084185300,1.183185302734375,0.00038179047987796366,-0.000839939049910754,0.000305432389723137
1761753154121846500,1.220846435546875,-0.00007635809743078426,-0.00038179047987796366,-0.000610864779446274
1761753154159508000,1.258508056640625,0.00038179047987796366,-0.000839939049910754,0.0001527161948615685
1761753154197169200,1.296169189453125,0.0005345066892914474,-0.000839939049910754,0.000305432389723137
1761753154234830600,1.33383056640625,-0.00007635809743078426,-0.0009926552884280682,0.0001527161948615685
1761753154272491800,1.37149169921875,-0.00022907429956831038,-0.0006872228696011007,0
1761753154310153200,1.4091533203125,0.00007635809743078426,-0.0011453714687377214,0.00045814859913662076
1761753154347814400,1.446814453125,-0.0005345066892914474,-0.000839939049910754,0.000305432389723137
1761753154385475800,1.484475830078125,-0.00007635809743078426,-0.0006872228696011007,-0.0001527161948615685
1761753154423137000,1.522136962890625,-0.0006872228696011007,-0.0006872228696011007,0
1761753154460798500,1.559798583984375,-0.0005345066892914474,-0.0011453714687377214,0
1761753154498459600,1.597459716796875,0.00007635809743078426,-0.000839939049910754,0.00045814859913662076
1761753154536121000,1.63512109375,0.00022907429956831038,-0.0011453714687377214,0.0001527161948615685
1761753154573782300,1.6727822265625,-0.00007635809743078426,-0.000839939049910754,0.0001527161948615685
1761753154611443500,1.710443359375,-0.00038179047987796366,-0.0009926552884280682,0.000305432389723137
1761753154649105000,1.74810498046875,0.00022907429956831038,-0.0006872228696011007,0.000305432389723137
1761753154686766000,1.78576611328125,0.00007635809743078426,-0.0006872228696011007,0.000305432389723137
1761753154724427500,1.823427490234375,-0.00022907429956831038,-0.00038179047987796366,-0.000305432389723137
1761753154762089000,1.8610888671875,0.00022907429956831038,0.0022143847309052944,0.0009162971982732415
1761753154799750100,1.898750244140625,0.0016035200096666813,0.0025198173243552446,0.0001527161948615685
1761753154837411600,1.93641162109375,-0.0009926552884280682,-0.008323032408952713,-0.0009162971982732415
1761753154875072800,1.97407275390625,0.00022907429956831038,-0.0009926552884280682,0
1761753154912734200,2.011734130859375,0.00022907429956831038,-0.000839939049910754,0
1761753154950395400,2.0493955078125,-0.00038179047987796366,-0.0005345066892914474,0
1761753154988056800,2.087056884765625,0.00038179047987796366,-0.001450803829357028,0.000610864779446274
1761753155025718000,2.124718017578125,0.0005345066892914474,-0.0005345066892914474,0.0001527161948615685
1761753155063379200,2.162379150390625,-0.00007635809743078426,-0.0005345066892914474,0
1761753155101040600,2.20004052734375,0.00007635809743078426,-0.0006872228696011007,-0.0001527161948615685
1761753155138701800,2.237701904296875,0.00022907429956831038,-0.000839939049910754,0.000305432389723137
1761753155176363300,2.27536328125,0.00038179047987796366,-0.00038179047987796366,-0.0001527161948615685
1761753155214024700,2.313024658203125,0.00007635809743078426,-0.0006872228696011007,-0.0001527161948615685
1761753155251686000,2.350685791015625,0.00038179047987796366,-0.0006872228696011007,0.000305432389723137
1761753155289347300,2.388347412109375,0.0005345066892914474,-0.0011453714687377214,-0.000305432389723137
1761753155327008500,2.426008544921875,0.00022907429956831038,-0.0011453714687377214,0.000305432389723137
1761753155364670000,2.463669921875,-0.00038179047987796366,-0.000839939049910754,0.00045814859913662076
1761753155402331100,2.5013310546875,-0.00022907429956831038,-0.0006872228696011007,0.0001527161948615685
1761753155439992600,2.53899267578125,0.00038179047987796366,-0.0009926552884280682,-0.000305432389723137
1761753155477653800,2.57665380859375,-0.00007635809743078426,-0.000839939049910754,0.0001527161948615685
1761753155515315200,2.614315185546875,0.00038179047987796366,-0.001450803829357028,0
1761753155552976400,2.651976318359375,0.00038179047987796366,-0.0009926552884280682,0
1761753155590637800,2.689637939453125,0.00007635809743078426,-0.0005345066892914474,-0.000305432389723137
1761753155628299000,2.727299072265625,-0.00022907429956831038,-0.0006872228696011007,0.0001527161948615685
1761753155665960400,2.76496044921875,0.00038179047987796366,-0.0009926552884280682,0.000305432389723137
1761753155703621600,2.80262158203125,0.00007635809743078426,-0.000839939049910754,-0.0001527161948615685
1761753155741283000,2.840282958984375,0.00022907429956831038,-0.0012980876490473747,0.0001527161948615685
1761753155778944300,2.8779443359375,0.00038179047987796366,-0.0011453714687377214,0
1761753155816605700,2.915605712890625,-0.0005345066892914474,-0.0006872228696011007,-0.0001527161948615685
1761753155854267100,2.95326708984375,0.0005345066892914474,-0.0009926552884280682,0.0001527161948615685
1761753155891928300,2.99092822265625,-0.00007635809743078426,-0.0006872228696011007,-0.0001527161948615685
1761753155929589500,3.028589599609375,0.00007635809743078426,-0.00038179047987796366,-0.0001527161948615685
1761753155967251000,3.0662509765625,0.00007635809743078426,-0.000839939049910754,0.000305432389723137
1761753156004912400,3.103912353515625,0.00007635809743078426,-0.0009926552884280682,0
1761753156042573600,3.141573486328125,-0.00007635809743078426,-0.0006872228696011007,-0.0007635809597559273
1761753156080235000,3.179235107421875,-0.00038179047987796366,-0.0005345066892914474,0
1761753156117896200,3.216896240234375,-0.00022907429956831038,-0.000839939049910754,0.000305432389723137
1761753156155557600,3.2545576171875,0.0005345066892914474,-0.0006872228696011007,0
1761753156193218800,3.29221875,0.00022907429956831038,-0.000839939049910754,0.0001527161948615685
1761753156230880300,3.32988037109375,-0.00007635809743078426,-0.0009926552884280682,0.000305432389723137
1761753156268541700,3.367541748046875,0.00038179047987796366,-0.000839939049910754,0
1761753156306203000,3.405202880859375,0.00007635809743078426,-0.0011453714687377214,-0.0001527161948615685
1761753156343864300,3.4428642578125,0.00007635809743078426,-0.000839939049910754,0.000305432389723137
1761753156381525500,3.480525390625,-0.00038179047987796366,-0.0012980876490473747,0.0001527161948615685
1761753156419187000,3.51818701171875,0.00022907429956831038,-0.0011453714687377214,-0.0001527161948615685
1761753156456848400,3.555848388671875,-0.0006872228696011007,-0.0006872228696011007,0.000305432389723137
1761753156494509600,3.593509521484375,-0.00022907429956831038,-0.0006872228696011007,0.000305432389723137
1761753156532170800,3.631170654296875,-0.00007635809743078426,-0.0009926552884280682,0
1761753156569832200,3.668832275390625,0.0005345066892914474,-0.0009926552884280682,0
1761753156607493600,3.70649365234375,-0.00022907429956831038,-0.0006872228696011007,-0.0001527161948615685
1761753156645154800,3.74415478515625,0.00007635809743078426,-0.0005345066892914474,-0.000305432389723137
1761753156682816300,3.781816162109375,0.0005345066892914474,-0.0011453714687377214,0.000305432389723137
1761753156720477400,3.8194775390625,0.00022907429956831038,-0.00038179047987796366,0.0001527161948615685
1761753156758139000,3.857138916015625,-0.00022907429956831038,-0.0009926552884280682,-0.00045814859913662076
1761753156795800300,3.89480029296875,0.00022907429956831038,-0.000839939049910754,0.00045814859913662076
1761753156833461500,3.93246142578125,0.00007635809743078426,-0.0009926552884280682,0
1761753156871123000,3.970123046875,-0.00022907429956831038,-0.0009926552884280682,0.00045814859913662076
1761753156908784000,4.0077841796875,0.00022907429956831038,-0.0016035200096666813,0.000610864779446274
1761753156946445600,4.045445556640625,0.00038179047987796366,-0.00038179047987796366,-0.0001527161948615685
1761753157002937600,4.1019375,-0.00038179047987796366,-0.000839939049910754,0.0001527161948615685
1761753157040598800,4.139598876953125,0.00022907429956831038,-0.00007635809743078426,0
1761753157078260200,4.17726025390625,0.00007635809743078426,-0.0009926552884280682,0.00045814859913662076
1761753157115921700,4.214921630859375,0.00022907429956831038,-0.000839939049910754,-0.0001527161948615685
1761753157153582800,4.252582763671875,-0.00022907429956831038,-0.0006872228696011007,-0.0001527161948615685
1761753157191244300,4.290244384765625,0.00038179047987796366,-0.0006872228696011007,0
1761753157228905500,4.327905517578125,0.0005345066892914474,-0.0009926552884280682,0
1761753157266567000,4.36556689453125,-0.00007635809743078426,-0.0012980876490473747,0
1761753157304228400,4.403228271484375,0.00022907429956831038,-0.000839939049910754,-0.0001527161948615685
1761753157341889500,4.4408896484375,0.00007635809743078426,-0.0009926552884280682,0
1761753157379551000,4.478551025390625,0.00007635809743078426,-0.0009926552884280682,-0.000305432389723137
1761753157417212400,4.51621240234375,-0.00007635809743078426,-0.0005345066892914474,0.0001527161948615685
1761753157454873600,4.55387353515625,0.00022907429956831038,-0.000839939049910754,0.000305432389723137
1761753157492535000,4.59153515625,0.00007635809743078426,-0.0006872228696011007,-0.00045814859913662076
1761753157530196200,4.6291962890625,-0.00022907429956831038,-0.000839939049910754,0
1761753157567857700,4.666857666015625,-0.00022907429956831038,-0.0009926552884280682,0.0001527161948615685
1761753157605519000,4.70451904296875,-0.00007635809743078426,-0.00038179047987796366,0.0001527161948615685
1761753157643180300,4.74218017578125,0.00007635809743078426,-0.0009926552884280682,0
1761753157680841700,4.779841796875,0.0005345066892914474,-0.0006872228696011007,-0.000305432389723137
1761753157718503200,4.817503173828125,-0.00007635809743078426,-0.0006872228696011007,-0.0001527161948615685
1761753157756164400,4.855164306640625,0.00022907429956831038,-0.0011453714687377214,0.000305432389723137
1761753157793825800,4.89282568359375,-0.00007635809743078426,-0.0009926552884280682,-0.000305432389723137
1761753157831487000,4.930487060546875,-0.00022907429956831038,-0.0006872228696011007,0
1761753157869148400,4.9681484375,0.00022907429956831038,-0.00038179047987796366,0.0001527161948615685
1761753157906809600,5.0058095703125,0.00007635809743078426,-0.001450803829357028,0.000305432389723137
1761753157944471000,5.043470947265625,-0.00022907429956831038,-0.00038179047987796366,-0.0001527161948615685
1761753157982132500,5.081132568359375,-0.00038179047987796366,-0.0011453714687377214,0.0001527161948615685
1761753158019793700,5.118793701171875,0.0006872228696011007,-0.0006872228696011007,0.000305432389723137
1761753158076285700,5.17528564453125,-0.00022907429956831038,-0.00038179047987796366,0.0001527161948615685
1761753158113947100,5.212947021484375,0.0005345066892914474,-0.0011453714687377214,0.00045814859913662076
1761753158151608600,5.250608642578125,-0.00022907429956831038,-0.00022907429956831038,0.000305432389723137
1761753158189269800,5.288269775390625,0.00022907429956831038,-0.0011453714687377214,0.0001527161948615685
1761753158226931200,5.32593115234375,-0.00007635809743078426,-0.000839939049910754,0.00045814859913662076
1761753158264592600,5.363592529296875,0.00022907429956831038,-0.0006872228696011007,0
1761753158302253800,5.40125390625,-0.00007635809743078426,-0.0009926552884280682,0.00045814859913662076
1761753158339915300,5.438915283203125,-0.00007635809743078426,-0.000839939049910754,0.0001527161948615685
1761753158377576400,5.476576416015625,-0.00038179047987796366,-0.000839939049910754,0.0001527161948615685
1761753158415238000,5.51423779296875,-0.00007635809743078426,-0.0005345066892914474,-0.0001527161948615685
1761753158452899300,5.5518994140625,0.0005345066892914474,-0.000839939049910754,0.00045814859913662076
1761753158490560500,5.589560546875,0.00022907429956831038,-0.000839939049910754,0
1761753158528222000,5.627221923828125,0.00038179047987796366,-0.0011453714687377214,0.0001527161948615685
1761753158565883400,5.66488330078125,0.00022907429956831038,-0.00022907429956831038,0
1761753158603544600,5.702544677734375,-0.00038179047987796366,-0.00038179047987796366,0.0001527161948615685
1761753158641206000,5.7402060546875,-0.0006872228696011007,-0.000839939049910754,0
1761753158678867500,5.777867431640625,0.00007635809743078426,-0.0005345066892914474,0
1761753158716528600,5.815528564453125,-0.00007635809743078426,-0.0006872228696011007,0
1761753158754189800,5.85318994140625,-0.00007635809743078426,-0.00038179047987796366,0
1761753158791851300,5.890851318359375,0.00038179047987796366,-0.0005345066892914474,0
1761753158829512700,5.9285126953125,0.00022907429956831038,-0.0005345066892914474,-0.0001527161948615685
1761753158867174000,5.966173828125,-0.00007635809743078426,-0.000839939049910754,0.000305432389723137
1761753158904835300,6.00383544921875,0.00022907429956831038,-0.0012980876490473747,0
1761753158942496800,6.041496826171875,-0.00022907429956831038,-0.000839939049910754,0.0001527161948615685
1761753158980158000,6.079157958984375,-0.00007635809743078426,-0.00038179047987796366,-0.0007635809597559273
1761753159017819400,6.1168193359375,0.00007635809743078426,-0.00038179047987796366,0.0001527161948615685
1761753159055480800,6.154480712890625,0.00007635809743078426,-0.0006872228696011007,0
1761753159093142000,6.19214208984375,0.00007635809743078426,-0.000839939049910754,0.0001527161948615685
1761753159130803500,6.229803466796875,0.00007635809743078426,-0.0006872228696011007,0
1761753159168464600,6.267464599609375,0.00007635809743078426,-0.0006872228696011007,0
1761753159206126000,6.3051259765625,0.0006872228696011007,-0.0006872228696011007,-0.0001527161948615685
1761753159243787500,6.34278759765625,0.00022907429956831038,-0.000839939049910754,0.000305432389723137
1761753159281448700,6.38044873046875,0.00007635809743078426,-0.0009926552884280682,-0.000305432389723137
1761753159319110100,6.418110107421875,0.00007635809743078426,-0.0011453714687377214,0.000610864779446274
1761753159356771600,6.455771484375,-0.00007635809743078426,-0.0006872228696011007,0.000305432389723137
1761753159394432800,6.493432861328125,0.00022907429956831038,-0.000839939049910754,0.0001527161948615685
1761753159432094200,6.53109423828125,0.00022907429956831038,-0.0005345066892914474,0.00045814859913662076
1761753159469755600,6.568755615234375,-0.00022907429956831038,-0.000839939049910754,-0.000305432389723137
1761753159507416800,6.606416748046875,0.00007635809743078426,-0.000839939049910754,0.000305432389723137
1761753159545078300,6.644078369140625,0.00007635809743078426,-0.0011453714687377214,-0.000305432389723137
1761753159582739500,6.681739501953125,0.00022907429956831038,-0.0005345066892914474,-0.000305432389723137
1761753159620401000,6.71940087890625,0.00022907429956831038,-0.000839939049910754,0.000305432389723137
1761753159676893000,6.775892822265625,0.00022907429956831038,-0.0009926552884280682,0.00045814859913662076
1761753159714554400,6.813554443359375,0.0006872228696011007,-0.0005345066892914474,0
1761753159752215600,6.851215576171875,-0.00022907429956831038,-0.0011453714687377214,0.000305432389723137
1761753159789877000,6.888876953125,-0.00007635809743078426,0.00007635809743078426,-0.00045814859913662076
1761753159827538200,6.9265380859375,0.00038179047987796366,-0.000839939049910754,0
1761753159865199600,6.96419970703125,0.00022907429956831038,-0.0005345066892914474,0.000305432389723137
1761753159902861000,7.001861083984375,0.00007635809743078426,-0.0012980876490473747,-0.0001527161948615685
1761753159940522200,7.039522216796875,0.00007635809743078426,-0.000839939049910754,0
1761753159978183700,7.07718359375,-0.0001527161948615685,-0.0001527161948615685,0.00022907429956831038
1761753160015845000,7.11484521484375,0.0001527161948615685,0,-0.00038179047987796366
1761753160053506300,7.15250634765625,0,0,-0.00007635809743078426
1761753160091167700,7.190167724609375,0,0.0001527161948615685,0.00022907429956831038
1761753160128829000,7.227828857421875,0,0,-0.00022907429956831038
1761753160166490400,7.265490478515625,0,0,0.00022907429956831038
1761753160204151800,7.30315185546875,0.000305432389723137,0.0001527161948615685,-0.00038179047987796366
1761753160241813000,7.34081298828125,0,0.000305432389723137,0.00007635809743078426
1761753160279474400,7.378474365234375,-0.00045814859913662076,0.0001527161948615685,0.00022907429956831038
1761753160317136000,7.416135986328125,0,-0.0001527161948615685,0.00007635809743078426
1761753160354797000,7.453797119140625,0.000610864779446274,0,0.00007635809743078426
1761753160392458500,7.49145849609375,0.000305432389723137,-0.0001527161948615685,0.00007635809743078426
1761753160430119700,7.52911962890625,0,-0.0001527161948615685,-0.00022907429956831038
1761753160467781000,7.566781005859375,0.00045814859913662076,0.0001527161948615685,0.00022907429956831038
1761753160505442600,7.604442626953125,0.0001527161948615685,-0.0001527161948615685,-0.00007635809743078426
1761753160543103700,7.642103759765625,0,-0.0001527161948615685,-0.00007635809743078426
1761753160580765200,7.67976513671875,-0.0001527161948615685,-0.000305432389723137,-0.00007635809743078426
1761753160618426400,7.71742626953125,-0.0001527161948615685,0.000610864779446274,-0.00007635809743078426
1761753160656087800,7.755087890625,0.000305432389723137,0.000305432389723137,0.00022907429956831038
1761753160693749000,7.7927490234375,0,0.0001527161948615685,0.00007635809743078426
1761753160731410400,7.830410400390625,0.000305432389723137,-0.0001527161948615685,0.00022907429956831038
1761753160769072600,7.86807275390625,-0.000305432389723137,0.000305432389723137,0.00007635809743078426
1761753160806733000,7.905733154296875,0,0.00045814859913662076,-0.00022907429956831038
1761753160844394500,7.94339453125,0.000305432389723137,0.000610864779446274,-0.00038179047987796366
1761753160882055700,7.9810556640625,-0.000305432389723137,0,-0.00038179047987796366
1761753160919717000,8.018717041015625,0.00045814859913662076,-0.0001527161948615685,0.00007635809743078426
1761753160957378600,8.056378662109376,-0.000305432389723137,-0.000610864779446274,-0.00007635809743078426
1761753160995039700,8.094039794921875,0,0,0.00022907429956831038
1761753161032701200,8.131701171875,0.0001527161948615685,-0.0001527161948615685,0.00022907429956831038
1761753161070362400,8.1693623046875,0,-0.0001527161948615685,0.0005345066892914474
1761753161108023800,8.20702392578125,0,-0.000610864779446274,0.00007635809743078426
1761753161145685200,8.244685302734375,0.0001527161948615685,0,-0.00007635809743078426
1761753161183346400,8.282346435546875,0.0001527161948615685,0.000305432389723137,0.00007635809743078426
1761753161221008000,8.3200078125,0.0001527161948615685,0.000305432389723137,0.00007635809743078426
1761753161258669000,8.3576689453125,0,-0.0001527161948615685,0.00007635809743078426
1761753161296330500,8.39533056640625,-0.0001527161948615685,0.0001527161948615685,-0.00022907429956831038
1761753161333992000,8.432991943359376,-0.0001527161948615685,-0.000305432389723137,0.00007635809743078426
1761753161371653000,8.470653076171875,0,-0.000610864779446274,-0.00007635809743078426
1761753161409314300,8.508314208984375,0.0001527161948615685,0.00045814859913662076,-0.00007635809743078426
1761753161446975700,8.545975830078126,0.00045814859913662076,0.0021380267571657896,0.0057268571108579636
1761753161484637200,8.58363720703125,0.000305432389723137,-0.000610864779446274,-0.0029779658652842045
1761753161522298400,8.62129833984375,0.0001527161948615685,-0.0007635809597559273,-0.0025198173243552446
