time,seconds_elapsed,z,y,x
1761369571131330300,0.289330322265625,0.04459185153245926,-0.034131091088056564,0.36154523491859436
1761369571149940500,0.3079404296875,0.06902574002742767,-0.12820157408714294,0.33894386887550354
1761369571168552000,0.326552001953125,0.08857285231351852,-0.11842801421880722,0.30901235342025757
1761369571187162000,0.345162109375,0.06291726976633072,-0.1624090075492859,0.32428354024887085
1761369571205773800,0.36377392578125,0.016492875292897224,-0.19600561261177063,0.35238251090049744
1761369571224383700,0.3823837890625,0.07696675509214401,-0.13675342500209808,0.31206658482551575
1761369571242995500,0.400995361328125,0.05986303091049194,-0.12514732778072357,0.2638096511363983
1761369571261605600,0.419605712890625,0.02504473738372326,-0.053678203374147415,0.15507884323596954
1761369571280217000,0.438217041015625,0.037261683493852615,-0.13003410398960114,0.015805672854185104
1761369571298827300,0.4568271484375,0.024433890357613564,-0.0695602297782898,-0.0984991192817688
1761369571317438700,0.475438720703125,-0.007330167107284069,-0.06467345356941223,-0.1510319858789444
1761369571336049000,0.494048828125,-0.0030542362947016954,-0.050013117492198944,-0.15897299349308014
1761369571354660600,0.51266064453125,-0.017714571207761765,0.009849912486970425,-0.18279604613780975
1761369571373270500,0.5312705078125,-0.04703523963689804,0.056274302303791046,-0.2298312783241272
1761369571391882200,0.54988232421875,-0.10384403169155121,0.047111593186855316,-0.3061871826648712
1761369571410492400,0.568492431640625,-0.10689827054738998,0.00862821750342846,-0.32817769050598145
1761369571429103900,0.587103759765625,-0.11178504675626755,-0.031076854094862938,-0.2670929729938507
1761369571447714000,0.605714111328125,-0.10995250940322876,-0.004810422193259001,-0.17057909071445465
1761369571466325500,0.624325439453125,-0.08490777015686035,0.025731941685080528,-0.06917845457792282
1761369571484935700,0.642935791015625,-0.06780404597520828,0.05138752609491348,0.021914144977927208
1761369571503547400,0.66154736328125,-0.028098974376916885,0.07032378762960434,0.09093988686800003
1761369571522157300,0.6801572265625,0.005497625097632408,0.03489464893937111,0.08727480471134186
1761369571540769000,0.69876904296875,0.05741964280605316,-0.021303297951817513,0.05795413255691528
1761369571559379200,0.717379150390625,0.06352811306715012,-0.010918894782662392,0.07322531193494797
1761369571577990700,0.73599072265625,0.021990500390529633,0.012293301522731781,0.10132429003715515
1761369571596600800,0.754600830078125,0.01954711228609085,0.03367295488715172,0.07933378964662552
1761369571615212300,0.77321240234375,0.07452336698770523,0.03306210786104202,0.015194825828075409
1761369571633822500,0.791822509765625,0.1056765764951706,-0.02008160389959812,-0.0594048947095871
1761369571652434200,0.81043408203125,0.05741964280605316,-0.06711684167385101,-0.17424418032169342
1761369571671044000,0.829044189453125,-0.01588202826678753,-0.08849649876356125,-0.2683146595954895
1761369571689655800,0.84765576171875,-0.08735115826129913,-0.053678203374147415,-0.27442312240600586
1761369571708266000,0.866265869140625,-0.1447708010673523,-0.005421269219368696,-0.20784078538417816
1761369571726877400,0.88487744140625,-0.17897824943065643,0.05016583204269409,-0.1247655525803566
1761369571745487600,0.903487548828125,-0.20157960057258606,0.05566345527768135,-0.072232685983181
1761369571764099000,0.92209912109375,-0.1704263836145401,0.04100312292575836,-0.056961506605148315
1761369571782709200,0.940709228515625,-0.1050657257437706,0.02817532978951931,-0.03008422814309597
1761369571801321000,0.959321044921875,-0.042759306728839874,0.036727190017700195,0.03168770298361778
1761369571819931000,0.977930908203125,-0.007941014133393764,0.037948887795209885,0.11415208131074905
1761369571838542600,0.99654248046875,-0.013438640162348747,0.0489441379904747,0.1727934181690216
1761369571857152800,1.01515283203125,-0.01038440316915512,0.037948887795209885,0.17645850777626038
1761369571875764200,1.03376416015625,-0.008551862090826035,-0.013362283818423748,0.15752223134040833
1761369571894374400,1.05237451171875,-0.014660334214568138,-0.05306735634803772,0.12942326068878174
1761369571912986000,1.070986083984375,-0.034818295389413834,-0.04023956134915352,0.0817771777510643
1761369571931596000,1.089595947265625,-0.06047387793660164,0.009849912486970425,0.030466007068753242
1761369571950207700,1.108207763671875,-0.05619794875383377,0.026342788711190224,-0.01847812905907631
1761369571968818000,1.12681787109375,-0.02076880633831024,0.006184828467667103,-0.06306997686624527
1761369571987429400,1.145429443359375,-0.0036650835536420345,-0.050013117492198944,-0.125987246632576
1761369572006039600,1.16403955078125,-0.011606098152697086,-0.053678203374147415,-0.1882936656475067
1761369572024651000,1.182651123046875,-0.037261683493852615,0.00007635590736754239,-0.2432699203491211
1761369572043261200,1.20126123046875,-0.08002099394798279,-0.02435753494501114,-0.2713688910007477
1761369572061873000,1.219872802734375,-0.10017894953489304,-0.043293800204992294,-0.2670929729938507
1761369572080482800,1.23848291015625,-0.1301104724407196,-0.012140588834881783,-0.22250111401081085
1761369572099094500,1.257094482421875,-0.1954711228609085,0.020845163613557816,-0.14064757525920868
1761369572117704700,1.27570458984375,-0.21685077250003815,0.11247225105762482,-0.06429167091846466
1761369572136316200,1.294316162109375,-0.1441599577665329,0.08315158635377884,0.010918894782662392
1761369572154926300,1.31292626953125,-0.11483928561210632,0.05077667906880379,0.06284090876579285
1761369572173538000,1.3315380859375,-0.06352811306715012,0.03733803704380989,0.07017108052968979
1761369572192148000,1.35014794921875,0.004275931045413017,0.019623467698693275,0.0689493864774704
1761369572210759700,1.368759765625,0.021379653364419937,0.05993938818573952,0.08055548369884491
1761369572229369900,1.387369873046875,0.07513421028852463,0.05566345527768135,0.11109784245491028
1761369572247981300,1.405981201171875,0.11972606182098389,0.09292513877153397,0.12331479042768478
1761369572266591500,1.424591552734375,0.1575985997915268,0.08437328040599823,0.13919681310653687
1761369572285203200,1.443203125,0.16370706260204315,0.05199837312102318,0.11781716346740723
1761369572303813000,1.461813232421875,0.2211267054080963,0.020845163613557816,0.0811663269996643
1761369572322424800,1.4804248046875,0.32008397579193115,-0.04818057641386986,0.03229855000972748
1761369572341034800,1.49903466796875,0.28343313932418823,-0.09338327497243881,-0.023364907130599022
1761369572359646500,1.517646484375,0.20402298867702484,-0.21982865035533905,-0.0856713280081749
1761369572378256600,1.536256591796875,-0.015271181240677834,-0.33466795086860657,-0.08933641016483307
1761369572396868000,1.5548681640625,-0.11911521852016449,-0.2888543903827667,-0.02886253222823143
1761369572415478300,1.573478271484375,-0.15026842057704926,-0.19783815741539001,0.06772769242525101
1761369572434090000,1.592090087890625,-0.1557660549879074,-0.11109784245491028,0.15324631333351135
1761369572452700000,1.610699951171875,-0.1710372269153595,-0.13003410398960114,0.21799612045288086
1761369572471311600,1.6293115234375,-0.1954711228609085,-0.12514732778072357,0.24609509110450745
1761369572489921800,1.647921875,-0.08674030750989914,-0.11964970827102661,0.25953373312950134
1761369572508533200,1.666533203125,0.04214845970273018,-0.0958266630768776,0.29496288299560547
1761369572527143400,1.685143310546875,0.08918370306491852,-0.04390464723110199,0.3603235185146332
1761369572545755100,1.703755126953125,0.10201149433851242,-0.015805672854185104,0.4238516390323639
1761369572564365000,1.722364990234375,0.10934165865182877,0.035505495965480804,0.48066043853759766
1761369572582976800,1.740976806640625,0.09468132257461548,0.06421531736850739,0.5264739990234375
1761369572601586700,1.759586669921875,0.13316470384597778,0.06360447406768799,0.5331932902336121
1761369572620198400,1.778198486328125,0.12888877093791962,0.055052608251571655,0.4843255281448364
1761369572638808600,1.79680859375,0.10384403169155121,0.05322006717324257,0.3969743549823761
1761369572657420000,1.815419921875,0.10750912129878998,0.05322006717324257,0.2674747407436371
1761369572676030200,1.8340302734375,0.12033691257238388,0.045889899134635925,0.14041851460933685
1761369572694642000,1.852641845703125,0.08002099394798279,0.06116108223795891,0.06039752438664436
1761369572713251800,1.871251953125,0.010995250195264816,0.055052608251571655,0.010918894782662392
1761369572731863600,1.889863525390625,-0.02504473738372326,0.02023431472480297,-0.04413371533155441
1761369572750473700,1.9084736328125,-0.021379653364419937,-0.015194825828075409,-0.11682453751564026
1761369572769085200,1.927085205078125,-0.01832541823387146,0.00007635590736754239,-0.14492350816726685
1761369572787695400,1.9456953125,-0.043981000781059265,0.004963133949786425,-0.1375933438539505
1761369572806306800,1.964306884765625,-0.07696675509214401,-0.013362283818423748,-0.11010521650314331
1761369572824917000,1.9829169921875,-0.0787992998957634,-0.006032116711139679,-0.09239064902067184
1761369572843528700,2.00152880859375,-0.04581354558467865,-0.020692450925707817,-0.0850604772567749
1761369572862138600,2.020138671875,-0.03787253051996231,0.004352286923676729,-0.04169032722711563
1761369572880750300,2.038750244140625,-0.04153761267662048,0.03061871975660324,0.018249060958623886
1761369572899360500,2.057360595703125,-0.03298575058579445,0.027564482763409615,0.04512634128332138
1761369572917972000,2.075971923828125,-0.007941014133393764,0.0019088976550847292,0.04512634128332138
1761369572936582100,2.09458203125,0.012216945178806782,-0.021303297951817513,0.03962871432304382
1761369572955193900,2.11319384765625,-0.020157959312200546,-0.006642963737249374,0.05795413255691528
1761369572973803800,2.1318037109375,-0.0397050715982914,0.0489441379904747,0.07505785673856735
1761369572992415500,2.15041552734375,-0.03176405653357506,0.022677704691886902,0.043293800204992294
1761369573011025700,2.169025634765625,-0.021379653364419937,-0.03474193811416626,-0.03680354729294777
1761369573029637000,2.18763720703125,-0.020157959312200546,-0.07383616268634796,-0.11743538826704025
1761369573048247300,2.206247314453125,-0.061084724962711334,-0.03840702027082443,-0.14675605297088623
1761369573066858800,2.224858642578125,-0.09773556143045425,0.01046075951308012,-0.15775130689144135
1761369573085469000,2.243468994140625,-0.09651386737823486,0.019623467698693275,-0.19806721806526184
1761369573104080600,2.26208056640625,-0.06169557198882103,0.012904148548841476,-0.21883602440357208
1761369573122690600,2.280690673828125,-0.02626643143594265,-0.03229855000972748,-0.2170034945011139
1761369573141302300,2.29930224609375,-0.006719320081174374,-0.050013117492198944,-0.1785201132297516
1761369573159912400,2.317912353515625,-0.0024433890357613564,-0.010308047756552696,-0.072232685983181
1761369573178524000,2.33652392578125,0.0024433890357613564,0.02817532978951931,0.04512634128332138
1761369573197134000,2.355134033203125,0.01710372418165207,0.019623467698693275,0.11415208131074905
1761369573215745500,2.37374560546875,0.03542914241552353,0.0025197449140250683,0.14102935791015625
1761369573234355700,2.392355712890625,0.04031591862440109,-0.0005344913806766272,0.15202461183071136
1761369573252967400,2.410967529296875,0.034818295389413834,0.0037414394319057465,0.15568970143795013
1761369573271577300,2.429577392578125,0.03176405653357506,0.0019088976550847292,0.1465269923210144
1761369573290189000,2.44818896484375,0.033596597611904144,-0.0005344913806766272,0.1086544543504715
1761369573308799200,2.46679931640625,0.0397050715982914,-0.012751436792314053,0.06223006546497345
1761369573327410700,2.48541064453125,0.054365407675504684,-0.01885990984737873,0.028633465990424156
1761369573346020900,2.504020751953125,0.045202698558568954,-0.010308047756552696,0.004810422193259001
1761369573364632300,2.52263232421875,0.028098974376916885,-0.004810422193259001,-0.023364907130599022
1761369573383242500,2.541242431640625,0.017714571207761765,-0.009697199799120426,-0.06062658876180649
1761369573401854200,2.559854248046875,0.008551862090826035,-0.010308047756552696,-0.09361234307289124
1761369573420464000,2.578464111328125,-0.0024433890357613564,-0.01763821393251419,-0.12354385852813721
1761369573439075800,2.597075927734375,-0.025655584409832954,-0.0231358390301466,-0.1516428291797638
1761369573457686000,2.61568603515625,-0.047646086663007736,-0.027411770075559616,-0.1772984117269516
1761369573476297500,2.63429736328125,-0.05803048983216286,-0.04756972938776016,-0.19318044185638428
1761369573494907600,2.65290771484375,-0.06413896381855011,-0.0561215914785862,-0.1779092699289322
1761369573513519400,2.671519287109375,-0.07635590434074402,-0.05428905040025711,-0.14675605297088623
1761369573532129300,2.69012939453125,-0.08063183724880219,-0.03474193811416626,-0.1107160672545433
1761369573550741000,2.708740966796875,-0.0922379344701767,-0.014583977870643139,-0.07406523078680038
1761369573569351000,2.727350830078125,-0.0794101431965828,-0.05428905040025711,-0.03374931216239929
1761369573587962600,2.745962646484375,-0.06841489672660828,-0.03962871432304382,-0.013591351918876171
1761369573606572500,2.764572509765625,-0.06413896381855011,-0.04879142343997955,0.022524992004036903
1761369573625184300,2.783184326171875,-0.023212196305394173,-0.09032903611660004,0.07505785673856735
1761369573643794400,2.80179443359375,0.016492875292897224,-0.07078192383050919,0.14530529081821442
1761369573662406000,2.820406005859375,0.02076880633831024,-0.018249060958623886,0.21066594123840332
1761369573681016000,2.83901611328125,0.02626643143594265,0.008017370477318764,0.26991814374923706
1761369573699627800,2.857627685546875,0.062306419014930725,0.009849912486970425,0.30656898021698
1761369573718237700,2.87623779296875,0.11300674080848694,0.00129805039614439,0.32306185364723206
1761369573736849400,2.894849365234375,0.1441599577665329,0.00862821750342846,0.3303920030593872
1761369573755459300,2.913459228515625,0.13927318155765533,0.04772244393825531,0.308401495218277
1761369573774071000,2.932071044921875,0.1172826737165451,0.06665870547294617,0.24792763590812683
1761369573792681200,2.95068115234375,0.09712471067905426,0.061771929264068604,0.15691138803958893
1761369573811292700,2.969292724609375,0.08368607610464096,0.0293970238417387,0.05795413255691528
1761369573829902800,2.98790283203125,0.07330167293548584,0.000687203137204051,-0.04474456235766411
1761369573848514600,3.0065146484375,0.043981000781059265,0.013514995574951172,-0.13026317954063416
1761369573867124500,3.02512451171875,0.017714571207761765,0.0165692325681448,-0.20845162868499756
1761369573885736200,3.043736083984375,0.011606098152697086,-0.05306735634803772,-0.27503398060798645
1761369573904346000,3.06234619140625,0.004275931045413017,-0.09399411827325821,-0.27197974920272827
1761369573922957800,3.080957763671875,-0.022601349279284477,-0.04634803533554077,-0.20784078538417816
1761369573941568000,3.099568115234375,-0.05070032179355621,0.012293301522731781,-0.10033166408538818
1761369573960179500,3.118179443359375,-0.062306419014930725,0.0067956759594380856,-0.03436015918850899
1761369573978789600,3.13678955078125,-0.05131116881966591,0.022066857665777206,0.023746687918901443
1761369573997401000,3.155401123046875,-0.02870982140302658,0.049554985016584396,0.07505785673856735
1761369574016011300,3.17401123046875,-0.006108472589403391,0.01046075951308012,0.09399411827325821
1761369574034623000,3.192623046875,0.007941014133393764,-0.035352785140275955,0.10315682739019394
1761369574053233000,3.21123291015625,0.005497625097632408,-0.008475505746901035,0.1465269923210144
1761369574071844600,3.2298447265625,0.004886778071522713,0.05138752609491348,0.20455747842788696
1761369574090454500,3.24845458984375,0.030542362481355667,0.062993623316288,0.2381540685892105
1761369574109066200,3.267066162109375,0.04214845970273018,0.04100312292575836,0.2375432252883911
1761369574127676400,3.285676513671875,0.023823043331503868,0.09048175066709518,0.21921780705451965
1761369574146287900,3.304287841796875,-0.04825693368911743,0.13629528880119324,0.23448899388313293
1761369574164898000,3.32289794921875,-0.061084724962711334,0.18333053588867188,0.16485241055488586
1761369574183509800,3.341509765625,-0.046424392610788345,0.07643226534128189,0.061619218438863754
1761369574202119700,3.36011962890625,-0.006719320081174374,0.05016583204269409,-0.05085303261876106
1761369574220731400,3.3787314453125,-0.03176405653357506,0.07276718318462372,-0.09239064902067184
1761369574239341300,3.39734130859375,-0.06169557198882103,0.10941801220178604,-0.1247655525803566
1761369574257953000,3.415953125,-0.06047387793660164,0.057496000081300735,-0.18340688943862915
1761369574276563200,3.434563232421875,-0.056808795779943466,0.0025197449140250683,-0.23593975603580475
1761369574295174700,3.453174560546875,-0.09468132257461548,0.015347537584602833,-0.23349636793136597
1761369574313784800,3.471784912109375,-0.1301104724407196,0.03061871975660324,-0.2011214643716812
1761369574332396300,3.490396240234375,-0.15332266688346863,0.04283566400408745,-0.19195875525474548
1761369574351006500,3.50900634765625,-0.10689827054738998,-0.05978667363524437,-0.16996824741363525
1761369574369618000,3.527617919921875,-0.09773556143045425,0.017180079594254494,-0.149199441075325
1761369574388228000,3.54622802734375,-0.10811996459960938,0.08376242965459824,-0.0984991192817688
1761369574406839800,3.56483984375,-0.10017894953489304,0.049554985016584396,-0.02092151902616024
1761369574425449700,3.58344970703125,-0.04825693368911743,0.10514208674430847,0.07811209559440613
1761369574444061400,3.6020615234375,-0.0012216945178806782,0.00007635590736754239,0.0952158197760582
1761369574462671400,3.62067138671875,0.026877280324697495,0.04650074616074562,0.14164020121097565
1761369574481283000,3.639282958984375,-0.006108472589403391,0.03733803704380989,0.2143310308456421
1761369574499893200,3.657893310546875,-0.08918370306491852,0.21692712604999542,0.4091913104057312
1761369574518504700,3.676504638671875,-0.1459924876689911,0.26457321643829346,0.5350258350372314
1761369574537115000,3.695114990234375,-0.14843589067459106,0.19615831971168518,0.574120044708252
1761369574555726600,3.7137265625,-0.13499724864959717,0.1295759677886963,0.5276956558227539
1761369574574336500,3.73233642578125,-0.03237490355968475,0.045889899134635925,0.4598916172981262
1761369574592948200,3.7509482421875,0.007941014133393764,0.019623467698693275,0.3444415032863617
1761369574611558100,3.76955810546875,0.02748812735080719,-0.0023670331574976444,0.24731677770614624
1761369574630169900,3.788169921875,0.04337015375494957,0.009239064529538155,0.21921780705451965
1761369574648780000,3.806780029296875,0.030542362481355667,0.03184041380882263,0.18073442578315735
1761369574667391500,3.8253916015625,0.01710372418165207,0.012904148548841476,0.14102935791015625
1761369574686001700,3.844001708984375,-0.005497625097632408,0.062993623316288,0.15019206702709198
1761369574704613000,3.862613037109375,-0.03787253051996231,0.07154548168182373,0.1740151196718216
1761369574723223300,3.881223388671875,-0.06352811306715012,0.06604786217212677,0.19417306780815125
1761369574741834800,3.899834716796875,-0.07391251623630524,0.0745997205376625,0.2375432252883911
1761369574760445000,3.91844482421875,-0.08979454636573792,0.09231429547071457,0.29740625619888306
1761369574779056600,3.937056640625,-0.12155860662460327,0.09597937762737274,0.3474957346916199
1761369574797666600,3.95566650390625,-0.11972606182098389,0.11369394510984421,0.3975852131843567
1761369574816278300,3.9742783203125,-0.07452336698770523,0.13079766929149628,0.4513397812843323
1761369574834888200,3.99288818359375,-0.056808795779943466,0.16195088624954224,0.48371466994285583
1761369574853500000,4.0115,-0.02870982140302658,0.18760646879673004,0.49226653575897217
1761369574872110000,4.030110107421875,-0.010995250195264816,0.17111359536647797,0.49226653575897217
1761369574890721500,4.048721435546875,-0.02993151545524597,0.18271969258785248,0.4995967149734497
1761369574909331700,4.067331787109375,-0.03787253051996231,0.19127154350280762,0.4886014461517334
1761369574927943200,4.085943115234375,-0.023212196305394173,0.17722205817699432,0.45439401268959045
1761369574946553300,4.10455322265625,-0.037261683493852615,0.15889663994312286,0.3963635265827179
1761369574965164800,4.123164794921875,-0.04092676565051079,0.10269869863986969,0.31084489822387695
1761369574983775000,4.14177490234375,-0.018936265259981155,0.019623467698693275,0.17951273918151855
1761369575002386400,4.160386474609375,0.022601349279284477,-0.07566870748996735,0.03290939703583717
1761369575020996600,4.17899658203125,0.038483377546072006,-0.14897038042545319,-0.09116895496845245
1761369575039608300,4.1976083984375,0.0030542362947016954,-0.16973918676376343,-0.18523943424224854
1761369575058218200,4.21621826171875,-0.0659715011715889,-0.13064496219158173,-0.25060009956359863
1761369575076830000,4.234829833984375,-0.17531315982341766,0.04100312292575836,-0.2817533016204834
1761369575095440000,4.25343994140625,-0.1710372269153595,-0.16668494045734406,-0.256708562374115
1761369575114051600,4.272051513671875,-0.28160059452056885,-0.13125580549240112,-0.24632415175437927
1761369575132661500,4.29066162109375,-0.363454133272171,-0.008475505746901035,-0.20234315097332
1761369575151273200,4.309273193359375,-0.4159869849681854,0.29389387369155884,-0.10827267915010452
1761369575169883400,4.32788330078125,-0.24556060135364532,-0.023746687918901443,0.03168770298361778
1761369575188494800,4.346494873046875,-0.20402298867702484,-0.08360971510410309,0.10010259598493576
1761369575207105000,4.36510498046875,-0.15515519678592682,-0.043293800204992294,0.10437852889299393
1761369575225716500,4.383716552734375,-0.11117420345544815,0.08742751181125641,0.10682191699743271
1761369575244326700,4.40232666015625,0.023212196305394173,-0.1074327602982521,0.1996707022190094
1761369575262938000,4.420938232421875,-0.006719320081174374,-0.04634803533554077,0.23143476247787476
1761369575281548300,4.43954833984375,0.011606098152697086,-0.015194825828075409,0.23021306097507477
1761369575300159700,4.45815966796875,0.054365407675504684,-0.034131091088056564,0.2253262847661972
1761369575318770000,4.47677001953125,0.06291726976633072,0.0025197449140250683,0.24914932250976562
1761369575337381600,4.495381591796875,0.03420744836330414,-0.023746687918901443,0.2680855989456177
1761369575355991600,4.513991455078125,0.021379653364419937,-0.02680092304944992,0.2656421959400177
1761369575374603300,4.532603271484375,0.036039989441633224,-0.0023670331574976444,0.24792763590812683
1761369575393213200,4.551213134765625,0.043981000781059265,-0.005421269219368696,0.227769672870636
1761369575411825000,4.569824951171875,0.03787253051996231,-0.012140588834881783,0.2112767994403839
1761369575430434800,4.588434814453125,0.016492875292897224,-0.00908635277301073,0.18195612728595734
1761369575449046500,4.607046630859375,0.012216945178806782,-0.010918894782662392,0.1599656194448471
1761369575467656700,4.62565673828125,0.005497625097632408,-0.0029778804164379835,0.1593547761440277
1761369575486268200,4.64426806640625,0.0024433890357613564,0.024510245770215988,0.16851748526096344
1761369575504878300,4.66287841796875,0.0024433890357613564,0.040392275899648666,0.16424155235290527
1761369575523489800,4.68148974609375,0.006719320081174374,0.023288551717996597,0.1349208950996399
1761369575542100000,4.700099853515625,0.008551862090826035,0.0067956759594380856,0.10193513333797455
1761369575560711400,4.71871142578125,0.01710372418165207,0.005573981441557407,0.07811209559440613
1761369575579321600,4.737321533203125,0.016492875292897224,-0.0005344913806766272,0.05734328553080559
1761369575597933000,4.75593310546875,-0.0018325417768210173,-0.010918894782662392,0.0420721061527729
1761369575616543200,4.774543212890625,-0.02504473738372326,-0.0017561858985573053,0.03962871432304382
1761369575635154700,4.79315478515625,-0.038483377546072006,0.009239064529538155,0.05123481526970863
1761369575653764900,4.811764892578125,-0.02870982140302658,0.017180079594254494,0.06711684167385101
1761369575672376600,4.83037646484375,-0.028098974376916885,0.02695363573729992,0.08299887180328369
1761369575690986500,4.848986572265625,-0.04337015375494957,0.00129805039614439,0.09338327497243881
1761369575709598200,4.86759814453125,-0.04214845970273018,0.07032378762960434,0.11293038725852966
1761369575728208100,4.8862080078125,0.0012216945178806782,0.02817532978951931,0.07444700598716736
1761369575746819800,4.90481982421875,0.04031591862440109,0.00862821750342846,0.043293800204992294
1761369575765429800,4.9234296875,0.042759306728839874,0.019623467698693275,0.04879142343997955
1761369575784041500,4.94204150390625,0.030542362481355667,0.03489464893937111,0.053678203374147415
1761369575802651600,4.960651611328125,0.026877280324697495,0.02695363573729992,0.036574479192495346
1761369575821263000,4.97926318359375,0.02626643143594265,0.023288551717996597,0.014583977870643139
1761369575839873300,4.997873291015625,0.015271181240677834,0.012904148548841476,0.015194825828075409
1761369575858484700,5.016484619140625,0,0.006184828467667103,0.03229855000972748
1761369575877095000,5.035094970703125,-0.018936265259981155,0.018401773646473885,0.050013117492198944
1761369575895706400,5.053706298828125,-0.025655584409832954,0.030007870867848396,0.05428905040025711
1761369575914316500,5.072316650390625,-0.023212196305394173,0.025121092796325684,0.031076854094862938
1761369575932928000,5.090927978515625,-0.009773556143045425,-0.006642963737249374,-0.017867282032966614
1761369575951538200,5.1095380859375,0.007330167107284069,-0.035352785140275955,-0.07040014863014221
1761369575970149600,5.128149658203125,0.0036650835536420345,-0.035352785140275955,-0.0844496339559555
1761369575988759800,5.146759765625,-0.022601349279284477,-0.0029778804164379835,-0.058183200657367706
1761369576007371300,5.165371337890625,-0.036039989441633224,0.015958385542035103,-0.03680354729294777
1761369576025981400,5.1839814453125,-0.036039989441633224,0.018401773646473885,-0.039857782423496246
1761369576044593200,5.20259326171875,-0.02993151545524597,0.011682453565299511,-0.06368082761764526
1761369576063203000,5.221203125,-0.011606098152697086,0.0067956759594380856,-0.08750387281179428
1761369576081814800,5.239814697265625,0.005497625097632408,-0.004199574701488018,-0.09483403712511063
1761369576100424700,5.2584248046875,0.013438640162348747,-0.012140588834881783,-0.10277505218982697
1761369576119036400,5.277036376953125,0.0024433890357613564,-0.01885990984737873,-0.10155335813760757
1761369576137646300,5.295646240234375,-0.012216945178806782,-0.009697199799120426,-0.07406523078680038
1761369576156258000,5.314258056640625,-0.021990500390529633,-0.015194825828075409,-0.049020491540431976
1761369576174868000,5.332867919921875,-0.02626643143594265,-0.017027366906404495,-0.03497100621461868
1761369576193479700,5.351479736328125,-0.02076880633831024,-0.013973130844533443,-0.016645587980747223
1761369576212089900,5.37008984375,-0.012827792204916477,-0.013362283818423748,0.013362283818423748
1761369576230701300,5.388701416015625,-0.004275931045413017,-0.004810422193259001,0.03901786729693413
1761369576249311500,5.4073115234375,0.0024433890357613564,0.004963133949786425,0.05184566229581833
1761369576267923000,5.4259228515625,0.004275931045413017,0.00007635590736754239,0.04634803533554077
1761369576286533000,5.444533203125,0.005497625097632408,0.00007635590736754239,0.03718532621860504
1761369576305144600,5.46314453125,0.009773556143045425,0.0025197449140250683,0.021914144977927208
1761369576323754800,5.481754638671875,0.007330167107284069,0.000687203137204051,0.0011453386396169662
1761369576342366200,5.5003662109375,-0.006108472589403391,0.004352286923676729,-0.010537114925682545
1761369576360976400,5.518976318359375,-0.018936265259981155,0.004963133949786425,-0.01847812905907631
1761369576379587800,5.537587890625,-0.012216945178806782,-0.0023670331574976444,-0.031916771084070206
1761369576398198000,5.556197998046875,-0.0036650835536420345,-0.006032116711139679,-0.04107947647571564
1761369576416809500,5.5748095703125,-0.018936265259981155,-0.010308047756552696,-0.051463883370161057
1761369576435419600,5.593419677734375,-0.051922015845775604,0.004352286923676729,-0.06184828653931618
1761369576454031400,5.61203125,-0.062306419014930725,-0.0005344913806766272,-0.06978929787874222
1761369576472641300,5.630641357421875,-0.061084724962711334,-0.0005344913806766272,-0.06123743951320648
1761369576491253000,5.6492529296875,-0.05497625470161438,0.01901262067258358,-0.03680354729294777
1761369576509863000,5.66786279296875,-0.046424392610788345,0.012293301522731781,-0.029473381116986275
1761369576528474600,5.686474609375,-0.033596597611904144,0.014125842601060867,-0.03558185324072838
1761369576547084500,5.70508447265625,-0.031153209507465363,0.014736690558493137,-0.04107947647571564
1761369576565696300,5.7236962890625,-0.021379653364419937,0.011682453565299511,-0.0325276181101799
1761369576584306400,5.742306396484375,-0.026877280324697495,0.01901262067258358,-0.02641914412379265
1761369576602918000,5.76091796875,-0.028098974376916885,-0.0017561858985573053,-0.024586603045463562
1761369576621528000,5.779528076171875,-0.01832541823387146,0.0067956759594380856,-0.014202198944985867
1761369576640139500,5.798139404296875,-0.0030542362947016954,0.026342788711190224,0.013973130844533443
1761369576658749700,5.816749755859375,-0.004275931045413017,0.022066857665777206,0.01885990984737873
1761369576677361200,5.835361083984375,0,0.028786176815629005,0.021303297951817513
1761369576695971300,5.853971435546875,0.024433890357613564,0.03978142887353897,0.03168770298361778
1761369576714582800,5.872582763671875,0.05008947476744652,0.058717694133520126,0.045737188309431076
1761369576733193000,5.89119287109375,0.07269082218408585,0.061771929264068604,0.05795413255691528
1761369576751804700,5.9098046875,0.0781884491443634,0.04222481697797775,0.04146125912666321
1761369576770414600,5.92841455078125,0.06291726976633072,0.0165692325681448,0.013362283818423748
1761369576789026300,5.9470263671875,0.034818295389413834,0.009849912486970425,0.007253811229020357
1761369576807636200,5.96563623046875,0.010995250195264816,0.0165692325681448,0.0231358390301466
1761369576826248000,5.984248046875,-0.004886778071522713,0.0067956759594380856,0.03168770298361778
1761369576844857900,6.00285791015625,-0.012827792204916477,-0.015194825828075409,0.015805672854185104
1761369576863469600,6.021469482421875,-0.025655584409832954,-0.02924431301653385,-0.012369656935334206
1761369576882079500,6.04007958984375,-0.03298575058579445,-0.028633465990424156,-0.027029991149902344
1761369576900691200,6.058691162109375,-0.02748812735080719,-0.0231358390301466,-0.015423892997205257
1761369576919301400,6.07730126953125,-0.03420744836330414,-0.010918894782662392,-0.0050394898280501366
1761369576937912800,6.095912841796875,-0.030542362481355667,0.0031305921729654074,-0.004428642801940441
1761369576956523000,6.11452294921875,-0.016492875292897224,0.012293301522731781,-0.02886253222823143
1761369576975134500,6.133134521484375,0.0036650835536420345,0.01046075951308012,-0.07956285774707794
1761369576993744600,6.15174462890625,-0.0030542362947016954,-0.0005344913806766272,-0.13087402284145355
1761369577012356000,6.170356201171875,-0.03542914241552353,0.030007870867848396,-0.1369825005531311
1761369577030966300,6.18896630859375,-0.07574506103992462,0.07032378762960434,-0.10766182839870453
1761369577049577700,6.20757763671875,-0.08918370306491852,0.08620581775903702,-0.06368082761764526
1761369577068188000,6.22618798828125,-0.07330167293548584,0.08070819079875946,-0.03008422814309597
1761369577086799400,6.24479931640625,-0.0397050715982914,0.024510245770215988,0.0011453386396169662
1761369577105409500,6.263409423828125,0.004275931045413017,0.02145601063966751,0.043293800204992294
1761369577124021000,6.28202099609375,0.026877280324697495,0.011682453565299511,0.08422056585550308
1761369577142631200,6.300631103515625,0.029320668429136276,0.025121092796325684,0.10498937219381332
1761369577161243000,6.319242919921875,0.015271181240677834,0.000687203137204051,0.08788564801216125
1761369577179852800,6.337852783203125,0.02076880633831024,-0.011529741808772087,0.06711684167385101
1761369577198464500,6.356464599609375,0.030542362481355667,0.0019088976550847292,0.06223006546497345
1761369577217074400,6.375074462890625,0.023823043331503868,0.015347537584602833,0.04879142343997955
1761369577235686100,6.39368603515625,-0.0036650835536420345,0.031229566782712936,0.007253811229020357
1761369577254296000,6.412296142578125,-0.01954711228609085,0.04222481697797775,-0.05085303261876106
1761369577272907800,6.43090771484375,-0.06169557198882103,0.04222481697797775,-0.1107160672545433
1761369577291518000,6.44951806640625,-0.11178504675626755,0.0037414394319057465,-0.15347537398338318
1761369577310129400,6.46812939453125,-0.16187451779842377,0.020845163613557816,-0.19195875525474548
1761369577328739600,6.486739501953125,-0.1966928243637085,0.034283801913261414,-0.23288552463054657
1761369577347351000,6.50535107421875,-0.1966928243637085,0.025121092796325684,-0.26281702518463135
1761369577365961200,6.523961181640625,-0.1820324808359146,-0.05856497958302498,-0.2579302489757538
1761369577384572700,6.54257275390625,-0.1429382562637329,-0.12270393967628479,-0.23471805453300476
1761369577403182800,6.561182861328125,-0.09407047927379608,-0.11476293206214905,-0.16630317270755768
1761369577421794300,6.579794189453125,-0.06291726976633072,-0.07811209559440613,-0.07956285774707794
1761369577440404500,6.598404541015625,-0.034818295389413834,-0.0420721061527729,-0.015423892997205257
1761369577459016000,6.617015869140625,0.006108472589403391,-0.008475505746901035,0.02924431301653385
1761369577477626000,6.635626220703125,0.0397050715982914,0.022066857665777206,0.05978667363524437
1761369577496237600,6.654237548828125,0.07635590434074402,0.03184041380882263,0.0695602297782898
1761369577514847700,6.67284765625,0.09468132257461548,0.012293301522731781,0.06711684167385101
1761369577533459500,6.69145947265625,0.08979454636573792,0.007406522985547781,0.05734328553080559
1761369577552069400,6.7100693359375,0.07513421028852463,0.0067956759594380856,0.05673243850469589
1761369577570681000,6.72868115234375,0.045202698558568954,-0.017027366906404495,0.06345175951719284
1761369577589291000,6.747291015625,0.012216945178806782,-0.006642963737249374,0.07017108052968979
1761369577607902700,6.76590283203125,-0.017714571207761765,-0.0035887276753783226,0.06650599837303162
1761369577626512600,6.7845126953125,-0.023212196305394173,-0.0011453386396169662,0.0426829531788826
1761369577645124400,6.803124267578125,-0.021379653364419937,-0.020692450925707817,0.00908635277301073
1761369577663734300,6.821734375,-0.02870982140302658,-0.036574479192495346,-0.024586603045463562
1761369577682346000,6.840345947265625,-0.016492875292897224,-0.04940227046608925,-0.045355409383773804
1761369577700956000,6.858955810546875,-0.013438640162348747,-0.054899897426366806,-0.05390727147459984
1761369577719567600,6.877567626953125,-0.051922015845775604,-0.05734328553080559,-0.0594048947095871
1761369577738177800,6.896177734375,-0.08368607610464096,-0.09093988686800003,-0.072232685983181
1761369577756789200,6.914789306640625,-0.08246438205242157,-0.2002815455198288,-0.11926792562007904
1761369577775399400,6.9333994140625,-0.0653606578707695,-0.23693238198757172,-0.20661908388137817
1761369577794011000,6.952010986328125,-0.07207997888326645,-0.1856212168931961,-0.24021568894386292
1761369577812621000,6.97062109375,-0.14110571146011353,-0.12026055157184601,-0.18523943424224854
1761369577831232500,6.989232421875,-0.16126367449760437,-0.06223006546497345,-0.11010521650314331
1761369577849842700,7.0078427734375,-0.11972606182098389,-0.028633465990424156,-0.06551336497068405
1761369577868454100,7.0264541015625,-0.06413896381855011,-0.03840702027082443,-0.037414394319057465
1761369577887064300,7.045064208984375,-0.0030542362947016954,-0.028633465990424156,-0.001374406274408102
1761369577905675800,7.06367578125,0.009773556143045425,-0.006032116711139679,0.04512634128332138
1761369577924286000,7.082285888671875,0.006108472589403391,0.015347537584602833,0.0811663269996643
1761369577942897400,7.1008974609375,0.018936265259981155,0.023288551717996597,0.08971819281578064
1761369577961507600,7.119507568359375,0.034818295389413834,0.02695363573729992,0.09277242422103882
1761369577980119000,7.138119140625,0.03298575058579445,0.053830914199352264,0.08910734206438065
1761369577998729200,7.156729248046875,0.01588202826678753,0.03855973482131958,0.0695602297782898
1761369578017340700,7.175340576171875,0.0018325417768210173,0.009239064529538155,0.04634803533554077
1761369578035950800,7.193950927734375,0.02076880633831024,0.020845163613557816,0.04512634128332138
1761369578054562600,7.2125625,0.02748812735080719,0.012293301522731781,0.05795413255691528
1761369578073172500,7.23117236328125,0.028098974376916885,0.022677704691886902,0.07872293889522552
1761369578091784200,7.2497841796875,0.02626643143594265,0.014125842601060867,0.08483141660690308
1761369578110394000,7.26839404296875,0.038483377546072006,-0.004810422193259001,0.06528430432081223
1761369578129005800,7.287005859375,0.04703523963689804,0.00007635590736754239,0.03290939703583717
1761369578147615700,7.30561572265625,0.03787253051996231,0.012293301522731781,0.015805672854185104
1761369578166227500,7.3242275390625,0.025655584409832954,0.03061871975660324,0.015194825828075409
1761369578184837400,7.34283740234375,0.022601349279284477,0.026342788711190224,0.015805672854185104
1761369578203449000,7.361448974609375,0.021990500390529633,-0.00908635277301073,-0.005650337319821119
1761369578222059000,7.38005908203125,0.006719320081174374,-0.024968381971120834,-0.031916771084070206
1761369578240670700,7.398670654296875,-0.00916270911693573,-0.022524992004036903,-0.04718795046210289
1761369578259280600,7.41728076171875,0.0024433890357613564,-0.030466007068753242,-0.058183200657367706
1761369578277892400,7.435892333984375,0.016492875292897224,-0.031076854094862938,-0.08689302206039429
1761369578296502300,7.454502197265625,0.007941014133393764,-0.07200361788272858,-0.11254860460758209
1761369578315114000,7.473114013671875,-0.0006108472589403391,-0.07078192383050919,-0.13453911244869232
1761369578333724000,7.491723876953125,-0.014660334214568138,-0.03779617324471474,-0.125987246632576
1761369578352335600,7.510335693359375,-0.02748812735080719,-0.019470756873488426,-0.10033166408538818
1761369578370945800,7.52894580078125,-0.005497625097632408,-0.0035887276753783226,-0.06123743951320648
1761369578389557200,7.54755712890625,0.021990500390529633,0.015958385542035103,-0.008093725889921188
1761369578408167400,7.56616748046875,0.031153209507465363,0.028786176815629005,0.03962871432304382
1761369578426779000,7.58477880859375,0.04031591862440109,0.02817532978951931,0.059175826609134674
1761369578445389000,7.60338916015625,0.05741964280605316,0.03733803704380989,0.059175826609134674
1761369578464000500,7.62200048828125,0.06658235192298889,0.04650074616074562,0.059175826609134674
1761369578482610700,7.640610595703125,0.06413896381855011,0.03733803704380989,0.05673243850469589
1761369578501222100,7.65922216796875,0.051922015845775604,0.03367295488715172,0.05062396824359894
1761369578519832300,7.677832275390625,0.03237490355968475,0.01046075951308012,0.03352024406194687
1761369578538443800,7.69644384765625,0.01954711228609085,0.00007635590736754239,0.013362283818423748
1761369578557054000,7.715053955078125,0.0036650835536420345,0.004352286923676729,0.01763821393251419
1761369578575665400,7.73366552734375,-0.00916270911693573,0.014736690558493137,0.03718532621860504
1761369578594275600,7.752275634765625,-0.013438640162348747,0.011682453565299511,0.03596363216638565
1761369578612887000,7.770886962890625,-0.007941014133393764,0.011071606539189816,0.02557922899723053
1761369578631497200,7.789497314453125,0.0030542362947016954,0.012293301522731781,0.021303297951817513
1761369578650108700,7.808108642578125,0.016492875292897224,-0.0005344913806766272,0.02008160389959812
1761369578668718800,7.82671875,0.017714571207761765,-0.0011453386396169662,0.017027366906404495
1761369578687330300,7.845330322265625,0.010995250195264816,0.019623467698693275,0.030466007068753242
1761369578705940500,7.8639404296875,0.015271181240677834,0.014125842601060867,0.03596363216638565
1761369578724552000,7.882552001953125,0.036039989441633224,-0.006642963737249374,0.021914144977927208
1761369578743162000,7.901162109375,0.05070032179355621,-0.022524992004036903,-0.0007635590736754239
1761369578761773600,7.919773681640625,0.06169557198882103,-0.031076854094862938,-0.029473381116986275
1761369578780383700,7.9383837890625,0.06963659077882767,-0.0164165198802948,-0.055739812552928925
1761369578798995200,7.9569951171875,0.07085828483104706,-0.008475505746901035,-0.09422318637371063
1761369578817605400,7.97560546875,0.062306419014930725,-0.02557922899723053,-0.14248012006282806
1761369578836216800,7.994216796875,0.08979454636573792,0.014736690558493137,-0.1779092699289322
1761369578854827000,8.012826904296874,0.051922015845775604,-0.07383616268634796,-0.16813570261001587
1761369578873438500,8.0314384765625,0.020157959312200546,0.011682453565299511,-0.12048961967229843
1761369578892048600,8.050048583984376,-0.04092676565051079,0.009849912486970425,-0.039857782423496246
1761369578910660400,8.068660400390625,-0.04947862774133682,0.037948887795209885,0.021914144977927208
1761369578929270300,8.087270263671876,-0.02504473738372326,0.014125842601060867,0.0683385357260704
1761369578947881700,8.1058818359375,-0.008551862090826035,0.011071606539189816,0.09827005118131638
1761369578966492000,8.124491943359375,-0.0006108472589403391,0.018401773646473885,0.10987614840269089
1761369578985103400,8.143103271484375,0.010995250195264816,0.0165692325681448,0.11415208131074905
1761369579003713500,8.161713623046875,0.031153209507465363,0.005573981441557407,0.09827005118131638
1761369579022325200,8.1803251953125,0.0390942245721817,-0.006642963737249374,0.07200361788272858
1761369579040935200,8.19893505859375,0.030542362481355667,-0.00786465872079134,0.043293800204992294
1761369579059546600,8.217546630859376,0.021379653364419937,-0.006032116711139679,0.008475505746901035
1761369579078156800,8.23615673828125,0.023823043331503868,-0.021303297951817513,-0.03374931216239929
1761369579096768500,8.2547685546875,0.03176405653357506,-0.04390464723110199,-0.07406523078680038
1761369579115378400,8.27337841796875,0.020157959312200546,-0.0561215914785862,-0.0984991192817688
1761369579133990000,8.291989990234375,-0.0012216945178806782,-0.036574479192495346,-0.09422318637371063
1761369579152600000,8.31060009765625,-0.017714571207761765,0.000687203137204051,-0.07650861889123917
1761369579171211500,8.32921142578125,-0.015271181240677834,0.015958385542035103,-0.05635065957903862
1761369579189821700,8.34782177734375,-0.012216945178806782,0.015958385542035103,-0.031916771084070206
1761369579208433400,8.366433349609375,-0.01588202826678753,0.015347537584602833,-0.0068720318377017975
1761369579227043300,8.385043212890626,-0.02626643143594265,0.01779092662036419,0.019470756873488426
1761369579245655000,8.403655029296875,-0.012827792204916477,0.02817532978951931,0.03840702027082443
1761369579264265000,8.422264892578125,0.0030542362947016954,0.012293301522731781,0.04940227046608925
1761369579282876400,8.44087646484375,0.007330167107284069,0.01901262067258358,0.044515494257211685
1761369579301486600,8.459486572265625,-0.0030542362947016954,0.0293970238417387,0.03352024406194687
1761369579320098300,8.478098388671874,-0.005497625097632408,0.03184041380882263,0.021303297951817513
1761369579338708200,8.496708251953125,-0.0024433890357613564,0.0165692325681448,0.0005344913806766272
1761369579357319700,8.515319580078126,0.004886778071522713,0.005573981441557407,-0.025808297097682953
1761369579375929900,8.533929931640625,0.011606098152697086,0.015958385542035103,-0.03802524134516716
1761369579394541300,8.552541259765626,0.007941014133393764,0.031229566782712936,-0.024586603045463562
1761369579413151500,8.5711513671875,0.013438640162348747,0.03855973482131958,-0.007482878863811493
1761369579431763000,8.589762939453125,0.02993151545524597,0.04650074616074562,0.0029778804164379835
1761369579450373000,8.608373046875,0.03237490355968475,0.03245126083493233,0.0035887276753783226
1761369579468984800,8.62698486328125,0.03176405653357506,0.03061871975660324,0.008475505746901035
1761369579487594800,8.6455947265625,0.024433890357613564,0.036727190017700195,0.004810422193259001
1761369579506206200,8.664206298828125,0.017714571207761765,0.035505495965480804,-0.0068720318377017975
1761369579524816400,8.68281640625,0.010995250195264816,0.014736690558493137,-0.02214321307837963
1761369579543427800,8.701427734375,0.00916270911693573,0.0025197449140250683,-0.036192700266838074
1761369579562038000,8.7200380859375,0.0012216945178806782,0.009239064529538155,-0.03558185324072838
1761369579580649500,8.7386494140625,-0.005497625097632408,0.02695363573729992,-0.015423892997205257
1761369579599259600,8.757259765625,-0.01038440316915512,0.01901262067258358,0.0011453386396169662
1761369579617871000,8.77587109375,-0.014049487188458443,0.014125842601060867,0.006032116711139679
1761369579636481300,8.794481201171875,-0.01710372418165207,0.020845163613557816,0.0023670331574976444
1761369579655092700,8.8130927734375,-0.008551862090826035,0.028786176815629005,-0.001374406274408102
1761369579673703000,8.831702880859375,-0.0012216945178806782,0.012904148548841476,-0.0032069480512291193
1761369579692314400,8.850314453125,0.007330167107284069,0.012904148548841476,0.0005344913806766272
1761369579710924500,8.868924560546875,0.007941014133393764,0.00862821750342846,0.006032116711139679
1761369579729536000,8.887535888671875,-0.0030542362947016954,0.0165692325681448,0.0164165198802948
1761369579748146200,8.906146240234374,-0.016492875292897224,0.015958385542035103,0.027411770075559616
1761369579766757600,8.924757568359375,-0.020157959312200546,0.006184828467667103,0.029855160042643547
1761369579785367800,8.943367919921876,-0.01588202826678753,0.004352286923676729,0.024968381971120834
1761369579803979300,8.961979248046875,-0.013438640162348747,0.006184828467667103,0.02008160389959812
1761369579822589400,8.98058935546875,-0.015271181240677834,0.0031305921729654074,0.02008160389959812
1761369579841201000,8.999200927734375,-0.014660334214568138,0.008017370477318764,0.0231358390301466
1761369579859811000,9.01781103515625,-0.00916270911693573,0.00007635590736754239,0.015194825828075409
1761369579878422500,9.036422607421875,-0.0012216945178806782,-0.012140588834881783,-0.00259610079228878
1761369579897032700,9.05503271484375,-0.011606098152697086,0.00129805039614439,-0.006261184345930815
1761369579915644200,9.07364404296875,-0.021990500390529633,0.015958385542035103,0.0011453386396169662
1761369579934254300,9.09225439453125,-0.01588202826678753,0.012293301522731781,0.015194825828075409
1761369579952865800,9.11086572265625,-0.004275931045413017,0.000687203137204051,0.021303297951817513
1761369579971476000,9.12947607421875,-0.0006108472589403391,-0.0029778804164379835,0.011529741808772087
1761369579990087400,9.14808740234375,-0.007941014133393764,0.0019088976550847292,-0.014202198944985867
1761369580008697300,9.166697265625,-0.013438640162348747,0.012904148548841476,0.006642963737249374
1761369580027309000,9.18530908203125,-0.018936265259981155,0.015958385542035103,0.035352785140275955
1761369580045919000,9.2039189453125,-0.010995250195264816,0.02817532978951931,0.04634803533554077
1761369580064530700,9.22253076171875,0.0030542362947016954,0.019623467698693275,0.03290939703583717
1761369580083140600,9.241140625,0.011606098152697086,-0.00786465872079134,-0.0038177953101694584
1761369580101752300,9.25975244140625,0.01954711228609085,-0.01885990984737873,-0.0325276181101799
1761369580120362200,9.2783623046875,0.02870982140302658,-0.01763821393251419,-0.03924693539738655
1761369580138974000,9.296973876953125,0.02748812735080719,0.000687203137204051,-0.03924693539738655
1761369580157584000,9.315583984375,0.01588202826678753,0.02145601063966751,-0.0331384651362896
1761369580176195600,9.334195556640625,0.012827792204916477,0.023288551717996597,-0.01969982497394085
1761369580194805500,9.352805419921875,0.02076880633831024,0.012904148548841476,-0.01847812905907631
1761369580213417200,9.371417236328124,0.026877280324697495,0.0067956759594380856,-0.025197450071573257
1761369580232027100,9.390027099609375,0.025655584409832954,0.00862821750342846,-0.025808297097682953
1761369580250638600,9.408638671875,0.007941014133393764,0.009849912486970425,-0.015423892997205257
1761369580269248800,9.427248779296875,-0.011606098152697086,-0.0011453386396169662,-0.00259610079228878
1761369580287860200,9.445860107421876,-0.004275931045413017,-0.009697199799120426,0.00908635277301073
1761369580306470400,9.464470458984374,-0.0036650835536420345,-0.014583977870643139,0.019470756873488426
1761369580325081900,9.483081787109375,-0.021990500390529633,-0.0017561858985573053,0.03352024406194687
1761369580343692000,9.501692138671874,-0.03298575058579445,0.0019088976550847292,0.0420721061527729
1761369580362303500,9.520303466796875,-0.033596597611904144,-0.004810422193259001,0.03962871432304382
1761369580380913700,9.53891357421875,-0.03237490355968475,-0.010308047756552696,0.024968381971120834
1761369580399525000,9.557525146484375,-0.021379653364419937,-0.014583977870643139,0.008475505746901035
1761369580418135300,9.57613525390625,-0.005497625097632408,-0.019470756873488426,-0.008704573847353458
1761369580436746800,9.594746826171875,0.0024433890357613564,-0.015194825828075409,-0.012980503961443901
1761369580455357000,9.61335693359375,-0.012216945178806782,0.0031305921729654074,-0.001374406274408102
1761369580473968400,9.631968505859374,-0.012216945178806782,0.012293301522731781,0.009697199799120426
1761369580492578600,9.65057861328125,-0.0024433890357613564,-0.0017561858985573053,0.0023670331574976444
1761369580511190000,9.66918994140625,0.0006108472589403391,-0.013973130844533443,0.0005344913806766272
1761369580529800200,9.68780029296875,-0.009773556143045425,-0.008475505746901035,0.00786465872079134
1761369580548411600,9.70641162109375,-0.017714571207761765,0.004352286923676729,0.026190076023340225
1761369580567021600,9.725021484375,-0.008551862090826035,0.023288551717996597,0.04085041210055351
1761369580585633300,9.74363330078125,0.007330167107284069,0.026342788711190224,0.030466007068753242
1761369580604243200,9.7622431640625,0.021990500390529633,0.004963133949786425,0.006642963737249374
1761369580622855000,9.78085498046875,0.023212196305394173,-0.0029778804164379835,-0.012980503961443901
1761369580641464800,9.79946484375,0.004275931045413017,0.009849912486970425,-0.008093725889921188
1761369580660076500,9.81807666015625,-0.014049487188458443,0.011071606539189816,0.006032116711139679
1761369580678686500,9.8366865234375,-0.012216945178806782,0.000687203137204051,0.008475505746901035
1761369580697298000,9.8552978515625,-0.007941014133393764,0.0025197449140250683,0.0017561858985573053
1761369580715908000,9.873908203125,-0.013438640162348747,0.0165692325681448,-0.007482878863811493
1761369580734519600,9.89251953125,-0.010995250195264816,0.0067956759594380856,-0.023975754156708717
1761369580753129700,9.911129638671875,0.008551862090826035,-0.009697199799120426,-0.03436015918850899
1761369580771741200,9.9297412109375,0.023823043331503868,0.004352286923676729,-0.02886253222823143
1761369580790351400,9.948351318359375,0.015271181240677834,0.01901262067258358,-0.014813045971095562
1761369580808962800,9.966962890625,0.018936265259981155,0.015958385542035103,-0.008704573847353458
1761369580827573000,9.985572998046875,0.03176405653357506,0.007406522985547781,-0.013591351918876171
1761369580846184400,10.004184326171876,0.023823043331503868,-0.015805672854185104,-0.03008422814309597
1761369580864794600,10.022794677734375,0.02076880633831024,-0.0164165198802948,-0.025808297097682953
1761369580883406000,10.041406005859375,0.004275931045413017,-0.02435753494501114,-0.017867282032966614
1761369580902016000,10.06001611328125,-0.01038440316915512,-0.022524992004036903,-0.0032069480512291193
1761369580920627700,10.078627685546875,-0.012216945178806782,-0.012140588834881783,0.011529741808772087
1761369580939237600,10.097237548828126,-0.0012216945178806782,-0.017027366906404495,0.015194825828075409
1761369580957849300,10.115849365234375,0.006108472589403391,-0.017027366906404495,0.011529741808772087
1761369580976459300,10.134459228515626,0.008551862090826035,-0.006642963737249374,0.009697199799120426
1761369580995071000,10.153071044921875,0.011606098152697086,0.0067956759594380856,0.005421269219368696
1761369581013681000,10.171680908203125,0.016492875292897224,0.012904148548841476,-0.001985253533348441
1761369581032292600,10.190292724609375,0.025655584409832954,0.00007635590736754239,-0.013591351918876171
1761369581050902500,10.208902587890625,0.03298575058579445,-0.0023670331574976444,-0.017867282032966614
1761369581069514200,10.22751416015625,0.028098974376916885,0.011682453565299511,-0.009315420873463154
1761369581088124200,10.246124267578125,0.010995250195264816,0.0293970238417387,0.006642963737249374
1761369581106735600,10.264735595703126,0.0006108472589403391,0.007406522985547781,0.009697199799120426
1761369581125345800,10.283345703125,0.007330167107284069,-0.0029778804164379835,0.009697199799120426
1761369581143957200,10.301957275390626,0.018936265259981155,0.004352286923676729,0.0164165198802948
1761369581162567400,10.3205673828125,0.026877280324697495,0.01901262067258358,0.03840702027082443
1761369581181179000,10.339178955078125,0.012827792204916477,0.039170581847429276,0.05123481526970863
1761369581199789000,10.3577890625,-0.007941014133393764,0.052609220147132874,0.043293800204992294
1761369581218400500,10.376400390625,-0.005497625097632408,0.048333290964365005,0.029855160042643547
1761369581237010700,10.3950107421875,0.014660334214568138,0.025731941685080528,0.015194825828075409
1761369581255622100,10.4136220703125,0.022601349279284477,0.011071606539189816,-0.001985253533348441
1761369581274232000,10.432232177734376,0.012827792204916477,0.0031305921729654074,-0.015423892997205257
1761369581292843800,10.45084375,0.006719320081174374,-0.0005344913806766272,-0.03130592033267021
1761369581311453700,10.46945361328125,-0.004275931045413017,0.011071606539189816,-0.03802524134516716
1761369581330065400,10.4880654296875,-0.022601349279284477,0.023899398744106293,-0.028251685202121735
1761369581348675300,10.50667529296875,-0.023823043331503868,0.022066857665777206,-0.019088976085186005
1761369581367287000,10.525287109375,-0.017714571207761765,0.017180079594254494,-0.02092151902616024
1761369581385897000,10.54389697265625,-0.0036650835536420345,-0.007253811229020357,-0.023364907130599022
1761369581404508400,10.56250830078125,0.010995250195264816,-0.02802261710166931,-0.023975754156708717
1761369581423118600,10.58111865234375,0.0018325417768210173,-0.02557922899723053,-0.03924693539738655
1761369581441730000,10.59972998046875,-0.020157959312200546,0.0025197449140250683,-0.04169032722711563
1761369581460340200,10.61834033203125,-0.01832541823387146,0.011071606539189816,-0.02764083817601204
1761369581478951700,10.63695166015625,-0.012827792204916477,0.00007635590736754239,-0.030695075169205666
1761369581497561900,10.655561767578124,-0.015271181240677834,-0.0017561858985573053,-0.04046862944960594
1761369581516173300,10.67417333984375,-0.01588202826678753,-0.012751436792314053,-0.04230117425322533
1761369581534783200,10.692783203125,-0.01710372418165207,-0.008475505746901035,-0.023975754156708717
1761369581553395000,10.71139501953125,-0.02076880633831024,-0.011529741808772087,-0.008093725889921188
1761369581572004900,10.7300048828125,-0.02993151545524597,-0.00786465872079134,-0.006261184345930815
1761369581590616600,10.748616455078125,-0.023212196305394173,-0.028633465990424156,-0.011147962883114815
1761369581609226500,10.7672265625,0.0024433890357613564,-0.04146125912666321,-0.025808297097682953
1761369581627838200,10.785838134765624,0.017714571207761765,-0.035352785140275955,-0.01847812905907631
1761369581646448000,10.8044482421875,0.021990500390529633,-0.023746687918901443,-0.0038177953101694584
1761369581665059600,10.8230595703125,0.017714571207761765,-0.02435753494501114,0.012140588834881783
1761369581683669800,10.841669677734375,0.022601349279284477,-0.02008160389959812,0.022524992004036903
