time,seconds_elapsed,z,y,x
1761371164962625800,0.197625732421875,-0.1284956932067871,0.04581928253173828,-0.39877480268478394
1761371164981236700,0.21623681640625,-0.15240716934204102,0.0059833526611328125,-0.2642385959625244
1761371164999849200,0.23484912109375,0.08564090728759766,-0.10388851165771484,-0.12021768093109131
1761371165018460200,0.253460205078125,0.14562559127807617,-0.02076435089111328,-0.21380376815795898
1761371165037072600,0.27207275390625,0.06222248077392578,-0.000640869140625,-0.13407403230667114
1761371165055683800,0.290683837890625,0.3772149085998535,-0.02166271209716797,-0.005336284637451172
1761371165074296000,0.309296142578125,0.03113555908203125,-0.041672706604003906,0.07455778121948242
1761371165092907300,0.3279072265625,-0.32836008071899414,0.08327674865722656,0.1752912998199463
1761371165111519500,0.34651953125,-0.29683446884155273,0.2595653533935547,0.18713831901550293
1761371165130130700,0.365130615234375,-0.17531347274780273,0.2475414276123047,0.25155532360076904
1761371165148743200,0.3837431640625,-0.1330275535583496,0.05093097686767578,0.3798494338989258
1761371165167354000,0.40235400390625,-0.18744802474975586,-0.0669708251953125,0.2442837953567505
1761371165185966600,0.420966552734375,-0.22582626342773438,-0.0883331298828125,0.016667842864990234
1761371165204577500,0.43957763671875,-0.27048444747924805,-0.083984375,-0.14246666431427002
1761371165223190000,0.45818994140625,-0.2225809097290039,-0.03197765350341797,-0.28365427255630493
1761371165241801000,0.476801025390625,-0.19856882095336914,0.003108978271484375,-0.36396723985671997
1761371165260413400,0.495413330078125,-0.1323866844177246,0.015424728393554688,-0.30908387899398804
1761371165279024400,0.5140244140625,-0.13466835021972656,0.02189159393310547,-0.11275768280029297
1761371165297636900,0.532636962890625,0.039742469787597656,-0.015982627868652344,0.05841827392578125
1761371165316247800,0.551247802734375,0.20435333251953125,-0.029630661010742188,0.11933434009552002
1761371165334860300,0.5698603515625,0.2160172462463379,0.023332595825195312,-0.03548085689544678
1761371165353471500,0.588471435546875,0.03446817398071289,0.05225944519042969,-0.07347822189331055
1761371165372084000,0.607083984375,-0.012370109558105469,0.02716827392578125,-0.022049427032470703
1761371165390695000,0.62569482421875,0.08605384826660156,-0.014481544494628906,0.016582608222961426
1761371165409307400,0.644307373046875,-0.05304908752441406,-0.029932022094726562,0.07899594306945801
1761371165427918300,0.66291845703125,-0.050018310546875,-0.01687145233154297,0.07403898239135742
1761371165446530800,0.68153076171875,-0.020012378692626953,-0.034088134765625,0.11510729789733887
1761371165465141800,0.700141845703125,-0.030871868133544922,0.03958320617675781,0.0067141056060791016
1761371165483754200,0.718754150390625,-0.11293220520019531,0.0394287109375,-0.0387951135635376
1761371165502365200,0.737365234375,-0.1300487518310547,0.0058269500732421875,-0.03460836410522461
1761371165520977700,0.755977783203125,-0.21027326583862305,-0.013275146484375,-0.0241391658782959
1761371165539588600,0.774588623046875,-0.07021665573120117,-0.037761688232421875,-0.023860931396484375
1761371165558201000,0.793201171875,0.030717849731445312,-0.04050445556640625,-0.03190004825592041
1761371165576812000,0.81181201171875,0.07876968383789062,0.02369213104248047,-0.029691696166992188
1761371165595424800,0.8304248046875,0.07587623596191406,0.06845283508300781,-0.09717977046966553
1761371165614035700,0.84903564453125,0.04415130615234375,0.038926124572753906,-0.08230715990066528
1761371165632648200,0.867648193359375,-0.02572774887084961,-0.0036573410034179688,-0.06323754787445068
1761371165651259100,0.886259033203125,-0.10348892211914062,-0.018784523010253906,-0.07815873622894287
1761371165669871600,0.90487158203125,-0.05826091766357422,-0.03274345397949219,-0.009945988655090332
1761371165688482600,0.923482666015625,0.028218746185302734,-0.007244110107421875,0.0034427642822265625
1761371165707095000,0.942094970703125,0.08320188522338867,0.0022649765014648438,-0.025198936462402344
1761371165725706000,0.9607060546875,0.040213584899902344,-0.015135765075683594,-0.05123215913772583
1761371165744318500,0.979318359375,-0.0003986358642578125,-0.027105331420898438,-0.02792060375213623
1761371165762929400,0.997929443359375,0.07770967483520508,-0.0043735504150390625,-0.015467524528503418
1761371165781542000,1.0165419921875,-0.004519462585449219,0.03718280792236328,0.0066689252853393555
1761371165800153000,1.035153076171875,-0.07183218002319336,0.04317188262939453,0.024022340774536133
1761371165818765600,1.053765625,-0.06134223937988281,0.03096294403076172,0.058683156967163086
1761371165837376500,1.07237646484375,0.11055278778076172,-0.0024204254150390625,0.09586942195892334
1761371165855989000,1.090989013671875,0.15378952026367188,-0.04347419738769531,0.07843029499053955
1761371165874600000,1.109599853515625,-0.06530141830444336,0.00083160400390625,0.04237949848175049
1761371165893212400,1.12821240234375,-0.03865671157836914,0.018944740295410156,-0.029570817947387695
1761371165911823400,1.1468232421875,0.0434727668762207,-0.000720977783203125,-0.05455636978149414
1761371165930435800,1.165435791015625,0.008971214294433594,-0.0061244964599609375,-0.012075662612915039
1761371165949046800,1.184046875,0.010168075561523438,-0.03551197052001953,0.022175073623657227
1761371165967659300,1.2026591796875,0.06466150283813477,-0.06319713592529297,-0.006799578666687012
1761371165986270200,1.221270263671875,-0.11689996719360352,-0.08241939544677734,0.007578134536743164
1761371166004882700,1.239882568359375,-0.16440916061401367,-0.05018043518066406,0.01782524585723877
1761371166023494000,1.258493896484375,-0.08909225463867188,-0.027866363525390625,-0.012928605079650879
1761371166042106400,1.2771064453125,-0.0007696151733398438,-0.010356903076171875,-0.02345108985900879
1761371166060717300,1.29571728515625,-0.02349090576171875,0.006519317626953125,-0.07719266414642334
1761371166079329800,1.314329833984375,-0.02020740509033203,0.01870441436767578,-0.042558491230010986
1761371166097940700,1.332940673828125,0.07577800750732422,0.0003814697265625,-0.059707462787628174
1761371166116553200,1.35155322265625,0.055864810943603516,0.025480270385742188,-0.05585014820098877
1761371166135164200,1.3701640625,0.024546146392822266,0.052634239196777344,0.00430142879486084
1761371166153776600,1.388776611328125,0.08330917358398438,0.04350852966308594,0.0646735429763794
1761371166172387600,1.4073876953125,0.09983682632446289,0.017427444458007812,0.14089250564575195
1761371166191000000,1.426,0.07790040969848633,0.007294654846191406,0.0874629020690918
1761371166209611000,1.444611083984375,0.004191875457763672,-0.010197639465332031,0.010543107986450195
1761371166228223700,1.4632236328125,-0.04610729217529297,-0.0055599212646484375,-0.019901514053344727
1761371166246834700,1.481834716796875,0.07639026641845703,-0.024786949157714844,-0.008682608604431152
1761371166265447200,1.500447265625,0.01361989974975586,-0.006724357604980469,-0.01663351058959961
1761371166284058000,1.51905810546875,-0.11616992950439453,0.021086692810058594,-0.0007368326187133789
1761371166302670600,1.537670654296875,-0.0967092514038086,0.0021104812622070312,0.011911988258361816
1761371166321281500,1.556281494140625,-0.017341136932373047,0.0005588531494140625,-0.008507728576660156
1761371166339894000,1.57489404296875,0.0037336349487304688,0.01692962646484375,0.026459932327270508
1761371166358505000,1.5935048828125,-0.013045787811279297,0.0001773834228515625,-0.004608631134033203
1761371166377117400,1.612117431640625,-0.008322715759277344,-0.03470897674560547,-0.02776646614074707
1761371166395728400,1.630728271484375,-0.0035858154296875,-0.021533966064453125,-0.06266254186630249
1761371166414340900,1.6493408203125,0.029691696166992188,0.018770217895507812,-0.0013370513916015625
1761371166432952000,1.6679521484375,-0.015169143676757812,0.013372421264648438,0.04701423645019531
1761371166451564300,1.686564208984375,0.043680667877197266,0.02238178253173828,0.0025278329849243164
1761371166470175500,1.705175537109375,0.0072231292724609375,0.04054069519042969,-0.04850316047668457
1761371166488788000,1.7237880859375,0.059500694274902344,0.0036172866821289062,0.0007034540176391602
1761371166507399000,1.74239892578125,0.009198665618896484,-0.05411529541015625,0.033927321434020996
1761371166526011400,1.761011474609375,-0.03667640686035156,-0.047286033630371094,0.028261303901672363
1761371166544622300,1.779622314453125,-0.03381204605102539,-0.010745048522949219,-0.05281996726989746
1761371166563234800,1.79823486328125,-0.09028434753417969,0.020154953002929688,-0.08900940418243408
1761371166581845800,1.816845703125,-0.1340475082397461,-0.0017175674438476562,-0.09003746509552002
1761371166600458200,1.835458251953125,-0.03596210479736328,-0.00292205810546875,-0.10714578628540039
1761371166619069200,1.854069091796875,0.030698299407958984,0.03563880920410156,-0.0694471001625061
1761371166637681700,1.872681640625,0.12732267379760742,0.020608901977539062,0.05666553974151611
1761371166656292600,1.891292724609375,0.20790767669677734,0.011165618896484375,0.1125802993774414
1761371166674905300,1.9099052734375,0.1252307891845703,0.03510761260986328,0.08983278274536133
1761371166693516300,1.928516357421875,-0.007590770721435547,0.025457382202148438,0.055016517639160156
1761371166712128800,1.947128662109375,-0.04633283615112305,0.0025386810302734375,-0.0030499696731567383
1761371166730739700,1.96573974609375,-0.08947086334228516,-0.016480445861816406,-0.05992227792739868
1761371166749352200,1.984352294921875,-0.16626834869384766,-0.024127960205078125,-0.04099959135055542
1761371166767963100,2.002963134765625,-0.09830570220947266,-0.053414344787597656,-0.007293701171875
1761371166786575600,2.02157568359375,0.04184103012084961,-0.0068817138671875,-0.04428136348724365
1761371166805186600,2.0401865234375,0.007300853729248047,0.00946807861328125,0.03209400177001953
1761371166823799000,2.058799072265625,-0.044237613677978516,-0.014170646667480469,0.06743025779724121
1761371166842410000,2.077409912109375,-0.0007843971252441406,-0.037273406982421875,0.05377483367919922
1761371166861022500,2.0960224609375,-0.003193378448486328,-0.010585784912109375,0.0005162954330444336
1761371166879633400,2.11463330078125,-0.03677845001220703,0.00177001953125,-0.028176963329315186
1761371166898246000,2.133245849609375,-0.02525043487548828,0.011694908142089844,-0.06879150867462158
1761371166916856800,2.15185693359375,0.03772687911987305,-0.00008392333984375,-0.02247941493988037
1761371166935469600,2.170469482421875,0.06453943252563477,-0.04429817199707031,0.07612895965576172
1761371166954080500,2.18908056640625,0.03314638137817383,-0.062152862548828125,0.11165404319763184
1761371166972693000,2.20769287109375,0.006404399871826172,-0.026284217834472656,0.06950151920318604
1761371166991304000,2.226303955078125,-0.03756380081176758,0.007721900939941406,0.10404407978057861
1761371167009916400,2.24491650390625,0.014565467834472656,0.014554023742675781,0.21493685245513916
1761371167028527400,2.26352734375,0.026159286499023438,0.012518882751464844,0.03866243362426758
1761371167047139800,2.282139892578125,-0.16243600845336914,0.05872058868408203,0.0926586389541626
1761371167065750800,2.300750732421875,-0.07499217987060547,0.01849842071533203,-0.025391578674316406
1761371167084363300,2.31936328125,0.0008573532104492188,-0.029035568237304688,-0.09754776954650879
1761371167102974200,2.33797412109375,0.0017824172973632812,0.0025129318237304688,-0.12713336944580078
1761371167121586700,2.356586669921875,-0.0456385612487793,0.0691213607788086,-0.12508165836334229
1761371167140197600,2.37519775390625,-0.022101879119873047,0.09667015075683594,-0.08525294065475464
1761371167158810000,2.39381005859375,0.055207252502441406,0.05025005340576172,-0.03601723909378052
1761371167177421300,2.41242138671875,0.03568553924560547,-0.018390655517578125,0.04643040895462036
1761371167196033800,2.43103369140625,0.046600341796875,-0.017894744873046875,0.007519423961639404
1761371167214644700,2.449644775390625,0.0019431114196777344,0.02170085906982422,0.005302548408508301
1761371167233257200,2.46825732421875,-0.013356208801269531,0.008731842041015625,0.02870696783065796
1761371167251868200,2.4868681640625,-0.04017782211303711,-0.02701282501220703,0.030173778533935547
1761371167270480600,2.505480712890625,-0.042508602142333984,-0.0078125,0.0037572383880615234
1761371167289091600,2.524091552734375,-0.03340482711791992,0.008357048034667969,0.021573245525360107
1761371167307704000,2.5427041015625,0.048250675201416016,0.025726318359375,0.03858667612075806
1761371167326315000,2.56131494140625,0.01810598373413086,0.023261070251464844,-0.02795332670211792
1761371167344927500,2.579927490234375,-0.01824665069580078,-0.020730972290039062,-0.046574413776397705
1761371167363538400,2.598538330078125,-0.04498147964477539,-0.029951095581054688,-0.049623847007751465
1761371167382151000,2.61715087890625,-0.026781558990478516,-0.01987934112548828,0.019901156425476074
1761371167400761900,2.635761962890625,0.08488845825195312,0.012662887573242188,0.036188483238220215
1761371167419374300,2.654374267578125,0.0608668327331543,0.0034742355346679688,0.059255361557006836
1761371167437985500,2.672985595703125,0.04152631759643555,-0.00798797607421875,0.08419972658157349
1761371167456598000,2.691597900390625,-0.03351306915283203,-0.01464080810546875,0.019766271114349365
1761371167475209000,2.710208984375,-0.15251541137695312,-0.04551124572753906,-0.010153472423553467
1761371167493821400,2.728821533203125,-0.16560840606689453,-0.0667123794555664,-0.04196411371231079
1761371167512432400,2.747432373046875,-0.1438460350036621,-0.04329395294189453,-0.060311734676361084
1761371167531044900,2.766044921875,-0.0027441978454589844,-0.00145721435546875,0.02874058485031128
1761371167549655800,2.78465576171875,0.17728662490844727,0.012135505676269531,0.10817122459411621
1761371167568268300,2.803268310546875,0.21686172485351562,0.053933143615722656,0.14014577865600586
1761371167586879200,2.821879150390625,0.1810145378112793,0.06252098083496094,0.045304179191589355
1761371167605491700,2.84049169921875,0.058915138244628906,0.03511238098144531,-0.029882192611694336
1761371167624102700,2.8591025390625,0.027892112731933594,-0.035508155822753906,-0.0782126784324646
1761371167642715100,2.877715087890625,-0.028594017028808594,-0.06154155731201172,-0.07240307331085205
1761371167661326000,2.896326171875,-0.10780668258666992,-0.057933807373046875,-0.04833012819290161
1761371167679938600,2.9149384765625,-0.13278675079345703,-0.04178428649902344,-0.03664851188659668
1761371167698549500,2.933549560546875,-0.05777263641357422,-0.02326679229736328,-0.010483324527740479
1761371167717162000,2.952161865234375,0.03390836715698242,0.0013103485107421875,-0.034138381481170654
1761371167735773200,2.970773193359375,0.005532264709472656,0.013421058654785156,-0.015430212020874023
1761371167754385700,2.9893857421875,-0.010103702545166016,0.032340049743652344,-0.032736361026763916
1761371167772996600,3.00799658203125,0.004370212554931641,0.0019655227661132812,-0.0009927749633789062
1761371167791609000,3.026609130859375,0.08472251892089844,-0.020697593688964844,0.07706683874130249
1761371167810220000,3.045219970703125,0.16686105728149414,-0.018558502197265625,0.08812177181243896
1761371167828832500,3.06383251953125,0.042679786682128906,0.022370338439941406,0.059974491596221924
1761371167847443500,3.082443359375,-0.03625345230102539,0.011206626892089844,0.023320496082305908
1761371167866056000,3.101055908203125,-0.03204345703125,0.017119407653808594,-0.019706010818481445
1761371167884667000,3.1196669921875,-0.09200906753540039,-0.006748199462890625,-0.01754707098007202
1761371167903279400,3.138279296875,-0.1048135757446289,-0.01735687255859375,-0.018292486667633057
1761371167921890300,3.156890380859375,-0.019599437713623047,-0.027329444885253906,-0.007240235805511475
1761371167940502800,3.175502685546875,0.04697704315185547,-0.04427909851074219,-0.008069932460784912
1761371167959113700,3.19411376953125,0.06379938125610352,-0.0009183883666992188,-0.044049978256225586
1761371167977726200,3.212726318359375,-0.0741109848022461,0.008358001708984375,-0.05837142467498779
1761371167996337200,3.231337158203125,-0.14626455307006836,-0.023344039916992188,-0.03715473413467407
1761371168014950000,3.249949951171875,-0.07757139205932617,-0.0182647705078125,-0.04980593919754028
1761371168033560600,3.268560546875,-0.035398006439208984,0.0034551620483398438,0.0025891661643981934
1761371168052173300,3.28717333984375,-0.038411617279052734,-0.023935317993164062,0.04931604862213135
1761371168070784300,3.3057841796875,-0.1100320816040039,0.019301414489746094,0.029384195804595947
1761371168089396700,3.324396728515625,0.0956878662109375,0.07541179656982422,-0.02210557460784912
1761371168108007700,3.343007568359375,0.14932537078857422,0.03281402587890625,0.06253254413604736
1761371168126620200,3.3616201171875,0.17911815643310547,-0.03344440460205078,0.14174312353134155
1761371168145231000,3.380231201171875,0.19354677200317383,-0.025223731994628906,0.09743177890777588
1761371168163843600,3.398843505859375,0.06092071533203125,0.020600318908691406,-0.01658046245574951
1761371168182454500,3.41745458984375,-0.09603643417358398,0.007103919982910156,-0.10841977596282959
1761371168201067000,3.43606689453125,-0.1733074188232422,0.0028123855590820312,-0.15118592977523804
1761371168219678000,3.454677978515625,-0.11128950119018555,0.03147697448730469,-0.15526849031448364
1761371168238290400,3.47329052734375,-0.0912775993347168,0.03355693817138672,-0.11956208944320679
1761371168256901400,3.4919013671875,-0.0674285888671875,0.024183273315429688,-0.10433638095855713
1761371168275513900,3.510513916015625,-0.10624217987060547,-0.00994873046875,-0.06444871425628662
1761371168294124800,3.529124755859375,-0.03244209289550781,0.0044307708740234375,-0.011547207832336426
1761371168312737300,3.5477373046875,0.12420272827148438,0.03369617462158203,0.056552767753601074
1761371168331348500,3.566348388671875,0.18259572982788086,0.06256484985351562,0.10676372051239014
1761371168349960700,3.584960693359375,0.10366392135620117,0.052239418029785156,0.1015363335609436
1761371168368572000,3.603572021484375,-0.005424022674560547,0.012080192565917969,0.07561618089675903
1761371168387184400,3.622184326171875,-0.024693012237548828,-0.017324447631835938,0.0571935772895813
1761371168405795300,3.64079541015625,-0.042025089263916016,-0.010152816772460938,0.0296097993850708
1761371168424407800,3.65940771484375,-0.014842987060546875,0.020349502563476562,-0.007317304611206055
1761371168443018800,3.678018798828125,-0.005059242248535156,0.017273902893066406,-0.01157534122467041
1761371168461631200,3.69663134765625,0.045078277587890625,0.011615753173828125,0.030465662479400635
1761371168480242200,3.7152421875,0.08313941955566406,0.014753341674804688,0.02929455041885376
1761371168498854700,3.733854736328125,0.04318714141845703,0.02702617645263672,0.00197601318359375
1761371168517465600,3.752465576171875,0.016173362731933594,0.006282806396484375,0.00292891263961792
1761371168536078000,3.771078125,-0.007941246032714844,-0.022846221923828125,0.008369505405426025
1761371168554689000,3.78968896484375,-0.05438375473022461,-0.01595783233642578,-0.005672156810760498
1761371168573301500,3.808301513671875,-0.0715179443359375,-0.03515815734863281,0.018572509288787842
1761371168591912400,3.826912353515625,-0.04350614547729492,-0.03002166748046875,0.04897654056549072
1761371168610525000,3.84552490234375,-0.0056591033935546875,-0.04138755798339844,0.02728283405303955
1761371168629136000,3.864135986328125,-0.04128265380859375,-0.019697189331054688,0.006097853183746338
1761371168647748400,3.882748291015625,-0.060350894927978516,-0.026001930236816406,0.004118382930755615
1761371168666359300,3.901359375,0.02360820770263672,-0.03466224670410156,0.060266077518463135
1761371168684971800,3.9199716796875,0.06761884689331055,0.0012311935424804688,0.00322568416595459
1761371168703582700,3.938582763671875,0.005116462707519531,0.028778076171875,-0.07286339998245239
1761371168722195200,3.9571953125,-0.05639171600341797,0.03495025634765625,-0.1011924147605896
1761371168740806400,3.975806396484375,-0.05350160598754883,0.0021181106567382812,-0.06896209716796875
1761371168759418600,3.994418701171875,0.03295469284057617,-0.027456283569335938,0.0193251371383667
1761371168778029800,4.01302978515625,0.023960590362548828,0.0018253326416015625,0.028472065925598145
1761371168796642300,4.031642333984375,0.00323486328125,0.006907463073730469,0.03773629665374756
1761371168815253200,4.050253173828125,-0.027301311492919922,-0.006239891052246094,0.011406302452087402
1761371168833865700,4.06886572265625,-0.03651237487792969,-0.023183822631835938,-0.023274362087249756
1761371168852476700,4.0874765625,0.0441288948059082,-0.03506660461425781,-0.07155388593673706
1761371168871089200,4.106089111328125,0.03701210021972656,-0.038130760192871094,-0.06310677528381348
1761371168889700000,4.1247001953125,-0.07843780517578125,-0.017020225524902344,-0.020212292671203613
1761371168908312600,4.1433125,-0.12056779861450195,0.007390022277832031,-0.002442657947540283
1761371168926923500,4.161923583984375,-0.07672643661499023,0.05044078826904297,0.06291484832763672
1761371168945536000,4.180535888671875,0.00781869888305664,0.0008363723754882812,0.14608842134475708
1761371168964147000,4.19914697265625,0.17212486267089844,-0.024961471557617188,0.13606464862823486
1761371168982759400,4.217759521484375,0.06060647964477539,-0.008294105529785156,-0.07415658235549927
1761371169001370400,4.236370361328125,-0.04656267166137695,-0.030612945556640625,0.026902973651885986
1761371169019982800,4.25498291015625,0.07564830780029297,0.017925262451171875,0.036397695541381836
1761371169038593800,4.27359375,0.27816200256347656,0.06125926971435547,0.13472676277160645
1761371169057206300,4.292206298828125,0.1447467803955078,0.027802467346191406,0.17300045490264893
1761371169075817200,4.310817138671875,0.05198097229003906,0.016007423400878906,0.0962214469909668
1761371169094429700,4.3294296875,0.017075061798095703,0.005909919738769531,0.013374090194702148
1761371169113040600,4.34804052734375,-0.0829157829284668,-0.006823539733886719,0.026562273502349854
1761371169131653000,4.366653076171875,-0.16576766967773438,-0.008652687072753906,-0.04428207874298096
1761371169150264000,4.38526416015625,-0.17183971405029297,0.026369094848632812,-0.1587735414505005
1761371169168876500,4.40387646484375,-0.19472312927246094,0.03147125244140625,-0.14067530632019043
1761371169187487500,4.422487548828125,-0.11236953735351562,-0.00382232666015625,-0.10412335395812988
1761371169206100000,4.441099853515625,0.08647298812866211,-0.049671173095703125,-0.02222299575805664
1761371169224711200,4.459711181640625,0.11220216751098633,-0.0343780517578125,0.04586535692214966
1761371169243323400,4.478323486328125,0.14873266220092773,0.01902008056640625,0.07800859212875366
1761371169261934300,4.496934326171875,0.12300443649291992,0.06717300415039062,0.06074279546737671
1761371169280547000,4.515547119140625,0.09008550643920898,0.08954811096191406,0.02578556537628174
1761371169299158000,4.534157958984375,0.047400474548339844,0.07120513916015625,-0.020429253578186035
1761371169317770500,4.5527705078125,-0.045502662658691406,0.011662483215332031,0.0094374418258667
1761371169336381400,4.57138134765625,-0.03253936767578125,-0.03427886962890625,0.014087200164794922
1761371169354994000,4.589993896484375,0.020625591278076172,-0.0443572998046875,-0.0019549131393432617
1761371169373604900,4.60860498046875,0.05655956268310547,-0.09656906127929688,0.029559791088104248
1761371169392217300,4.62721728515625,0.06330633163452148,-0.12859535217285156,0.08869403600692749
1761371169410828300,4.645828369140625,0.0041675567626953125,-0.08456230163574219,0.04404979944229126
1761371169429440800,4.664440673828125,-0.10029411315917969,-0.007905960083007812,0.040783822536468506
1761371169448051700,4.6830517578125,-0.07363367080688477,0.07981300354003906,-0.04571402072906494
1761371169466664200,4.701664306640625,0.0018329620361328125,0.10217952728271484,-0.042114078998565674
1761371169485275100,4.720275146484375,0.054528236389160156,0.06048011779785156,-0.009002387523651123
1761371169503887600,4.7388876953125,0.03908395767211914,-0.027286529541015625,0.07968050241470337
1761371169522498600,4.75749853515625,0.0018124580383300781,-0.07726764678955078,0.07242262363433838
1761371169541111000,4.776111083984375,-0.06422615051269531,-0.07701396942138672,0.0067438483238220215
1761371169559722000,4.794721923828125,-0.10616254806518555,-0.04993915557861328,-0.053662240505218506
1761371169578334500,4.81333447265625,-0.06164216995239258,-0.02083301544189453,-0.05305570363998413
1761371169596945400,4.8319453125,-0.04454612731933594,0.009988784790039062,-0.06098031997680664
1761371169615558000,4.850557861328125,-0.07768726348876953,0.023459434509277344,-0.031126737594604492
1761371169634168800,4.8691689453125,-0.11292600631713867,0.016170501708984375,-0.021494269371032715
1761371169652781300,4.88778125,-0.06056070327758789,-0.006134033203125,-0.02403336763381958
1761371169671392300,4.906392333984375,0.037000179290771484,-0.016112327575683594,-0.026543140411376953
1761371169690004700,4.925004638671875,0.0816192626953125,0.00112152099609375,0.0010106563568115234
1761371169708615700,4.94361572265625,0.11850404739379883,0.009096145629882812,-0.04415178298950195
1761371169727228200,4.962228271484375,0.043251991271972656,0.025482177734375,-0.006014227867126465
1761371169745839000,4.980839111328125,0.009447097778320312,0.03744697570800781,-0.02376413345336914
1761371169764451600,4.99945166015625,-0.005079746246337891,0.01613330841064453,0.023963868618011475
1761371169783062500,5.0180625,-0.10470247268676758,-0.03835582733154297,0.0968790054321289
1761371169801675000,5.036675048828125,0.013339519500732422,-0.03454113006591797,0.0672534704208374
1761371169820286000,5.055285888671875,0.09104251861572266,0.010046005249023438,0.05785226821899414
1761371169838898400,5.0738984375,0.04168701171875,0.04763984680175781,0.030831456184387207
1761371169857509400,5.09250927734375,-0.024709224700927734,0.05847930908203125,-0.02640664577484131
1761371169876121900,5.111121826171875,-0.10405540466308594,0.004204750061035156,-0.011815786361694336
1761371169894732800,5.12973291015625,-0.03217601776123047,-0.0497589111328125,-0.014637291431427002
1761371169913345300,5.14834521484375,0.026709556579589844,-0.03502464294433594,-0.05051785707473755
1761371169931956200,5.166956298828125,-0.005761146545410156,0.013287544250488281,-0.07207357883453369
1761371169950568700,5.185568603515625,-0.09109830856323242,0.046265602111816406,0.007179319858551025
1761371169969179600,5.2041796875,-0.015911579132080078,-0.005343437194824219,0.11854887008666992
1761371169987792100,5.222792236328125,0.0760507583618164,0.009534835815429688,0.043038904666900635
1761371170006403300,5.2414033203125,0.019218921661376953,0.011305809020996094,0.012157022953033447
1761371170025015600,5.260015625,-0.06950044631958008,-0.002414703369140625,0.022126317024230957
1761371170043626800,5.278626708984375,0.00781393051147461,0.008112907409667969,-0.04097253084182739
1761371170062239000,5.297239013671875,0.031350135803222656,0.017683029174804688,-0.05877894163131714
1761371170080850200,5.31585009765625,-0.042873382568359375,0.015102386474609375,0.005889594554901123
1761371170099462400,5.33446240234375,-0.07078027725219727,-0.008364677429199219,0.026728510856628418
1761371170118073600,5.353073486328125,-0.02634716033935547,-0.03510856628417969,0.02420496940612793
1761371170136686000,5.37168603515625,-0.01904439926147461,-0.01860523223876953,-0.020656466484069824
1761371170155297000,5.390297119140625,-0.0665731430053711,0.014101028442382812,-0.060678720474243164
1761371170173909500,5.408909423828125,-0.049846649169921875,0.015730857849121094,0.00045794248580932617
1761371170192520400,5.4275205078125,0.09856176376342773,-0.03249549865722656,0.10339713096618652
1761371170211133000,5.4461328125,0.12048673629760742,-0.008387565612792969,0.07674866914749146
1761371170229743900,5.464743896484375,0.08507633209228516,0.0048160552978515625,0.011564791202545166
1761371170248356400,5.4833564453125,0.023101329803466797,0.04793262481689453,-0.05270957946777344
1761371170266967300,5.50196728515625,-0.07030916213989258,0.04767036437988281,-0.02366471290588379
1761371170285579800,5.520579833984375,-0.18169641494750977,0.011936187744140625,-0.05292016267776489
1761371170304190700,5.539190673828125,-0.1574091911315918,0.0420989990234375,-0.09603053331375122
1761371170322803200,5.55780322265625,-0.08269166946411133,0.03527641296386719,-0.1072162389755249
1761371170341414100,5.5764140625,0.09619331359863281,-0.002269744873046875,-0.023588955402374268
1761371170360026600,5.595026611328125,0.1654810905456543,-0.031212806701660156,-0.0004038810729980469
1761371170378637600,5.613637451171875,0.15555286407470703,-0.029600143432617188,0.01885986328125
1761371170397250000,5.63225,0.05612516403198242,-0.040007591247558594,-0.010630130767822266
1761371170415861000,5.650861083984375,-0.009159088134765625,0.010624885559082031,-0.060650527477264404
1761371170434473500,5.669473388671875,-0.032689571380615234,0.047565460205078125,-0.037621378898620605
1761371170453084400,5.68808447265625,-0.06047534942626953,0.008869171142578125,0.08120155334472656
1761371170471697000,5.70669677734375,-0.023679733276367188,0.000400543212890625,0.08923506736755371
1761371170490307800,5.725307861328125,0.0370640754699707,0.004109382629394531,0.0853843092918396
1761371170508920300,5.74392041015625,0.07158279418945312,0.013937950134277344,0.059323132038116455
1761371170527531300,5.76253125,0.03097391128540039,0.013255119323730469,-0.019303441047668457
1761371170546143700,5.781143798828125,-0.07681083679199219,-0.023901939392089844,-0.021028339862823486
1761371170564754700,5.799754638671875,-0.07248878479003906,-0.03789329528808594,-0.046497344970703125
1761371170583367200,5.8183671875,0.0016980171203613281,-0.009749412536621094,-0.09528529644012451
1761371170601978000,5.83697802734375,-0.06187009811401367,-0.012948036193847656,-0.06387072801589966
1761371170620590600,5.855590576171875,-0.10592842102050781,-0.04071998596191406,-0.022085607051849365
1761371170639201500,5.874201416015625,-0.04930591583251953,-0.04356193542480469,0.0282326340675354
1761371170657814000,5.89281396484375,0.010219097137451172,-0.01650714874267578,0.05221182107925415
1761371170676425000,5.911425048828125,-0.02387094497680664,0.0077381134033203125,0.03827565908432007
1761371170695037400,5.930037353515625,-0.018898963928222656,0.025569915771484375,0.0012123584747314453
1761371170713648400,5.9486484375,0.0771169662475586,0.02139759063720703,0.08347296714782715
1761371170732260900,5.9672607421875,0.1446247100830078,-0.011743545532226562,0.09069287776947021
1761371170750871800,5.985871826171875,0.11420488357543945,-0.03599357604980469,0.07188171148300171
1761371170769484300,6.004484375,0.0837254524230957,-0.017493247985839844,0.062333762645721436
1761371170788095200,6.02309521484375,0.1187143325805664,0.046179771423339844,-0.02717745304107666
1761371170806707700,6.041707763671875,0.0870966911315918,0.07828330993652344,-0.06337535381317139
1761371170825318700,6.060318603515625,-0.08093786239624023,0.041606903076171875,-0.03083336353302002
1761371170843931100,6.07893115234375,-0.1703815460205078,-0.027596473693847656,0.06701737642288208
1761371170862542300,6.097542236328125,-0.16679859161376953,-0.0746917724609375,0.15531229972839355
1761371170881154600,6.116154541015625,-0.11227703094482422,-0.06744861602783203,0.08548963069915771
1761371170899765800,6.134765869140625,-0.08137989044189453,-0.006346702575683594,0.022496461868286133
1761371170918378000,6.1533779296875,-0.009210586547851562,0.022043228149414062,-0.014766514301300049
1761371170936989200,6.1719892578125,0.08654069900512695,0.02128124237060547,-0.04445183277130127
1761371170955601400,6.190601318359375,0.028734207153320312,0.056488037109375,-0.11740213632583618
1761371170974212600,6.209212646484375,-0.049280643463134766,0.07706737518310547,-0.1339241862297058
1761371170992825000,6.2278251953125,-0.0411376953125,0.006386756896972656,-0.0005265474319458008
1761371171011436000,6.24643603515625,0.15967512130737305,-0.044091224670410156,0.03839319944381714
1761371171030048500,6.265048583984375,0.1307058334350586,-0.008503913879394531,0.0164031982421875
1761371171048659500,6.283659423828125,-0.06481361389160156,0.00897979736328125,-0.028913795948028564
1761371171067272000,6.30227197265625,-0.02376413345336914,-0.05038166046142578,-0.01488882303237915
1761371171085883000,6.3208828125,0.05965089797973633,-0.030405044555664062,-0.09642666578292847
1761371171104495400,6.339495361328125,-0.030515193939208984,0.042710304260253906,-0.12552016973495483
1761371171123106300,6.358106201171875,-0.043236732482910156,0.057880401611328125,-0.09621661901473999
1761371171141718800,6.37671875,0.0110626220703125,-0.025299072265625,0.06317800283432007
1761371171160329700,6.395329833984375,0.12254619598388672,-0.024025917053222656,0.09925073385238647
1761371171178942200,6.413942138671875,0.08051633834838867,0.017688751220703125,0.053586602210998535
1761371171197553200,6.43255322265625,-0.027061939239501953,0.0018243789672851562,0.04262322187423706
1761371171216165600,6.45116552734375,-0.0005903244018554688,-0.04616069793701172,0.11292684078216553
1761371171234776600,6.469776611328125,-0.02272796630859375,-0.02203083038330078,0.05799895524978638
1761371171253389000,6.48838916015625,-0.004687786102294922,0.024788856506347656,-0.042274296283721924
1761371171272000000,6.507,-0.0673823356628418,0.009495735168457031,-0.06871026754379272
1761371171290612500,6.525612548828125,-0.0944819450378418,-0.03171730041503906,0.023830711841583252
1761371171309223400,6.544223388671875,0.046417236328125,-0.041106224060058594,0.07385468482971191
1761371171327836000,6.5628359375,0.11964607238769531,0.006825447082519531,0.04808056354522705
1761371171346446800,6.58144677734375,0.021852970123291016,0.014673233032226562,0.039836108684539795
1761371171365059300,6.600059326171875,-0.07764673233032227,-0.012189865112304688,0.07025444507598877
1761371171383670300,6.618670166015625,0.019357681274414062,-0.01230621337890625,0.017533183097839355
1761371171402282800,6.63728271484375,-0.022313594818115234,-0.02666950225830078,0.01574796438217163
1761371171420893700,6.655893798828125,-0.07928180694580078,-0.033161163330078125,0.01698678731918335
1761371171439506200,6.674506103515625,-0.0704183578491211,0.0008544921875,0.0001755356788635254
1761371171458117000,6.6931171875,0.008236408233642578,0.036014556884765625,-0.034402430057525635
1761371171476729600,6.7117294921875,0.013760566711425781,0.02080535888671875,-0.04699307680130005
1761371171495340500,6.730340576171875,-0.026104450225830078,-0.0020599365234375,-0.037267982959747314
1761371171513953000,6.748953125,0.018605709075927734,0.02977752685546875,-0.05426144599914551
1761371171532564000,6.76756396484375,-0.019610881805419922,0.055756568908691406,-0.02029430866241455
1761371171551176400,6.786176513671875,0.0708160400390625,0.06338787078857422,0.004687368869781494
1761371171569787600,6.80478759765625,0.23247861862182617,0.0591583251953125,-0.02932661771774292
1761371171588399900,6.82339990234375,0.23645734786987305,0.06661796569824219,-0.10132545232772827
1761371171607011000,6.842010986328125,0.0410466194152832,-0.03116893768310547,-0.12055552005767822
1761371171625623300,6.860623291015625,-0.10967874526977539,-0.16649436950683594,0.04194033145904541
1761371171644234500,6.879234375,-0.1478581428527832,-0.17919921875,0.17735373973846436
1761371171662846700,6.8978466796875,-0.12412738800048828,-0.04155731201171875,0.12180650234222412
1761371171681458000,6.9164580078125,-0.1239461898803711,0.07111454010009766,0.020092546939849854
1761371171700070400,6.9350703125,-0.10494184494018555,0.10890483856201172,-0.03408181667327881
1761371171718681300,6.953681396484375,-0.02005290985107422,0.08069324493408203,-0.033369362354278564
1761371171737293800,6.9722939453125,0.020019054412841797,0.011450767517089844,-0.02911520004272461
1761371171755904800,6.99090478515625,0.022180557250976562,-0.036774635314941406,-0.03130441904067993
1761371171774517200,7.009517333984375,0.006203651428222656,-0.04652214050292969,0.015424251556396484
1761371171793128200,7.028128173828125,-0.020246505737304688,-0.011977195739746094,0.007873892784118652
1761371171811740700,7.04674072265625,0.0015268325805664062,0.016584396362304688,-0.07454121112823486
1761371171830351600,7.0653515625,0.031618595123291016,0.06505489349365234,-0.061378419399261475
1761371171848964000,7.083964111328125,0.08992528915405273,0.060326576232910156,0.0006767511367797852
1761371171867575000,7.102574951171875,0.1348438262939453,0.07023334503173828,0.03268754482269287
1761371171886187500,7.1211875,0.15101242065429688,0.05240440368652344,0.07898604869842529
1761371171904798500,7.139798583984375,0.20955991744995117,-0.05557441711425781,0.0714917778968811
1761371171923411000,7.158410888671875,0.14753437042236328,-0.11210823059082031,0.061929941177368164
1761371171942022000,7.17702197265625,-0.06363964080810547,-0.09195518493652344,-0.01904904842376709
1761371171960634400,7.19563427734375,-0.17502641677856445,-0.07114887237548828,0.052659034729003906
1761371171979245300,7.214245361328125,-0.26767873764038086,-0.0685739517211914,0.07239788770675659
1761371171997857800,7.23285791015625,-0.26901721954345703,0.020615577697753906,0.08903670310974121
1761371172016468700,7.25146875,-0.2724161148071289,0.052939414978027344,0.060619056224823
1761371172035081200,7.270081298828125,-0.11517477035522461,-0.014921188354492188,0.12278664112091064
1761371172053692200,7.288692138671875,-0.01332855224609375,-0.0307464599609375,0.05958610773086548
1761371172072304600,7.3073046875,0.05099201202392578,0.018739700317382812,-0.04419153928756714
1761371172090915600,7.32591552734375,0.02132415771484375,-0.008710861206054688,-0.09940868616104126
1761371172109528000,7.344528076171875,0.09232282638549805,-0.0476226806640625,-0.02688586711883545
1761371172128139000,7.363138916015625,0.1015162467956543,0.011898040771484375,-0.009229183197021484
1761371172146751500,7.38175146484375,-0.006214141845703125,0.0625753402709961,-0.05258995294570923
1761371172165362400,7.400362548828125,0.10046911239624023,0.04122447967529297,-0.0793033242225647
1761371172183975000,7.418974853515625,0.2301483154296875,-0.009195327758789062,0.024644911289215088
1761371172202585900,7.4375859375,0.0898141860961914,-0.014964103698730469,0.043926119804382324
1761371172221198300,7.4561982421875,-0.0878143310546875,0.0031690597534179688,-0.050440311431884766
1761371172239809300,7.474809326171875,-0.08132362365722656,0.00756072998046875,-0.04559910297393799
1761371172258421800,7.493421875,-0.06215953826904297,0.012202262878417969,0.0758676528930664
1761371172277032700,7.51203271484375,-0.05305671691894531,-0.00672149658203125,0.12687474489212036
1761371172295645200,7.530645263671875,-0.05439186096191406,-0.006157875061035156,0.09320944547653198
1761371172314256100,7.549256103515625,-0.06109809875488281,-0.018978118896484375,0.06843608617782593
1761371172332868600,7.56786865234375,-0.01743602752685547,-0.01441192626953125,0.016631722450256348
1761371172351479600,7.5864794921875,0.053110599517822266,0.019926071166992188,-0.029247164726257324
1761371172370092000,7.605092041015625,0.031282901763916016,0.043450355529785156,-0.048726677894592285
1761371172388703000,7.623702880859375,0.010909080505371094,0.012158393859863281,-0.0030233263969421387
1761371172407315500,7.6423154296875,0.12572956085205078,-0.011587142944335938,0.057705819606781006
1761371172425926700,7.6609267578125,0.1593337059020996,0.02269458770751953,0.07899749279022217
1761371172444539000,7.679538818359375,0.1317911148071289,0.07033920288085938,0.03698021173477173
1761371172463150000,7.698150146484375,-0.007919788360595703,0.045823097229003906,-0.036959171295166016
1761371172481762300,7.71676220703125,-0.1358356475830078,-0.011561393737792969,0.007272303104400635
1761371172500373500,7.73537353515625,-0.12056398391723633,-0.05564117431640625,0.07345044612884521
1761371172518986000,7.753986083984375,-0.04354715347290039,-0.016538619995117188,0.06869637966156006
1761371172537597000,7.772596923828125,-0.08011865615844727,0.02164745330810547,0.04913240671157837
1761371172556209400,7.79120947265625,-0.09319210052490234,0.03346443176269531,0.012292146682739258
1761371172574820400,7.8098203125,0.015754222869873047,-0.008862495422363281,-0.013219773769378662
1761371172593432800,7.828432861328125,-0.032834529876708984,-0.043140411376953125,0.028331995010375977
1761371172612043800,7.847043701171875,0.023198604583740234,-0.045874595642089844,0.022662639617919922
1761371172630656300,7.86565625,0.0801248550415039,0.00022029876708984375,-0.08439695835113525
1761371172649267200,7.88426708984375,0.022810935974121094,-0.008818626403808594,-0.06351381540298462
1761371172667879700,7.902879638671875,-0.02086353302001953,-0.036927223205566406,0.011723220348358154
1761371172686490600,7.92149072265625,0.08640861511230469,0.01750946044921875,0.037032246589660645
1761371172705103000,7.94010302734375,0.13122797012329102,0.035953521728515625,0.008697152137756348
1761371172723714000,7.958714111328125,0.03046894073486328,-0.01436614990234375,0.05434387922286987
1761371172742326500,7.977326416015625,-0.030249595642089844,-0.026930809020996094,0.0565834641456604
1761371172760937500,7.9959375,-0.028446674346923828,-0.018678665161132812,0.04864543676376343
1761371172779550000,8.014550048828125,-0.06842517852783203,-0.05986309051513672,0.018494009971618652
1761371172798161000,8.033160888671874,-0.17435693740844727,-0.009931564331054688,-0.034856438636779785
1761371172816773400,8.0517734375,-0.06919384002685547,0.011983871459960938,-0.050196826457977295
1761371172835384300,8.07038427734375,0.03157329559326172,0.007647514343261719,-0.01643550395965576
1761371172853996800,8.088996826171876,-0.0020427703857421875,0.0107574462890625,-0.023336470127105713
1761371172872607700,8.107607666015625,0.054116249084472656,0.025633811950683594,-0.04664623737335205
1761371172891220200,8.12622021484375,0.10895633697509766,0.0606842041015625,-0.06408959627151489
1761371172909831200,8.1448310546875,0.0649566650390625,0.06133460998535156,0.002718329429626465
1761371172928443600,8.163443603515624,0.08768177032470703,0.009626388549804688,0.032640814781188965
1761371172947054600,8.1820546875,0.098480224609375,-0.037299156188964844,0.06125617027282715
1761371172965667000,8.2006669921875,-0.03250265121459961,-0.024951934814453125,0.01702117919921875
1761371172984278000,8.219278076171875,-0.09441089630126953,-0.0031232833862304688,-0.03504467010498047
1761371173002890500,8.237890380859374,-0.05107736587524414,0.032772064208984375,-0.08915680646896362
1761371173021501400,8.25650146484375,-0.026561737060546875,0.04713249206542969,-0.05365568399429321
1761371173040114000,8.275114013671875,-0.002907276153564453,0.009632110595703125,0.023167848587036133
1761371173058724900,8.293724853515625,0.05990171432495117,-0.033840179443359375,0.054104506969451904
1761371173077337300,8.31233740234375,0.1020045280456543,-0.06055641174316406,0.06151062250137329
1761371173095948300,8.3309482421875,0.09394407272338867,-0.060194969177246094,0.0604090690612793
1761371173114560800,8.349560791015625,-0.056302547454833984,-0.01774120330810547,0.04077416658401489
1761371173133171700,8.368171630859376,-0.05657625198364258,0.041095733642578125,-0.016150832176208496
1761371173151784200,8.3867841796875,-0.07059574127197266,0.0658721923828125,-0.06489616632461548
1761371173170395100,8.40539501953125,-0.0878591537475586,0.044116973876953125,-0.04032629728317261
1761371173189007600,8.424007568359375,-0.02513599395751953,-0.02545928955078125,0.043261945247650146
1761371173207618600,8.44261865234375,0.03589677810668945,-0.01663970947265625,-0.0007499456405639648
1761371173226231000,8.46123095703125,0.031221389770507812,-0.00893402099609375,-0.043079257011413574
1761371173244842000,8.479842041015624,-0.07406425476074219,0.00820159912109375,-0.04685544967651367
1761371173263454500,8.498454345703125,0.011235237121582031,0.013054847717285156,-0.08392482995986938
1761371173282065400,8.5170654296875,0.004951000213623047,0.0011987686157226562,-0.04311448335647583
1761371173300678000,8.535677978515626,0.020477294921875,-0.005770683288574219,-0.03659623861312866
1761371173319288800,8.554288818359375,0.0170745849609375,-0.005555152893066406,-0.014050722122192383
1761371173337901300,8.5729013671875,-0.03774690628051758,0.0157012939453125,-0.039189279079437256
1761371173356512300,8.59151220703125,-0.022057056427001953,-0.016516685485839844,-0.001176595687866211
1761371173375124700,8.610124755859376,0.03533029556274414,-0.008150100708007812,-0.01611381769180298
1761371173393735700,8.628735595703125,-0.010974884033203125,-0.01012420654296875,0.006921887397766113
1761371173412348200,8.64734814453125,-0.06752967834472656,0.023431777954101562,0.041610538959503174
1761371173430959000,8.665958984375,0.005198955535888672,0.034938812255859375,0.019650399684906006
1761371173449571600,8.684571533203124,0.05494976043701172,0.017891883850097656,-0.018192648887634277
1761371173468182500,8.7031826171875,0.01820087432861328,-0.020259857177734375,-0.07412022352218628
1761371173486795000,8.721794921875,-0.04600954055786133,-0.04732990264892578,-0.028692543506622314
1761371173505406000,8.740406005859375,-0.05822038650512695,-0.014312744140625,-0.02466350793838501
1761371173524018400,8.759018310546875,-0.003341197967529297,0.04395866394042969,-0.06889337301254272
1761371173542629400,8.77762939453125,0.010746479034423828,0.02242565155029297,0.011816561222076416
1761371173561241900,8.796241943359375,-0.0287933349609375,-0.030615806579589844,0.09126001596450806
1761371173579852800,8.814852783203126,0.022111892700195312,-0.0337371826171875,-0.0014524459838867188
1761371173598465300,8.83346533203125,0.018380165100097656,0.011688232421875,-0.05376088619232178
1761371173617076200,8.852076171875,-0.06762981414794922,0.018958091735839844,-0.07262104749679565
1761371173635688700,8.870688720703125,-0.05889129638671875,-0.022054672241210938,-0.036017775535583496
1761371173654299600,8.889299560546876,0.011727333068847656,-0.02611541748046875,0.047146618366241455
1761371173672912100,8.907912109375,0.07854175567626953,0.009057998657226562,0.10303157567977905
1761371173691523000,8.926523193359374,0.08214616775512695,0.04157733917236328,0.07215595245361328
1761371173710135600,8.945135498046875,0.01413106918334961,0.021297454833984375,0.0981948971748352
1761371173728746500,8.96374658203125,0.009282588958740234,0.031993865966796875,-0.028836369514465332
1761371173747359000,8.98235888671875,-0.06722450256347656,0.019669532775878906,-0.06847929954528809
1761371173765970000,9.000969970703125,-0.0646047592163086,-0.000415802001953125,-0.076266348361969
1761371173784582400,9.01958251953125,0.03374052047729492,-0.0039806365966796875,-0.059287428855895996
1761371173803193300,9.038193359375,0.06996536254882812,-0.010773658752441406,-0.017879724502563477
1761371173821805800,9.056805908203126,-0.006747722625732422,-0.012845039367675781,-0.013254880905151367
1761371173840416800,9.075416748046875,0.020669937133789062,-0.010407447814941406,0.02669435739517212
1761371173859029200,9.094029296875,-0.0045223236083984375,0.0010166168212890625,0.06565278768539429
1761371173877640200,9.11264013671875,0.022844791412353516,0.030798912048339844,0.05963665246963501
1761371173896252700,9.131252685546874,-0.016248703002929688,0.028957366943359375,0.025480031967163086
1761371173914863600,9.149863525390625,-0.05212068557739258,-0.03293895721435547,0.06692320108413696
1761371173933476000,9.16847607421875,-0.020461082458496094,-0.05476665496826172,0.09768295288085938
1761371173952087000,9.187087158203125,-0.025574684143066406,-0.010109901428222656,0.04089134931564331
1761371173970699500,9.205699462890625,-0.049691200256347656,0.01909351348876953,0.004896879196166992
1761371173989310500,9.224310546875,0.006627559661865234,-0.00865936279296875,-0.0013306140899658203
1761371174007923000,9.2429228515625,0.0454106330871582,-0.015019416809082031,-0.009142100811004639
1761371174026534000,9.261533935546876,-0.005185127258300781,-0.012086868286132812,-0.02850717306137085
1761371174045146400,9.280146484375,-0.09334516525268555,-0.008192062377929688,-0.05709540843963623
1761371174063757300,9.29875732421875,-0.030375003814697266,-0.005946159362792969,-0.0807497501373291
1761371174082369800,9.317369873046875,0.04086112976074219,-0.01855754852294922,-0.03805428743362427
1761371174100980700,9.335980712890626,-0.04430723190307617,-0.023832321166992188,-0.0005533099174499512
1761371174119593200,9.35459326171875,-0.0651555061340332,-0.006969451904296875,-0.007870733737945557
1761371174138204200,9.3732041015625,-0.04513263702392578,0.033545494079589844,-0.038474202156066895
1761371174156816600,9.391816650390625,0.07494449615478516,0.03751850128173828,-0.0026965737342834473
1761371174175427600,9.410427490234374,0.1444869041442871,-0.002105712890625,0.05139285326004028
1761371174194040000,9.4290400390625,0.09930038452148438,0.0051364898681640625,-0.002962172031402588
1761371174212651000,9.447651123046874,-0.006184577941894531,0.009320259094238281,-0.0816606879234314
1761371174231263500,9.466263427734376,-0.029174327850341797,-0.011941909790039062,-0.08924120664596558
1761371174249874400,9.48487451171875,-0.026881694793701172,-0.026986122131347656,-0.051982223987579346
1761371174268487000,9.50348681640625,-0.002964496612548828,0.0015544891357421875,-0.008242905139923096
1761371174287097900,9.522097900390625,0.06075334548950195,0.04483604431152344,0.022600948810577393
1761371174305710300,9.54071044921875,0.07792234420776367,0.08282470703125,0.015736103057861328
1761371174324321300,9.5593212890625,0.01442098617553711,0.029949188232421875,0.03611356019973755
1761371174342933800,9.577933837890624,-0.028611183166503906,-0.03227806091308594,0.00023561716079711914
1761371174361544700,9.596544677734375,-0.08826494216918945,-0.03577709197998047,-0.06307071447372437
1761371174380157200,9.6151572265625,-0.08410882949829102,-0.0031785964965820312,-0.09118294715881348
1761371174398768000,9.63376806640625,-0.06942272186279297,0.010342597961425781,-0.03803032636642456
1761371174417380600,9.652380615234375,0.005881309509277344,-0.009541511535644531,0.038937389850616455
1761371174435991600,9.670991455078125,0.023515701293945312,0.014969825744628906,0.10807323455810547
1761371174454604000,9.68960400390625,0.08495235443115234,0.046462059020996094,0.07885336875915527
1761371174473215000,9.708215087890625,0.019484519958496094,0.02477264404296875,0.025385379791259766
1761371174491827500,9.726827392578125,-0.06392288208007812,-0.01863574981689453,0.0032674074172973633
1761371174510438400,9.7454384765625,-0.08084440231323242,-0.031106948852539062,-0.0264168381690979
1761371174529051000,9.76405078125,-0.03273153305053711,-0.02450847625732422,0.019891738891601562
1761371174547661800,9.782661865234376,0.01569652557373047,0.0055217742919921875,0.08387815952301025
1761371174566274300,9.8012744140625,0.13901329040527344,0.02194499969482422,0.05527228116989136
1761371174584885200,9.81988525390625,0.09694051742553711,0.02931976318359375,0.008364200592041016
1761371174603497700,9.838497802734375,-0.0343632698059082,-0.0007390975952148438,0.028557181358337402
1761371174622108700,9.857108642578124,-0.04805946350097656,-0.033730506896972656,0.06351184844970703
1761371174640721200,9.87572119140625,0.06560754776000977,-0.0009222030639648438,-0.023736774921417236
1761371174659332000,9.89433203125,-0.008542060852050781,0.046418190002441406,-0.031552672386169434
1761371174677944600,9.912944580078126,-0.1259913444519043,0.05834388732910156,-0.030047357082366943
1761371174696555500,9.931555419921875,-0.1144251823425293,0.018102645874023438,0.02816075086593628
1761371174715168000,9.95016796875,0.07436370849609375,0.013998985290527344,0.033832669258117676
1761371174733779000,9.968779052734375,0.1447615623474121,0.007838249206542969,0.004715561866760254
1761371174752391400,9.987391357421876,0.08047676086425781,-0.01768207550048828,0.10197824239730835
1761371174771002400,10.00600244140625,0.02784442901611328,-0.023720741271972656,0.01699090003967285
1761371174789614800,10.02461474609375,0.048549652099609375,0.0011930465698242188,-0.04849022626876831
1761371174808225800,10.043225830078125,0.021605968475341797,0.011313438415527344,0.006136775016784668
1761371174826838300,10.06183837890625,-0.0845789909362793,-0.04147624969482422,0.05836397409439087
1761371174845449200,10.08044921875,0.00024318695068359375,-0.08548450469970703,0.17179840803146362
1761371174864061700,10.099061767578124,0.00333404541015625,-0.05185508728027344,0.06403577327728271
1761371174882672600,10.117672607421875,-0.070892333984375,-0.028779029846191406,-0.04752272367477417
1761371174901285000,10.13628515625,-0.14487218856811523,-0.04229450225830078,-0.033399879932403564
1761371174919896000,10.15489599609375,-0.0956578254699707,-0.05789375305175781,-0.01438605785369873
1761371174938508300,10.17350830078125,0.015585899353027344,-0.028240203857421875,0.014814496040344238
1761371174957119200,10.192119140625,0.02784109115600586,0.037980079650878906,0.011913120746612549
1761371174975732000,10.21073193359375,0.04509401321411133,0.03359699249267578,0.08885151147842407
1761371174994343000,10.229343017578126,0.08841419219970703,0.02428436279296875,0.11957478523254395
1761371175012955100,10.247955078125,0.08741092681884766,0.04476356506347656,0.10360771417617798
1761371175031566000,10.266566162109376,0.0530242919921875,0.026108741760253906,0.01598656177520752
1761371175050178600,10.285178466796875,-0.05741310119628906,-0.024275779724121094,0.012560606002807617
1761371175068789500,10.30378955078125,-0.046853065490722656,-0.05300617218017578,0.03879040479660034
1761371175087402000,10.322402099609375,0.028432369232177734,-0.0015439987182617188,0.041187286376953125
1761371175106013000,10.341012939453124,0.044445037841796875,0.03533649444580078,0.016271531581878662
1761371175124625400,10.35962548828125,-0.030144691467285156,0.011927604675292969,0.03532767295837402
1761371175143236400,10.378236328125,-0.10922908782958984,-0.013699531555175781,0.033518970012664795
1761371175161848800,10.396848876953126,0.05914592742919922,-0.012715339660644531,0.0017960667610168457
1761371175180459800,10.415459716796875,0.1903853416442871,0.01609039306640625,0.05234140157699585
1761371175199072300,10.434072265625,0.07741022109985352,-0.008225440979003906,-0.09672486782073975
1761371175217683200,10.45268310546875,-0.04261493682861328,0.06415271759033203,-0.060282766819000244
1761371175236295700,10.471295654296876,-0.07583379745483398,0.023697853088378906,-0.08884406089782715
1761371175254906600,10.48990673828125,-0.10304975509643555,-0.026340484619140625,-0.03819000720977783
1761371175273519000,10.50851904296875,-0.058058738708496094,-0.020340919494628906,-0.05681014060974121
1761371175292130000,10.527130126953125,-0.008069992065429688,-0.009632110595703125,-0.05285161733627319
1761371175310742500,10.545742431640624,-0.030040740966796875,-0.031844139099121094,0.018655061721801758
1761371175329353500,10.564353515625,-0.005402088165283203,-0.029497146606445312,0.0701799988746643
1761371175347966000,10.582966064453124,0.07755231857299805,-0.009163856506347656,0.0467187762260437
1761371175366577000,10.601576904296875,0.04482460021972656,-0.013775825500488281,-0.0012882351875305176
1761371175385189400,10.620189453125,-0.041422367095947266,-0.010582923889160156,-0.03611677885055542
1761371175403800300,10.63880029296875,0.01943683624267578,0.006840705871582031,-0.07660162448883057
1761371175422412800,10.657412841796875,0.06068754196166992,0.037059783935546875,-0.08152824640274048
1761371175441023700,10.676023681640626,0.03146839141845703,0.023542404174804688,-0.04176628589630127
1761371175459636200,10.69463623046875,0.026505470275878906,-0.00998687744140625,-0.01820582151412964
1761371175478247200,10.7132470703125,0.0162506103515625,-0.009722709655761719,-0.0023692846298217773
1761371175496859600,10.731859619140625,-0.06648015975952148,0.009716987609863281,0.04184156656265259
1761371175515470600,10.750470703125,0.0502471923828125,-0.00010395050048828125,0.05771946907043457
1761371175534083000,10.7690830078125,0.06647062301635742,-0.0175018310546875,0.05473202466964722
1761371175552694000,10.787694091796874,0.01035308837890625,-0.02532196044921875,0.04102945327758789
1761371175571306500,10.806306396484375,-0.06165170669555664,-0.022591590881347656,-0.028409481048583984
1761371175589917400,10.82491748046875,-0.03224611282348633,0.013467788696289062,-0.09480500221252441
1761371175608530000,10.843530029296875,-0.10315990447998047,0.03265380859375,-0.05999964475631714
1761371175627140900,10.862140869140624,-0.12740468978881836,0.027068138122558594,0.02025836706161499
1761371175645753300,10.88075341796875,-0.012111663818359375,-0.014943122863769531,0.06086999177932739
1761371175664364300,10.8993642578125,0.12893199920654297,-0.038249969482421875,0.043812334537506104
1761371175682976500,10.9179765625,-0.03509235382080078,-0.05151939392089844,0.10551488399505615
1761371175701587700,10.936587646484375,-0.06926155090332031,-0.021355628967285156,0.06780648231506348
1761371175720200200,10.9552001953125,0.09697866439819336,0.06357192993164062,-0.008370518684387207
1761371175738811100,10.97381103515625,0.255068302154541,0.09091567993164062,0.04759204387664795
1761371175757423400,10.99242333984375,0.1598048210144043,0.057098388671875,0.02861708402633667
1761371175776034300,11.011034423828125,0.008049964904785156,0.007845878601074219,-0.027165353298187256
1761371175794646800,11.029646728515624,-0.11541032791137695,-0.038494110107421875,-0.07305902242660522
1761371175813257700,11.0482578125,-0.09784460067749023,-0.054531097412109375,-0.06821060180664062
1761371175831870200,11.0668701171875,0.0661625862121582,-0.03202533721923828,-0.05160564184188843
1761371175850481200,11.085481201171875,0.005802631378173828,0.029135704040527344,-0.01692742109298706
1761371175869093600,11.10409375,-0.11144495010375977,0.025930404663085938,0.01648080348968506
1761371175887704600,11.12270458984375,-0.024629592895507812,0.006267547607421875,0.03362685441970825
1761371175906317000,11.141317138671875,0.0737614631652832,-0.00007724761962890625,0.03316003084182739
1761371175924928000,11.159927978515626,0.07477283477783203,0.04528045654296875,-0.08057975769042969
1761371175943540500,11.17854052734375,-0.16357707977294922,0.0145263671875,-0.11504679918289185
1761371175962151400,11.1971513671875,-0.22846317291259766,0.021007537841796875,0.01912093162536621
1761371175980764000,11.215763916015625,0.05988883972167969,0.007785797119140625,0.051179468631744385
1761371175999374800,11.234374755859376,0.19651365280151367,0.018090248107910156,0.11697012186050415
1761371176017987300,11.2529873046875,0.04681587219238281,0.02352619171142578,0.10808444023132324
1761371176036598300,11.271598388671874,-0.1283721923828125,0.0058765411376953125,0.00688546895980835
1761371176055210800,11.290210693359375,-0.2938108444213867,0.02571582794189453,-0.09204787015914917
