time,seconds_elapsed,z,y,x
1761370336562857500,0.226857421875,2.22458553314209,0.18386602401733398,1.2291151285171509
1761370336572376600,0.23637646484375,1.9937248229980469,0.30394506454467773,0.9449946880340576
1761370336581894700,0.245894775390625,1.6539382934570312,0.39783143997192383,0.6347686052322388
1761370336591411200,0.2554111328125,1.269373893737793,0.4670534133911133,0.3751348853111267
1761370336600926700,0.2649267578125,0.8674468994140625,0.5232548713684082,0.10298597812652588
1761370336610441000,0.27444091796875,0.3963356018066406,0.5936717987060547,-0.07905173301696777
1761370336619954200,0.2839541015625,-0.0867471694946289,0.6887893676757812,-0.11041700839996338
1761370336629466400,0.29346630859375,-0.4320201873779297,0.789639949798584,-0.20187616348266602
1761370336638977300,0.302977294921875,-0.615391731262207,0.8872470855712891,-0.37491464614868164
1761370336648487700,0.31248779296875,-0.5778675079345703,0.9643130302429199,-0.5245538949966431
1761370336657996800,0.321996826171875,-0.3601188659667969,0.9346761703491211,-0.6269201040267944
1761370336667505200,0.331505126953125,-0.16092300415039062,0.7483291625976562,-0.6010574102401733
1761370336677012700,0.3410126953125,-0.09383296966552734,0.42383670806884766,-0.41814374923706055
1761370336686519800,0.350519775390625,-0.18155479431152344,0.04774951934814453,-0.23133254051208496
1761370336696025900,0.36002587890625,-0.44728755950927734,-0.22884368896484375,-0.14908623695373535
1761370336705531100,0.36953125,-0.7270259857177734,-0.41350317001342773,-0.18168818950653076
1761370336715036000,0.379035888671875,-0.8503179550170898,-0.5998754501342773,-0.2669696807861328
1761370336724540200,0.3885400390625,-0.8712911605834961,-0.7812438011169434,-0.33389973640441895
1761370336734043600,0.398043701171875,-0.8770971298217773,-0.7280941009521484,-0.2098139524459839
1761370336743546600,0.407546630859375,-0.915184497833252,-0.501643180847168,0.17559301853179932
1761370336753049000,0.417049072265625,-1.026639461517334,-0.41474151611328125,0.4513362646102905
1761370336762551000,0.426551025390625,-1.0378060340881348,-0.4100027084350586,0.44835329055786133
1761370336772052500,0.436052490234375,-0.7813987731933594,-0.4164237976074219,0.3605363368988037
1761370336781553400,0.445553466796875,-0.4172334671020508,-0.43490123748779297,0.3083665370941162
1761370336791054000,0.45505419921875,-0.1369771957397461,-0.5021328926086426,0.20639729499816895
1761370336800554200,0.46455419921875,0.08637332916259766,-0.5072650909423828,0.12841010093688965
1761370336819553500,0.483553466796875,0.28392982482910156,-0.21966981887817383,0.3891301155090332
1761370336838551000,0.502551025390625,0.18785572052001953,-0.10120105743408203,0.4648559093475342
1761370336857547500,0.521547607421875,-0.09543895721435547,-0.10223007202148438,0.7460795044898987
1761370336876464400,0.54046435546875,0.3009910583496094,0.15534067153930664,0.946438729763031
1761370336895074800,0.55907470703125,0.8024578094482422,0.17354249954223633,1.3336931467056274
1761370336913686800,0.577686767578125,0.9482488632202148,0.010751724243164062,1.3285874128341675
1761370336932297200,0.596297119140625,0.7068109512329102,0.24889516830444336,1.0773022174835205
1761370336950909200,0.6149091796875,0.24775409698486328,0.036731719970703125,0.9651501178741455
1761370336969519600,0.63351953125,-0.14991092681884766,0.011580944061279297,0.5774856805801392
1761370336988131600,0.652131591796875,-0.0028085708618164062,0.009751319885253906,0.4536890685558319
1761370337006742000,0.670741943359375,0.2110729217529297,0.03174591064453125,0.3648495078086853
1761370337025354000,0.68935400390625,0.2830781936645508,-0.0695796012878418,0.46690356731414795
1761370337043964400,0.70796435546875,0.08491706848144531,-0.2762598991394043,0.5677555799484253
1761370337062576400,0.726576416015625,0.012645721435546875,-0.24318885803222656,0.6884769201278687
1761370337081186800,0.745186767578125,0.13755416870117188,-0.12825918197631836,0.6465715169906616
1761370337099798800,0.763798828125,0.057135581970214844,-0.15222930908203125,0.3928517997264862
1761370337118409200,0.7824091796875,-0.1573476791381836,-0.25603675842285156,0.45463642477989197
1761370337137021200,0.801021240234375,-0.49457454681396484,-0.36351919174194336,0.5022634863853455
1761370337155631600,0.819631591796875,-0.38726806640625,-0.4436502456665039,0.3466501832008362
1761370337174243600,0.83824365234375,-0.37497711181640625,-0.35849475860595703,0.2002682089805603
1761370337192854300,0.856854248046875,-0.6589374542236328,-0.1701345443725586,0.2395525723695755
1761370337211466200,0.87546630859375,-0.7484455108642578,-0.059252262115478516,0.136817067861557
1761370337230076700,0.89407666015625,-0.23996353149414062,0.1480541229248047,0.20545142889022827
1761370337248688600,0.912688720703125,-0.20489883422851562,0.1295175552368164,0.5702110528945923
1761370337267299000,0.931299072265625,-0.6432647705078125,-0.06887006759643555,1.0485122203826904
1761370337285911000,0.9499111328125,-0.6801691055297852,-0.16280603408813477,1.0264266729354858
1761370337304521500,0.968521484375,-0.2971057891845703,-0.19568920135498047,0.4366739094257355
1761370337323133400,0.987133544921875,0.8268976211547852,0.20481443405151367,0.14669746160507202
1761370337341743900,1.005743896484375,1.135817527770996,-0.02015066146850586,0.24488908052444458
1761370337360355800,1.02435595703125,0.7103233337402344,0.23067092895507812,0.11567097902297974
1761370337378966300,1.04296630859375,0.3248786926269531,0.09830856323242188,0.06285575032234192
1761370337397578200,1.061578125,0.4340848922729492,-0.16847801208496094,0.12026500701904297
1761370337416188700,1.080188720703125,0.5589122772216797,-0.0853271484375,0.14416417479515076
1761370337434800600,1.098800537109375,0.38108062744140625,0.09410429000854492,0.04483586549758911
1761370337453411000,1.1174111328125,-0.040116310119628906,-0.17238950729370117,-0.8718966841697693
1761370337472023300,1.136023193359375,-0.2076578140258789,0.14523935317993164,-1.016098141670227
1761370337490633700,1.1546337890625,-0.45497989654541016,0.12994098663330078,0.06789642572402954
1761370337509245700,1.17324560546875,-0.5099592208862305,-0.02314615249633789,-0.1594090610742569
1761370337527856000,1.191856201171875,-1.9389305114746094,-1.5595529079437256,-0.22468295693397522
1761370337546468000,1.210468017578125,-0.5201044082641602,0.5725855827331543,0.6880632042884827
1761370337565078500,1.22907861328125,1.4240121841430664,-0.31114912033081055,1.2780756950378418
1761370337583690500,1.2476904296875,1.1863794326782227,0.40699338912963867,0.7206931114196777
1761370337602301000,1.266301025390625,1.1786308288574219,0.3248143196105957,1.0303953886032104
1761370337620913000,1.284912841796875,0.889678955078125,-0.05768156051635742,1.024247407913208
1761370337639523300,1.3035234375,0.042133331298828125,-0.4462141990661621,0.9787021279335022
1761370337658135300,1.32213525390625,-0.8463568687438965,-0.4395327568054199,0.8113380074501038
1761370337676745700,1.340745849609375,-1.4743285179138184,-0.4690423011779785,0.9597450494766235
1761370337695357700,1.359357666015625,-2.0576319694519043,-0.6070280075073242,0.9823371171951294
1761370337713968000,1.377968017578125,-1.9556231498718262,-0.3610682487487793,0.7550270557403564
1761370337732580400,1.396580322265625,-1.0084481239318848,-0.18227767944335938,1.2815577983856201
1761370337751190500,1.4151904296875,-0.16727161407470703,-0.35331106185913086,1.3606727123260498
1761370337769802800,1.433802734375,0.13936901092529297,-0.07979154586791992,0.7488303780555725
1761370337788413000,1.452412841796875,0.6199026107788086,0.10308122634887695,-0.027399122714996338
1761370337807025200,1.471025146484375,1.6956796646118164,0.41959381103515625,-0.10418862104415894
1761370337825635600,1.489635498046875,1.911362648010254,0.8684725761413574,1.8980039358139038
1761370337844247600,1.50824755859375,1.567265510559082,-0.2790260314941406,1.0876588821411133
1761370337862858000,1.52685791015625,1.1876182556152344,-0.6345748901367188,-0.47263476252555847
1761370337881470000,1.545469970703125,0.8102645874023438,-0.6646013259887695,-0.7222281694412231
1761370337900080400,1.564080322265625,0.2216634750366211,-0.015137195587158203,0.48663684725761414
1761370337918692400,1.5826923828125,-0.1828451156616211,-0.30590248107910156,1.6541619300842285
1761370337937302800,1.601302734375,-0.8343086242675781,-0.5225024223327637,0.4165330231189728
1761370337955914800,1.619914794921875,-0.9742550849914551,-0.33041810989379883,-0.18078280985355377
1761370337974525200,1.638525146484375,-1.049835205078125,-0.5766215324401855,0.36746370792388916
1761370337993137200,1.65713720703125,-0.9173579216003418,-0.6206779479980469,0.12942209839820862
1761370338011747600,1.67574755859375,-0.885683536529541,-0.4063129425048828,0.12947838008403778
1761370338030359800,1.69435986328125,-0.043291568756103516,-0.4907541275024414,-0.5883129835128784
1761370338048970200,1.71297021484375,0.6386260986328125,-0.5709404945373535,-2.6818253993988037
1761370338067582200,1.731582275390625,0.8395671844482422,-0.2943854331970215,-3.7420527935028076
1761370338086192600,1.750192626953125,1.5351486206054688,0.41466331481933594,-2.7647171020507812
1761370338104804600,1.7688046875,1.387899398803711,-0.024245262145996094,-2.144436836242676
1761370338123415000,1.7874150390625,0.812993049621582,-0.18212413787841797,-1.101993203163147
1761370338142027000,1.806027099609375,-0.638481616973877,-0.1771225929260254,-0.3381636440753937
1761370338160637400,1.824637451171875,-1.2067203521728516,-0.11598682403564453,0.27787405252456665
1761370338179249400,1.84324951171875,-1.0018973350524902,0.05587482452392578,0.6207754015922546
1761370338197859800,1.86185986328125,-0.5096054077148438,-0.3608522415161133,0.6385971307754517
1761370338216471800,1.880471923828125,-0.5341472625732422,0.08383703231811523,-0.09650009870529175
1761370338235082200,1.899082275390625,-0.5184297561645508,-0.019980907440185547,-0.2184784710407257
1761370338253694200,1.917694091796875,-0.5009140968322754,-0.08998632431030273,0.15824535489082336
1761370338272304600,1.9363046875,-0.4582982063293457,-0.18477678298950195,-0.10541799664497375
1761370338290916900,1.954916748046875,-0.48597097396850586,-0.07335042953491211,-0.25304147601127625
1761370338309527000,1.973527099609375,-0.028255939483642578,-0.03204917907714844,-0.32975584268569946
1761370338328139300,1.99213916015625,0.0861363410949707,0.006862640380859375,-0.2049841284751892
1761370338346749400,2.01074951171875,-0.10845518112182617,-0.006392002105712891,0.1700381636619568
1761370338365361700,2.029361572265625,-0.03676176071166992,-0.03440427780151367,0.22551213204860687
1761370338383972000,2.04797216796875,0.04862356185913086,-0.0771784782409668,0.2582918405532837
1761370338402584000,2.066583984375,0.1651606559753418,0.0006699562072753906,0.2021973431110382
1761370338421194500,2.085194580078125,0.1211538314819336,-0.017412185668945312,-0.061595723032951355
1761370338439806500,2.103806396484375,0.07672882080078125,-0.0609288215637207,-0.23183809220790863
1761370338458417000,2.1224169921875,-0.1423969268798828,-0.06719017028808594,-0.2403203845024109
1761370338477028900,2.14102880859375,-0.2641606330871582,-0.09644842147827148,-0.231828510761261
1761370338495639300,2.159639404296875,-0.47855520248413086,-0.0022649765014648438,-0.18165992200374603
1761370338514251300,2.178251220703125,-0.533174991607666,-0.007550239562988281,-0.28354573249816895
1761370338532861700,2.19686181640625,-0.31348180770874023,0.06824254989624023,-0.153227299451828
1761370338551473700,2.2154736328125,-0.17233943939208984,-0.14615249633789062,0.4449446201324463
1761370338570084000,2.234083984375,0.21010255813598633,-0.11277008056640625,0.800087571144104
1761370338588696000,2.252696044921875,0.25845861434936523,0.18454265594482422,0.2099587768316269
1761370338607306500,2.271306396484375,0.06195783615112305,-0.10204792022705078,0.28182345628738403
1761370338625918500,2.28991845703125,-0.012906074523925781,-0.17890024185180664,0.8922955989837646
1761370338644529000,2.30852880859375,0.1626133918762207,0.1386709213256836,0.6049805879592896
1761370338663141000,2.32714111328125,0.16663455963134766,-0.09619951248168945,0.9999306201934814
1761370338681751600,2.34575146484375,0.06400251388549805,-0.2343134880065918,0.15023091435432434
1761370338700363500,2.364363525390625,0.20338010787963867,0.03410482406616211,-0.43610596656799316
1761370338718974000,2.382973876953125,0.14984655380249023,0.00206756591796875,0.08714351058006287
1761370338737586000,2.4015859375,0.02738046646118164,0.015757083892822266,-0.5584099888801575
1761370338756196400,2.4201962890625,0.06850385665893555,-0.10582447052001953,0.012960731983184814
1761370338774808300,2.438808349609375,0.17693519592285156,0.005390644073486328,-0.5636698603630066
1761370338793418800,2.457418701171875,0.02400350570678711,0.10430765151977539,-0.878770649433136
1761370338812030700,2.47603076171875,-0.3468589782714844,0.06324148178100586,-0.47877609729766846
1761370338830641200,2.49464111328125,-0.4690876007080078,-0.07813882827758789,0.01674695312976837
1761370338849253000,2.513253173828125,-0.031418800354003906,-0.18013525009155273,0.2033284306526184
1761370338867863600,2.531863525390625,0.37781190872192383,0.1442098617553711,-0.34219568967819214
1761370338886475500,2.5504755859375,0.2312297821044922,0.07447147369384766,-0.09025329351425171
1761370338905086000,2.5690859375,0.07379484176635742,-0.07697391510009766,0.38443446159362793
1761370338923698000,2.587697998046875,0.15826654434204102,-0.10528039932250977,0.3782481849193573
1761370338942308400,2.606308349609375,0.1604595184326172,-0.0646967887878418,0.33351758122444153
1761370338960920300,2.62492041015625,0.07734394073486328,-0.15073537826538086,0.863066554069519
1761370338979530800,2.64353076171875,-0.08534479141235352,0.37079858779907227,0.9160211682319641
1761370338998142700,2.662142822265625,-0.5238418579101562,-0.735806941986084,0.512630820274353
1761370339016753200,2.680753173828125,-0.536870002746582,0.2632637023925781,-0.3021913766860962
1761370339035365000,2.699365234375,-0.3144354820251465,-0.0016436576843261719,-0.2711566686630249
1761370339053975600,2.7179755859375,-0.37308788299560547,0.10933494567871094,-0.4982878267765045
1761370339072587800,2.736587890625,-0.47763681411743164,0.11278152465820312,0.43415960669517517
1761370339091198000,2.755197998046875,-0.6339850425720215,-0.0648336410522461,0.28142932057380676
1761370339109810200,2.77381005859375,-0.7900052070617676,-0.016964435577392578,-0.3116963505744934
1761370339128420600,2.792420654296875,-0.5174441337585449,-0.064697265625,-0.7172003984451294
1761370339147032600,2.811032470703125,0.5678596496582031,0.19461536407470703,-0.7269818782806396
1761370339165643000,2.82964306640625,1.5282931327819824,0.06728792190551758,0.30630719661712646
1761370339184255000,2.8482548828125,1.604914665222168,0.0436558723449707,0.44603314995765686
1761370339202865400,2.866865478515625,1.0650458335876465,0.003916740417480469,0.31503498554229736
1761370339221477400,2.885477294921875,0.4326748847961426,0.007627964019775391,0.25610601902008057
1761370339240087800,2.904087890625,-0.10716581344604492,-0.05061912536621094,0.20008404552936554
1761370339258699800,2.92269970703125,-0.5210223197937012,-0.08125734329223633,0.24187661707401276
1761370339277310200,2.941310302734375,-0.7765088081359863,-0.09939718246459961,0.21181663870811462
1761370339295922200,2.959922119140625,-0.7186050415039062,-0.06330347061157227,0.07658125460147858
1761370339314532600,2.97853271484375,-0.45122385025024414,-0.022437572479248047,0.10323473811149597
1761370339333144600,2.99714453125,0.01161813735961914,-0.0325474739074707,-0.020549029111862183
1761370339351755000,3.015755126953125,0.2908287048339844,-0.017333507537841797,-0.13721296191215515
1761370339370367000,3.034366943359375,0.32538747787475586,0.0034699440002441406,0.031262680888175964
1761370339388977400,3.052977294921875,0.09764385223388672,-0.06248617172241211,0.2812325954437256
1761370339407589400,3.07158935546875,0.12625598907470703,-0.027694225311279297,0.265298068523407
1761370339426199800,3.09019970703125,0.4111051559448242,-0.041434288024902344,0.2710053622722626
1761370339444811800,3.108811767578125,0.45305490493774414,-0.0021610260009765625,0.22113505005836487
1761370339463422200,3.127422119140625,0.14551019668579102,-0.017751693725585938,0.13383524119853973
1761370339482034200,3.1460341796875,-0.04670524597167969,-0.0722036361694336,0.1357356607913971
1761370339500644600,3.16464453125,-0.1306157112121582,-0.03252744674682617,0.1226666271686554
1761370339519256600,3.183256591796875,-0.17940711975097656,0.009358882904052734,0.05609297752380371
1761370339537867000,3.201866943359375,-0.18094158172607422,0.009709835052490234,-0.014810025691986084
1761370339556479000,3.22047900390625,-0.12528181076049805,-0.017730236053466797,-0.000892147421836853
1761370339575089400,3.23908935546875,-0.1384282112121582,0.004850864410400391,-0.0010831207036972046
1761370339593701400,3.257701416015625,-0.1357560157775879,0.025916576385498047,-0.04282096028327942
1761370339612311800,3.276311767578125,-0.10644865036010742,0.012701988220214844,0.015661224722862244
1761370339630924000,3.294924072265625,-0.06699514389038086,0.009304523468017578,0.017555445432662964
1761370339649534200,3.3135341796875,0.1293492317199707,0.011505126953125,0.015408411622047424
1761370339668146400,3.332146484375,0.2428112030029297,-0.014423847198486328,0.14008906483650208
1761370339686756900,3.3507568359375,0.23849153518676758,-0.010527610778808594,0.19946259260177612
1761370339705368800,3.369368896484375,0.1491413116455078,-0.009814262390136719,0.1817125678062439
1761370339723979300,3.387979248046875,0.03899097442626953,0.0002532005310058594,0.18211522698402405
1761370339742591200,3.40659130859375,0.014447689056396484,-0.0030012130737304688,0.13499116897583008
1761370339761201700,3.42520166015625,-0.04697895050048828,0.0024061203002929688,0.0444585382938385
1761370339779813600,3.443813720703125,-0.07140636444091797,-0.01254415512084961,0.07397282123565674
1761370339798424000,3.462424072265625,0.011170387268066406,0.03209352493286133,-0.018363267183303833
1761370339817036000,3.4810361328125,0.051387786865234375,-0.003306865692138672,0.014775007963180542
1761370339835646500,3.499646484375,0.12856006622314453,-0.005978584289550781,0.038433969020843506
1761370339854258400,3.518258544921875,0.162628173828125,-0.0019345283508300781,0.0654962956905365
1761370339872868900,3.536868896484375,0.19498062133789062,-0.004596710205078125,0.09605136513710022
1761370339891480800,3.555480712890625,0.1935558319091797,-0.02695941925048828,0.11461204290390015
1761370339910091300,3.57409130859375,0.1324920654296875,-0.025171756744384766,0.06075999140739441
1761370339928703200,3.592703125,0.026769638061523438,-0.06885480880737305,0.08354094624519348
1761370339947313700,3.611313720703125,-0.03612661361694336,-0.054173946380615234,0.07810544967651367
1761370339965925600,3.629925537109375,-0.1501760482788086,-0.07051753997802734,0.0667877197265625
1761370339984536000,3.6485361328125,-0.22137022018432617,-0.023681163787841797,-0.07253320515155792
1761370340003148000,3.66714794921875,-0.10275650024414062,-0.055975914001464844,-0.195250004529953
1761370340021758500,3.685758544921875,-0.2241215705871582,-0.023660659790039062,-0.20931082963943481
1761370340040370400,3.704370361328125,-0.32708168029785156,0.013805866241455078,-0.2537921369075775
1761370340058980900,3.72298095703125,-0.16501998901367188,0.0005745887756347656,-0.1718396693468094
1761370340077592800,3.7415927734375,0.01113128662109375,-0.020862579345703125,0.10261364281177521
1761370340096203300,3.760203369140625,0.12165451049804688,0.006542205810546875,0.1408628225326538
1761370340114815200,3.778815185546875,0.37245750427246094,-0.009786128997802734,0.21838049590587616
1761370340133425700,3.79742578125,0.4622335433959961,-0.04790544509887695,0.2679659426212311
1761370340152037600,3.81603759765625,0.2191181182861328,0.08173990249633789,0.11823874711990356
1761370340170648000,3.83464794921875,-0.07968997955322266,-0.037731170654296875,-0.07127811014652252
1761370340189260000,3.853260009765625,-0.2578563690185547,-0.026802539825439453,-0.036248475313186646
1761370340207870500,3.871870361328125,-0.4586057662963867,0.15581703186035156,-0.3376363515853882
1761370340226482400,3.890482421875,-0.6443014144897461,-0.11324644088745117,-0.30710238218307495
1761370340245092900,3.9090927734375,-0.30979061126708984,0.014813899993896484,0.3501390814781189
1761370340263704800,3.927704833984375,0.432830810546875,-0.08859109878540039,0.5429834127426147
1761370340282315300,3.946315185546875,1.008941650390625,0.08057975769042969,0.2853235602378845
1761370340300927200,3.96492724609375,1.0937843322753906,0.010281085968017578,0.3454311490058899
1761370340319537700,3.98353759765625,0.6628313064575195,-0.003498554229736328,0.393653005361557
1761370340338149600,4.002149658203125,0.1094503402709961,-0.02313232421875,0.2871718406677246
1761370340356760000,4.020760009765625,-0.3917512893676758,-0.03613615036010742,0.057879939675331116
1761370340375372000,4.0393720703125,-0.5406928062438965,-0.021299362182617188,-0.0929032489657402
1761370340393982500,4.057982421875,-0.5055885314941406,-0.046269893646240234,-0.1429416388273239
1761370340412594400,4.076594482421875,-0.48864269256591797,-0.039644718170166016,-0.1950237900018692
1761370340431204900,4.095204833984375,-0.4381289482116699,-0.018238544464111328,-0.15465962886810303
1761370340449816800,4.11381689453125,-0.1877903938293457,-0.005878925323486328,-0.08199447393417358
1761370340468427300,4.13242724609375,0.02009105682373047,0.013913154602050781,0.11404585838317871
1761370340487039200,4.151039306640625,0.05872535705566406,0.027812957763671875,0.14281263947486877
1761370340505649700,4.169649658203125,0.10936164855957031,0.025300979614257812,0.008899465203285217
1761370340524261600,4.18826171875,0.2097635269165039,0.007645606994628906,-0.07631370425224304
1761370340542872000,4.2068720703125,0.21147823333740234,0.0325775146484375,-0.07854399085044861
1761370340561484000,4.225484130859375,0.1934986114501953,-0.1429586410522461,0.13580872118473053
1761370340580094500,4.244094482421875,0.1374797821044922,0.006853580474853516,0.08414707332849503
1761370340598706400,4.26270654296875,0.04109764099121094,0.0032129287719726562,-0.047458626329898834
1761370340617316900,4.28131689453125,-0.022386550903320312,0.007729053497314453,-0.008507013320922852
1761370340635928800,4.2999287109375,0.08485794067382812,0.013742923736572266,0.04772418737411499
1761370340654539300,4.318539306640625,0.07345867156982422,0.016124248504638672,0.07221265882253647
1761370340673151200,4.337151123046875,-0.07144737243652344,0.017256736755371094,0.1029629185795784
1761370340691761700,4.35576171875,-0.08366203308105469,0.007316112518310547,0.07852617651224136
1761370340710373600,4.37437353515625,-0.09884071350097656,0.003681659698486328,0.022660687565803528
1761370340728984000,4.392984130859375,-0.0914163589477539,-0.007424831390380859,-0.079218789935112
1761370340747596300,4.41159619140625,-0.10431671142578125,-0.03237342834472656,-0.06568893790245056
1761370340766206500,4.43020654296875,-0.12993526458740234,-0.007894515991210938,-0.03230965882539749
1761370340784818700,4.448818603515625,-0.14883852005004883,0.0034432411193847656,-0.09789646416902542
1761370340803428900,4.467428955078125,-0.18237018585205078,-0.014072895050048828,-0.09479965269565582
1761370340822041000,4.486041015625,-0.11062145233154297,-0.02264690399169922,0.03265274316072464
1761370340840651300,4.5046513671875,-0.06701850891113281,-0.024209976196289062,0.11734171211719513
1761370340859263500,4.523263427734375,-0.08805561065673828,0.000013828277587890625,0.14137256145477295
1761370340877873700,4.541873779296875,-0.135406494140625,0.014682292938232422,0.15973499417304993
1761370340896486000,4.56048583984375,-0.0689859390258789,0.010569572448730469,0.1807684451341629
1761370340915096000,4.579095947265625,0.02660083770751953,-0.01035451889038086,0.14708253741264343
1761370340933708300,4.597708251953125,0.1052255630493164,-0.040205955505371094,0.20631879568099976
1761370340952318500,4.616318359375,0.21019363403320312,-0.03513336181640625,0.19738617539405823
1761370340970930700,4.6349306640625,0.28368663787841797,0.016715526580810547,0.03045797348022461
1761370340989541000,4.653541015625,0.24013900756835938,0.03154802322387695,-0.14416201412677765
1761370341008153000,4.672153076171875,0.24647998809814453,0.02028656005859375,-0.1877683699131012
1761370341026763500,4.690763427734375,0.33679866790771484,0.04616117477416992,-0.3078887462615967
1761370341045375500,4.70937548828125,0.3085060119628906,0.05815887451171875,-0.4060453474521637
1761370341063986000,4.72798583984375,0.12523460388183594,0.04981517791748047,-0.1971011906862259
1761370341082598000,4.746597900390625,-0.070098876953125,0.022327423095703125,-0.10527533292770386
1761370341101208300,4.765208251953125,-0.24132442474365234,0.018732070922851562,0.0006892010569572449
1761370341119820300,4.7838203125,-0.2530536651611328,0.030293941497802734,-0.01655007153749466
1761370341138430700,4.8024306640625,-0.19390201568603516,0.030202388763427734,0.04106740653514862
1761370341157042700,4.821042724609375,-0.11223030090332031,0.024564743041992188,0.11202137917280197
1761370341175653000,4.839653076171875,-0.04473686218261719,0.030751705169677734,0.11930423229932785
1761370341194265000,4.85826513671875,-0.009906768798828125,0.017948627471923828,0.11931629478931427
1761370341212875500,4.87687548828125,0.009917259216308594,0.0215911865234375,0.1030285581946373
1761370341231487500,4.895487548828125,0.010166168212890625,0.009373188018798828,0.055758994072675705
1761370341250098000,4.914097900390625,0.04821586608886719,0.018021106719970703,0.018407825380563736
1761370341268710000,4.9327099609375,-0.01029205322265625,-0.009559154510498047,-0.011730093508958817
1761370341287320300,4.9513203125,-0.0693044662475586,0.0014700889587402344,0.008202075958251953
1761370341305932300,4.969932373046875,-0.10152053833007812,-0.0026040077209472656,0.014091521501541138
1761370341324542700,4.988542724609375,-0.021317481994628906,0.0015625953674316406,0.10883506387472153
1761370341343154700,5.00715478515625,0.06351661682128906,0.02781534194946289,0.05242006480693817
1761370341361765000,5.02576513671875,0.08161640167236328,0.029892444610595703,-0.04865282028913498
1761370341380377000,5.044377197265625,0.016264915466308594,0.0074062347412109375,-0.025896631181240082
1761370341398987500,5.062987548828125,-0.042166709899902344,0.0018811225891113281,-0.015034468844532967
1761370341417599500,5.081599609375,-0.028896331787109375,0.010986328125,0.007203828543424606
1761370341436210000,5.1002099609375,-0.041472434997558594,0.028274059295654297,-0.004573557525873184
1761370341454822000,5.11882177734375,-0.06523513793945312,0.0032825469970703125,0.007240526378154755
1761370341473432300,5.137432373046875,-0.009204864501953125,-0.003826141357421875,-0.012149720452725887
1761370341492044300,5.156044189453125,0.052758216857910156,0.04385805130004883,-0.06077218055725098
1761370341510654700,5.17465478515625,0.036388397216796875,0.011498451232910156,-0.0462271049618721
1761370341529266700,5.1932666015625,0.03569507598876953,-0.016191959381103516,-0.10490906238555908
1761370341547877000,5.211877197265625,-0.05409049987792969,-0.012405872344970703,-0.16494514048099518
1761370341566489000,5.230489013671875,-0.14311885833740234,0.00646209716796875,-0.1367846131324768
1761370341585099500,5.249099609375,-0.0872659683227539,-0.01076507568359375,-0.03425248712301254
1761370341603711500,5.26771142578125,0.031030654907226562,-0.00023174285888671875,0.07801870256662369
1761370341622322000,5.286322021484375,0.16061115264892578,0.010367393493652344,0.1698485165834427
1761370341640934100,5.30493408203125,0.19983863830566406,0.02089834213256836,0.1415146142244339
1761370341659544300,5.32354443359375,0.10683345794677734,0.01206064224243164,0.10468953847885132
1761370341678156500,5.342156494140625,0.05216693878173828,-0.04332923889160156,0.05540578439831734
1761370341696766700,5.3607666015625,-0.0148162841796875,-0.03398466110229492,-0.03281600773334503
1761370341715379000,5.37937890625,-0.09074020385742188,-0.01608419418334961,-0.10774342715740204
1761370341733989400,5.3979892578125,-0.12049293518066406,-0.025424957275390625,-0.04980086535215378
1761370341752601300,5.416601318359375,-0.06855583190917969,-0.03801918029785156,-0.05406743288040161
1761370341771211500,5.43521142578125,-0.06459236145019531,0.030840396881103516,-0.11000540852546692
1761370341789823700,5.45382373046875,-0.08596515655517578,0.005190372467041016,-0.0724024698138237
1761370341808434000,5.472433837890625,-0.15833377838134766,-0.037344932556152344,-0.004416387528181076
1761370341827046100,5.491046142578125,-0.14402103424072266,-0.035054683685302734,0.033039242029190063
1761370341845656600,5.509656494140625,-0.022602081298828125,0.00015926361083984375,0.011775631457567215
1761370341864268500,5.5282685546875,0.1326913833618164,0.0047664642333984375,-0.046328965574502945
1761370341882879000,5.54687890625,0.07365798950195312,-0.03675127029418945,-0.008003562688827515
1761370341901491000,5.565490966796875,0.025742530822753906,-0.040340423583984375,0.07390163838863373
1761370341920101400,5.584101318359375,0.05525398254394531,-0.021547317504882812,0.08818959444761276
1761370341938713300,5.60271337890625,0.1541585922241211,0.00555419921875,0.0340375080704689
1761370341957323800,5.62132373046875,0.16512203216552734,0.026201248168945312,-0.03974442929029465
1761370341975935700,5.639935791015625,0.06505966186523438,0.00014829635620117188,-0.01636723056435585
1761370341994546200,5.658546142578125,0.0058002471923828125,0.026727676391601562,-0.06274618953466415
1761370342013158100,5.677158203125,-0.013841629028320312,0.04910755157470703,-0.12024569511413574
1761370342031768600,5.6957685546875,-0.10577106475830078,0.027024269104003906,-0.07529447227716446
1761370342050380500,5.714380615234375,-0.17703819274902344,-0.010899066925048828,-0.009847012348473072
1761370342068991000,5.732990966796875,-0.19147968292236328,-0.0009074211120605469,0.07521985471248627
1761370342087603000,5.75160302734375,-0.1183633804321289,0.07648038864135742,0.03799687698483467
1761370342106213400,5.77021337890625,0.1457815170288086,0.0760955810546875,-0.05220773071050644
1761370342124825300,5.788825439453125,0.3329477310180664,0.02435445785522461,-0.17104291915893555
1761370342143435800,5.807435791015625,0.2540712356567383,-0.04308319091796875,-0.08561065793037415
1761370342162047700,5.8260478515625,0.034483909606933594,-0.0698246955871582,0.03155481815338135
1761370342180658200,5.844658203125,-0.11942005157470703,-0.050176143646240234,0.0854252278804779
1761370342199270100,5.863270263671875,-0.06265640258789062,-0.022844791412353516,0.07488638162612915
1761370342217880600,5.881880615234375,0.02237987518310547,0.005062580108642578,0.09873025119304657
1761370342236492500,5.900492431640625,0.009357452392578125,-0.026936054229736328,0.18818432092666626
1761370342255103000,5.91910302734375,-0.04102039337158203,-0.05199909210205078,0.2491593062877655
1761370342273715000,5.93771484375,-0.07865333557128906,-0.02428913116455078,0.2169075310230255
1761370342292325400,5.956325439453125,-0.11381721496582031,-0.0005483627319335938,0.1878819465637207
1761370342310937300,5.974937255859375,-0.037123680114746094,-0.017391204833984375,0.14403341710567474
1761370342329547800,5.9935478515625,0.08624553680419922,0.014939308166503906,0.05206779018044472
1761370342348159700,6.01215966796875,0.16346168518066406,0.037770748138427734,-0.055343687534332275
1761370342366770200,6.030770263671875,0.15231800079345703,-0.011872291564941406,0.011625723913311958
1761370342385382100,6.049382080078125,0.04923439025878906,-0.01681041717529297,-0.0063788630068302155
1761370342403992600,6.06799267578125,-0.034302711486816406,-0.023395061492919922,-0.1128987967967987
1761370342422604500,6.0866044921875,-0.1042947769165039,-0.0052337646484375,-0.08284024894237518
1761370342441215000,6.105215087890625,-0.16112327575683594,0.018175601959228516,0.04450485482811928
1761370342459827000,6.123826904296875,-0.1023721694946289,0.021065711975097656,0.13076151907444
1761370342478437400,6.142437255859375,-0.055533409118652344,0.0009112358093261719,0.11236944049596786
1761370342497049300,6.16104931640625,-0.0651388168334961,0.01607799530029297,-0.02615521103143692
1761370342515659800,6.17965966796875,-0.05250740051269531,0.028079509735107422,-0.11084771901369095
1761370342534271700,6.198271728515625,-0.055871009826660156,-0.030892372131347656,-0.11302216351032257
1761370342552882200,6.216882080078125,-0.03076934814453125,-0.07532453536987305,-0.019680723547935486
1761370342571494100,6.235494140625,0.008305549621582031,-0.04840278625488281,0.10440327227115631
1761370342590104600,6.2541044921875,0.11636734008789062,0.003108978271484375,0.05933598801493645
1761370342608716500,6.272716552734375,0.25365543365478516,-0.00021600723266601562,0.08767993003129959
1761370342627327000,6.291326904296875,0.2026834487915039,0.013097286224365234,0.06840994209051132
1761370342645939000,6.30993896484375,0.02169322967529297,0.007809638977050781,-0.030877791345119476
1761370342664549400,6.32854931640625,-0.14980745315551758,-0.03955268859863281,-0.05922825261950493
1761370342683161300,6.347161376953125,-0.19897842407226562,-0.06041765213012695,-0.020898286253213882
1761370342701771800,6.365771728515625,-0.09911632537841797,-0.035625457763671875,0.022476796060800552
1761370342720383700,6.3843837890625,0.1123504638671875,0.01952648162841797,0.054585106670856476
1761370342738994200,6.402994140625,0.22655868530273438,0.047153472900390625,-0.04705305024981499
1761370342757606100,6.421606201171875,0.1715555191040039,0.009177684783935547,-0.11174521595239639
1761370342776216600,6.440216552734375,0.03704261779785156,-0.015895843505859375,-0.05140652880072594
1761370342794828500,6.45882861328125,-0.038613319396972656,0.014051437377929688,0.020884418860077858
1761370342813439000,6.47743896484375,0.01684284210205078,0.0017480850219726562,0.1397659182548523
1761370342832051000,6.496051025390625,0.20373916625976562,0.03362464904785156,0.23842927813529968
1761370342850661400,6.514661376953125,0.3367757797241211,0.013984203338623047,0.3219885230064392
1761370342869273300,6.5332734375,0.304901123046875,0.006860256195068359,0.2955847680568695
1761370342887883800,6.5518837890625,0.1332387924194336,-0.0008754730224609375,0.2182285338640213
1761370342906495700,6.570495849609375,-0.04442882537841797,0.031011581420898438,0.0484769344329834
1761370342925106200,6.589106201171875,-0.231842041015625,-0.017758846282958984,-0.022572319954633713
1761370342943718100,6.60771826171875,-0.31976890563964844,-0.04952669143676758,-0.07263453304767609
1761370342962328600,6.62632861328125,-0.4134683609008789,-0.060443878173828125,-0.10045106709003448
1761370342980940500,6.6449404296875,-0.37057924270629883,-0.03263092041015625,-0.07504627108573914
1761370342999551000,6.663551025390625,-0.34247493743896484,-0.04300212860107422,-0.08080188930034637
1761370343018163000,6.682162841796875,-0.31943416595458984,-0.037271976470947266,-0.12168824672698975
1761370343036773400,6.7007734375,-0.15534400939941406,0.012107372283935547,-0.0967043787240982
1761370343055385300,6.71938525390625,0.07339191436767578,0.047423362731933594,-0.02911999076604843
1761370343073995800,6.737995849609375,0.2110881805419922,0.016703128814697266,0.00920107215642929
1761370343092607700,6.756607666015625,0.16012859344482422,0.041928768157958984,-0.03698563948273659
1761370343111218200,6.77521826171875,0.08615303039550781,0.07216691970825195,-0.13353297114372253
1761370343129830100,6.793830078125,0.04096221923828125,0.0679941177368164,-0.12706264853477478
1761370343148440600,6.812440673828125,0.02972888946533203,0.010521888732910156,-0.06039451062679291
1761370343167052500,6.831052490234375,0.06050682067871094,-0.041895389556884766,-0.016997605562210083
1761370343185663000,6.8496630859375,0.06918525695800781,0.011979103088378906,-0.03436018526554108
1761370343204275000,6.86827490234375,0.07120418548583984,0.04727792739868164,-0.01860569417476654
1761370343222885400,6.886885498046875,0.17724227905273438,0.05386066436767578,0.016394294798374176
1761370343241497300,6.905497314453125,0.28989124298095703,0.04633188247680664,0.03892102837562561
1761370343260107800,6.924107666015625,0.27167606353759766,0.03105783462524414,0.04170392453670502
1761370343278719700,6.9427197265625,0.0015668869018554688,0.016636371612548828,-0.01301797479391098
1761370343297330200,6.961330078125,-0.1954793930053711,0.01685953140258789,-0.053349241614341736
1761370343315942100,6.979942138671875,-0.1850428581237793,0.033881187438964844,-0.08786166459321976
1761370343334552600,6.998552490234375,-0.0941762924194336,0.04915666580200195,-0.10420028120279312
1761370343353164500,7.01716455078125,-0.027667999267578125,0.010059833526611328,0.029848754405975342
1761370343371775000,7.03577490234375,0.02513885498046875,-0.03429365158081055,0.2031063437461853
1761370343390387000,7.054386962890625,0.07445240020751953,-0.0577235221862793,0.17918027937412262
1761370343408997400,7.072997314453125,0.0016679763793945312,-0.11157989501953125,0.1272275447845459
1761370343427609300,7.091609375,-0.07021522521972656,-0.1518077850341797,0.09645623713731766
1761370343446219800,7.1102197265625,-0.0598907470703125,-0.10180521011352539,0.05326191335916519
1761370343464831700,7.128831787109375,-0.02279806137084961,-0.040987491607666016,-0.011248216032981873
1761370343483442200,7.147442138671875,0.029661178588867188,-0.024349212646484375,-0.04693037271499634
1761370343502054100,7.16605419921875,0.04992818832397461,-0.04140281677246094,-0.04560476541519165
1761370343520664600,7.18466455078125,-0.07777023315429688,-0.05042839050292969,-0.07473775744438171
1761370343539276500,7.203276611328125,-0.15676403045654297,-0.07646512985229492,-0.004769444465637207
1761370343557887000,7.221886962890625,-0.14037036895751953,-0.05148935317993164,-0.007056586444377899
1761370343576499000,7.2404990234375,-0.09618043899536133,-0.0011534690856933594,0.020914271473884583
1761370343595109400,7.259109375,-0.028854846954345703,0.05300474166870117,0.018388472497463226
1761370343613721300,7.277721435546875,0.02570629119873047,0.09254884719848633,-0.0620696023106575
1761370343632331800,7.296331787109375,-0.008582592010498047,0.08877182006835938,-0.08893432468175888
1761370343650943700,7.31494384765625,-0.06694316864013672,0.11519670486450195,-0.05068075656890869
1761370343669554200,7.33355419921875,-0.08185863494873047,0.12517070770263672,-0.07994209229946136
1761370343688166100,7.352166259765625,0.08069610595703125,0.07040119171142578,-0.09598198533058167
1761370343706776600,7.370776611328125,0.24119853973388672,0.005355358123779297,-0.12025471031665802
1761370343725388500,7.389388427734375,0.16316795349121094,-0.08418560028076172,-0.024065375328063965
1761370343743999000,7.4079990234375,0.02274036407470703,-0.1732616424560547,0.14563526213169098
1761370343762611000,7.42661083984375,-0.0892791748046875,-0.14127016067504883,0.21850523352622986
1761370343781221400,7.445221435546875,0.05536937713623047,-0.022396564483642578,0.14217451214790344
1761370343799833300,7.463833251953125,0.18021869659423828,0.08271265029907227,0.002691797912120819
1761370343818443800,7.48244384765625,0.10917377471923828,0.09054231643676758,-0.045203279703855515
1761370343837055700,7.5010556640625,0.0017156600952148438,0.07180404663085938,0.0017257928848266602
1761370343855666000,7.519666015625,-0.11144495010375977,0.004527568817138672,0.01855471171438694
1761370343874278100,7.538278076171875,-0.2664179801940918,-0.04953432083129883,0.0011951271444559097
1761370343892888300,7.556888427734375,-0.3776564598083496,-0.05710935592651367,-0.04857511445879936
1761370343911500500,7.57550048828125,-0.3378310203552246,-0.009035110473632812,-0.07458598911762238
1761370343930110700,7.59411083984375,-0.11529064178466797,0.047571659088134766,-0.06727233529090881
1761370343948722700,7.61272265625,0.14564895629882812,0.0463261604309082,-0.03710940107703209
1761370343967333000,7.6313330078125,0.18643474578857422,0.014322280883789062,0.0027023768052458763
1761370343985945000,7.649945068359375,-0.010603904724121094,-0.02266550064086914,-0.012148691341280937
1761370344004555500,7.668555419921875,-0.17761993408203125,-0.02464580535888672,-0.03911380469799042
1761370344023167500,7.68716748046875,-0.17951250076293945,0.0023317337036132812,-0.08346767723560333
1761370344041778000,7.70577783203125,-0.0099639892578125,0.027692794799804688,-0.09633585065603256
1761370344060390000,7.724389892578125,0.0957193374633789,0.016462326049804688,-0.02960338443517685
1761370344079000300,7.743000244140625,0.06279182434082031,0.038552284240722656,-0.06011682376265526
1761370344097612300,7.7616123046875,-0.01842498779296875,0.06700325012207031,-0.13553233444690704
1761370344116222700,7.78022265625,-0.05259990692138672,0.01123809814453125,-0.03558579459786415
1761370344134834700,7.798834716796875,0.047481536865234375,-0.0660848617553711,0.1270909309387207
1761370344153445000,7.817445068359375,0.12398242950439453,-0.09091758728027344,0.20040263235569
1761370344172057000,7.83605712890625,0.17342472076416016,-0.04390430450439453,0.12202777713537216
1761370344190667500,7.85466748046875,0.2816925048828125,0.00789022445678711,0.10626073181629181
1761370344209279500,7.873279541015625,0.35239315032958984,0.04566240310668945,0.10184596478939056
1761370344227890000,7.891889892578125,0.32433128356933594,0.04644489288330078,0.0778588056564331
1761370344246502000,7.910501953125,0.1645193099975586,0.03812265396118164,0.061485402286052704
1761370344265112300,7.9291123046875,-0.061812400817871094,0.022948741912841797,0.015079736709594727
1761370344283724300,7.947724365234375,-0.21157312393188477,-0.018250465393066406,-0.08259691298007965
1761370344302334700,7.966334716796875,-0.3924570083618164,-0.04215097427368164,-0.07164636254310608
1761370344320946700,7.98494677734375,-0.4888496398925781,-0.07474946975708008,0.014369115233421326
1761370344339557000,8.00355712890625,-0.32100343704223633,-0.019464492797851562,0.04482923448085785
1761370344358169000,8.022169189453125,-0.03218650817871094,0.05440950393676758,0.10323745757341385
1761370344376779500,8.040779541015626,0.21388912200927734,0.1045536994934082,0.11369486153125763
1761370344395391500,8.0593916015625,0.33852577209472656,0.05451536178588867,0.11915706098079681
1761370344414002000,8.078001953125,0.3624153137207031,0.0077610015869140625,0.15900446474552155
1761370344432614000,8.09661376953125,0.2797555923461914,0.050080299377441406,0.03626196086406708
1761370344451224300,8.115224365234376,0.07611465454101562,0.08768844604492188,-0.10764636099338531
1761370344469836300,8.133836181640625,-0.10946941375732422,0.022179603576660156,-0.11143162846565247
1761370344488446500,8.152446533203126,-0.2432394027709961,0.0108489990234375,-0.03243342787027359
1761370344507058700,8.17105859375,-0.1653585433959961,0.008692741394042969,-0.03651106357574463
1761370344525668900,8.1896689453125,-0.11540412902832031,0.02855539321899414,0.03010709583759308
1761370344544280800,8.20828076171875,0.03275871276855469,-0.02020120620727539,-0.0010028332471847534
1761370344562891300,8.226891357421875,0.15262317657470703,-0.06500625610351562,0.026268675923347473
1761370344581503200,8.245503173828125,0.10007762908935547,-0.1051168441772461,0.23409980535507202
1761370344600113700,8.26411376953125,0.1066446304321289,-0.09357213973999023,0.35268884897232056
1761370344618725600,8.2827255859375,0.18649673461914062,-0.08014869689941406,0.22003108263015747
1761370344637336000,8.301336181640625,0.21214580535888672,0.01125478744506836,0.06891952455043793
1761370344655948000,8.319947998046874,0.23976898193359375,0.04871845245361328,-0.023914411664009094
1761370344674558500,8.338558349609375,0.15684890747070312,0.019780635833740234,-0.06951671838760376
1761370344693170400,8.35717041015625,-0.029802322387695312,-0.008779048919677734,-0.1229601800441742
1761370344711780900,8.37578076171875,-0.20279312133789062,-0.026305198669433594,-0.11177627742290497
1761370344730392800,8.394392822265624,-0.27666807174682617,-0.04454851150512695,-0.19956724345684052
1761370344749003300,8.413003173828125,-0.3707113265991211,-0.02353048324584961,-0.15966130793094635
1761370344767615200,8.431615234375,-0.3164091110229492,-0.03663015365600586,-0.12067189812660217
1761370344786225700,8.4502255859375,-0.17418193817138672,-0.025259017944335938,-0.06164037436246872
1761370344804837600,8.468837646484374,-0.046189308166503906,0.04824066162109375,0.052211761474609375
1761370344823448000,8.487447998046875,0.1671142578125,0.08487415313720703,-0.12960156798362732
1761370344842060000,8.50606005859375,0.16471195220947266,0.05950498580932617,0.10891757905483246
1761370344860670500,8.52467041015625,0.1699514389038086,-0.019657135009765625,0.11821085214614868
1761370344879282400,8.543282470703126,0.11079120635986328,-0.10057687759399414,0.2541090250015259
1761370344897892600,8.561892578125,0.14938735961914062,-0.01591777801513672,0.2589130401611328
1761370344916504800,8.5805048828125,0.3181743621826172,0.010390758514404297,0.05553561449050903
1761370344935115000,8.599114990234375,0.254302978515625,0.027298450469970703,-0.11133553087711334
1761370344953727000,8.61772705078125,0.061995506286621094,0.07107782363891602,-0.14334756135940552
1761370344972337400,8.63633740234375,-0.04398918151855469,0.03772735595703125,-0.08270739018917084
1761370344990949400,8.654949462890626,-0.1846609115600586,0.04173612594604492,-0.13277585804462433
1761370345009559800,8.673559814453125,-0.31802797317504883,0.046384334564208984,-0.15923792123794556
1761370345028171800,8.692171875,-0.3496518135070801,0.0018315315246582031,-0.1030808612704277
1761370345046782200,8.7107822265625,-0.30406761169433594,-0.036040306091308594,-0.10274450480937958
1761370345065394200,8.729394287109375,-0.2025890350341797,0.0067501068115234375,-0.1337374895811081
1761370345084004600,8.748004638671874,0.013448715209960938,0.014969348907470703,-0.013988986611366272
1761370345102616600,8.766616455078125,0.26097774505615234,0.04128837585449219,0.05959494411945343
1761370345121227000,8.78522705078125,0.3451271057128906,0.03787517547607422,0.10579007863998413
1761370345139839000,8.8038388671875,0.27106189727783203,0.00881052017211914,0.14873895049095154
1761370345158449400,8.822449462890624,0.18256092071533203,-0.012027263641357422,0.14949806034564972
1761370345177061400,8.841061279296875,0.1000823974609375,0.008646965026855469,0.05414813756942749
1761370345195671800,8.859671875,-0.06400108337402344,-0.008603096008300781,-0.044247761368751526
1761370345214283800,8.87828369140625,-0.17923736572265625,-0.034881591796875,-0.054614171385765076
1761370345232894000,8.89689404296875,-0.22963714599609375,-0.02931070327758789,-0.04158882796764374
1761370345251506200,8.915506103515625,-0.1796245574951172,-0.016887664794921875,-0.04435570538043976
1761370345270116400,8.934116455078126,-0.12055397033691406,0.017106056213378906,-0.07407169044017792
1761370345288728300,8.952728271484375,-0.06586551666259766,-0.00817251205444336,-0.03244355320930481
1761370345307338800,8.9713388671875,0.06462860107421875,-0.014477252960205078,-0.037691861391067505
1761370345325950700,8.98995068359375,0.12411308288574219,0.005353450775146484,-0.04074074327945709
1761370345344561200,9.00856103515625,0.06605243682861328,0.03018474578857422,-0.0217820405960083
1761370345363173000,9.027173095703125,0.04007911682128906,0.01262044906616211,0.07032778859138489
1761370345381783600,9.045783447265626,0.08026695251464844,-0.06932210922241211,0.1818379908800125
1761370345400395500,9.0643955078125,0.03929328918457031,-0.054906368255615234,0.19365377724170685
1761370345419006000,9.083005859375,0.013609886169433594,-0.005791187286376953,0.15039220452308655
1761370345437618000,9.101617919921875,0.0147247314453125,0.0014028549194335938,0.04423223435878754
1761370345456228400,9.120228271484375,-0.030645370483398438,-0.017988204956054688,-0.0027583688497543335
1761370345474840300,9.13884033203125,-0.08876895904541016,-0.02373361587524414,0.024447858333587646
1761370345493450800,9.15745068359375,-0.06668663024902344,0.0064601898193359375,0.012420877814292908
1761370345512062700,9.176062744140625,0.008439064025878906,-0.04797220230102539,0.01654548943042755
1761370345530673000,9.1946728515625,0.027250289916992188,-0.056437015533447266,-0.04654249548912048
1761370345549285000,9.21328515625,-0.006072044372558594,-0.01496124267578125,-0.0585399866104126
1761370345567895300,9.231895263671875,-0.026865005493164062,-0.012237071990966797,-0.023552745580673218
1761370345586507300,9.25050732421875,-0.03344154357910156,-0.01302194595336914,0.012016594409942627
1761370345605117700,9.26911767578125,-0.026287078857421875,0.03345680236816406,-0.009527653455734253
1761370345623729700,9.287729736328124,0.032448768615722656,0.016920089721679688,0.04063329100608826
1761370345642340000,9.306340087890625,0.07119274139404297,-0.021106243133544922,0.06513985991477966
1761370345660952000,9.3249521484375,0.05814838409423828,-0.033594608306884766,0.04371872544288635
1761370345679562500,9.3435625,0.012814521789550781,-0.005865573883056641,0.004179149866104126
1761370345698174500,9.362174560546874,-0.026833534240722656,0.010223865509033203,-0.04353344440460205
1761370345716785000,9.380784912109375,-0.023736000061035156,-0.006021976470947266,0.028034508228302002
1761370345735396900,9.39939697265625,-0.018754959106445312,-0.009676933288574219,0.11875331401824951
1761370345754007300,9.41800732421875,-0.04244232177734375,0.015604972839355469,0.08325433731079102
1761370345772619300,9.436619384765624,0.0631399154663086,-0.004056453704833984,0.11633989214897156
1761370345791229400,9.4552294921875,0.14572715759277344,0.03256654739379883,0.06893095374107361
1761370345809841700,9.473841552734376,0.09847450256347656,0.016531944274902344,0.011177241802215576
1761370345828451800,9.492451904296875,0.022996902465820312,0.024578094482421875,0.0016807615756988525
1761370345847064000,9.51106396484375,-0.03676891326904297,0.019373416900634766,-0.05462753772735596
1761370345865674200,9.52967431640625,-0.03935527801513672,0.05259513854980469,-0.09645816683769226
1761370345884286200,9.5482861328125,-0.04612445831298828,0.060968875885009766,-0.14291629195213318
1761370345902896600,9.566896728515625,-0.054825782775878906,0.0031371116638183594,-0.09127916395664215
1761370345921508600,9.585508544921876,-0.08404350280761719,-0.003899097442626953,-0.047527432441711426
1761370345940119000,9.604119140625,-0.15257930755615234,0.031951904296875,-0.02912801504135132
1761370345958731000,9.62273095703125,-0.18714618682861328,0.042675018310546875,-0.04588988423347473
1761370345977341400,9.641341552734374,-0.1378927230834961,0.015156269073486328,0.00005799531936645508
1761370345995953400,9.659953369140625,-0.04242134094238281,0.01638507843017578,0.08005508780479431
1761370346014563800,9.678563720703124,0.052089691162109375,0.04516029357910156,0.08152306079864502
1761370346033175800,9.69717578125,0.10986804962158203,0.061618804931640625,0.05370005965232849
1761370346051786200,9.7157861328125,0.18877601623535156,0.01597309112548828,0.008704990148544312
1761370346070398200,9.734398193359375,0.15714550018310547,-0.03574085235595703,0.012696504592895508
1761370346089008400,9.75300830078125,0.03151226043701172,-0.046595096588134766,-0.005303919315338135
1761370346107620600,9.77162060546875,-0.12163639068603516,-0.04306507110595703,-0.02059951424598694
1761370346126230800,9.790230712890626,-0.10288810729980469,0.002261638641357422,-0.07079914212226868
1761370346144842800,9.8088427734375,-0.07378005981445312,0.060077667236328125,-0.13395081460475922
1761370346163453200,9.827453125,-0.1442270278930664,0.028563976287841797,-0.10360842943191528
1761370346182065200,9.846065185546875,-0.15085220336914062,-0.0014863014221191406,-0.015301376581192017
1761370346200675600,9.864675537109376,-0.018024444580078125,0.007806301116943359,0.017157524824142456
1761370346219287600,9.88328759765625,0.021674156188964844,0.023190975189208984,-0.026569515466690063
1761370346237898000,9.90189794921875,0.011440277099609375,0.009869098663330078,0.035311609506607056
1761370346256510000,9.920510009765625,0.06466007232666016,-0.0031061172485351562,0.06391432881355286
1761370346275120400,9.939120361328126,0.14063739776611328,0.01314544677734375,0.05113992094993591
1761370346293732400,9.957732421875,0.17612934112548828,0.03263378143310547,0.059170663356781006
1761370346312342500,9.976342529296875,0.03918933868408203,0.007403850555419922,0.06054052710533142
1761370346330954800,9.994954833984375,-0.1052865982055664,-0.023139476776123047,0.10426270961761475
1761370346349565000,10.01356494140625,-0.1109151840209961,-0.028950214385986328,0.03019559383392334
1761370346368177000,10.032177001953125,-0.035691261291503906,0.005672454833984375,-0.05880585312843323
1761370346386787300,10.050787353515625,0.0023736953735351562,0.0388178825378418,-0.11354358494281769
1761370346405399300,10.0693994140625,-0.011854171752929688,0.030485153198242188,-0.1187935471534729
1761370346424009700,10.088009765625,-0.007251739501953125,0.014159202575683594,-0.009352952241897583
1761370346442621700,10.10662158203125,0.0016984939575195312,-0.013451576232910156,-0.04628768563270569
1761370346461232000,10.125232177734375,-0.050568580627441406,-0.02097940444946289,-0.043715983629226685
1761370346479844000,10.143843994140624,-0.11369609832763672,-0.031121253967285156,-0.01148572564125061
1761370346498454500,10.16245458984375,0.013582229614257812,-0.04552745819091797,0.00331076979637146
1761370346517066500,10.18106640625,0.13589000701904297,-0.014444828033447266,-0.06904914975166321
1761370346535677000,10.199677001953125,0.06120586395263672,0.018261432647705078,-0.07930102944374084
1761370346554289000,10.218288818359374,-0.04364013671875,-0.014366626739501953,0.00353395938873291
1761370346572899000,10.236899169921875,-0.02961444854736328,-0.030065059661865234,0.06241849064826965
1761370346591511300,10.25551123046875,0.04668426513671875,-0.01501607894897461,0.05734166502952576
1761370346610121500,10.27412158203125,0.034470558166503906,-0.01280832290649414,0.0573771595954895
1761370346628733400,10.2927333984375,0.013085365295410156,-0.07990407943725586,0.11671435832977295
1761370346647343900,10.31134375,0.04101753234863281,-0.04117536544799805,0.09120011329650879
1761370346665955800,10.329955810546876,0.060988426208496094,-0.006618022918701172,0.07743176817893982
1761370346684566300,10.348566162109375,0.022536277770996094,-0.010990142822265625,0.08815452456474304
1761370346703178200,10.36717822265625,0.0533447265625,-0.02043914794921875,0.10619533061981201
1761370346721788700,10.38578857421875,0.03950691223144531,0.0064907073974609375,0.04247689247131348
1761370346740400600,10.404400634765626,-0.01833057403564453,0.011547088623046875,0.0013021528720855713
1761370346759011000,10.423010986328125,-0.06800270080566406,-0.002795696258544922,0.04907062649726868
1761370346777623000,10.441623046875,-0.0468597412109375,-0.004109859466552734,0.05585399270057678
1761370346796233200,10.460233154296875,-0.024275779724121094,0.000057220458984375,0.058647096157073975
1761370346814845400,10.478845458984376,0.11254405975341797,-0.01582479476928711,0.10253769159317017
1761370346833455600,10.49745556640625,0.22129440307617188,0.04458189010620117,0.0328231155872345
1761370346852067600,10.516067626953125,0.11893367767333984,0.04015970230102539,-0.046418070793151855
1761370346870678000,10.534677978515624,-0.042471885681152344,-0.008236885070800781,-0.007347226142883301
1761370346889290000,10.5532900390625,-0.1816091537475586,-0.04773378372192383,0.03243103623390198
1761370346907900400,10.571900390625,-0.22322463989257812,-0.030047893524169922,0.04065456986427307
1761370346926512400,10.590512451171875,-0.12295055389404297,0.010615348815917969,-0.024060457944869995
1761370346945122800,10.609122802734374,0.015477180480957031,-0.005865573883056641,0.06064140796661377
1761370346963734800,10.62773486328125,0.13901042938232422,-0.016098499298095703,0.092437744140625
1761370346982345200,10.64634521484375,0.22308921813964844,0.035845279693603516,0.08847922086715698
1761370347000957200,10.664957275390625,0.1995687484741211,0.051450252532958984,0.059899717569351196
1761370347019567400,10.6835673828125,0.06436824798583984,0.010564327239990234,0.04266393184661865
1761370347038179600,10.7021796875,-0.0876007080078125,-0.03350830078125,0.02062860131263733
1761370347056789800,10.720789794921876,-0.168548583984375,-0.012309551239013672,-0.004105418920516968
1761370347075401700,10.739401611328125,-0.1839609146118164,-0.005442142486572266,-0.047394007444381714
1761370347094012200,10.75801220703125,-0.07616710662841797,0.02962017059326172,-0.037067264318466187
1761370347112624000,10.7766240234375,0.15500259399414062,0.05412626266479492,0.001094818115234375
1761370347131234600,10.795234619140626,0.17808818817138672,0.0315699577331543,0.06146326661109924
1761370347149846500,10.813846435546875,0.11178398132324219,0.020847797393798828,0.1665974259376526
1761370347168457000,10.83245703125,-0.00013446807861328125,-0.009908676147460938,0.05023142695426941
1761370347187069000,10.85106884765625,-0.08066463470458984,-0.0020570755004882812,0.017343223094940186
1761370347205679400,10.869679443359376,-0.1390209197998047,0.026244640350341797,0.005773097276687622
1761370347224291300,10.888291259765625,-0.10782241821289062,0.057564735412597656,-0.08798819780349731
1761370347242901800,10.90690185546875,-0.04019355773925781,0.006168842315673828,-0.1464734822511673
1761370347261513700,10.925513671875,-0.12291431427001953,0.0352320671081543,-0.21291516721248627
1761370347280124200,10.944124267578125,-0.15802001953125,0.031096458435058594,-0.11269283294677734
1761370347298736000,10.962736083984375,-0.1407938003540039,0.0025124549865722656,-0.02026212215423584
1761370347317346600,10.9813466796875,-0.03887748718261719,0.00008487701416015625,0.04926520586013794
1761370347335958500,10.99995849609375,0.08556461334228516,-0.03354644775390625,0.0638241171836853
1761370347354568700,11.018568603515625,0.012590408325195312,0.003440380096435547,0.020596563816070557
