time,seconds_elapsed,z,y,x
1761370336562857500,0.226857421875,-0.9694145917892456,-0.14225105941295624,0.02680092304944992
1761370336572376600,0.23637646484375,-1.0433270931243896,-0.20455747842788696,0.14897038042545319
1761370336581894700,0.245894775390625,-1.0946383476257324,-0.27052897214889526,0.26014456152915955
1761370336591411200,0.2554111328125,-1.1209046840667725,-0.35360419750213623,0.34871742129325867
1761370336600926700,0.2649267578125,-1.113574504852295,-0.4372902810573578,0.4226299524307251
1761370336610441000,0.27444091796875,-1.0891406536102295,-0.5130353569984436,0.4495072364807129
1761370336619954200,0.2839541015625,-1.041494607925415,-0.5686224699020386,0.4226299524307251
1761370336629466400,0.29346630859375,-0.9559759497642517,-0.5276956558227539,0.36093437671661377
1761370336638977300,0.302977294921875,-0.8423583507537842,-0.42751672863960266,0.2943520247936249
1761370336648487700,0.31248779296875,-0.7091936469078064,-0.32428354024887085,0.24609509110450745
1761370336657996800,0.321996826171875,-0.5656445622444153,-0.2662530541419983,0.2259371280670166
1761370336667505200,0.331505126953125,-0.4428642690181732,-0.2387649267911911,0.2253262847661972
1761370336677012700,0.3410126953125,-0.3414636254310608,-0.25953373312950134,0.23571068048477173
1761370336686519800,0.350519775390625,-0.2773246467113495,-0.24976016581058502,0.22899135947227478
1761370336696025900,0.36002587890625,-0.24311721324920654,-0.20700086653232574,0.19234053790569305
1761370336705531100,0.36953125,-0.19913621246814728,-0.16301986575126648,0.13675342500209808
1761370336715036000,0.379035888671875,-0.13744063675403595,-0.13064496219158173,0.07627955079078674
1761370336724540200,0.3885400390625,-0.08368607610464096,-0.10254598408937454,0.015194825828075409
1761370336734043600,0.398043701171875,-0.07207997888326645,-0.10498937219381332,-0.04718795046210289
1761370336743546600,0.407546630859375,-0.09712471067905426,-0.1074327602982521,-0.12354385852813721
1761370336753049000,0.417049072265625,-0.1178935244679451,-0.09888090193271637,-0.20967331528663635
1761370336762551000,0.426551025390625,-0.11667182296514511,-0.11659546941518784,-0.2958027720451355
1761370336772052500,0.436052490234375,-0.10017894953489304,-0.15568970143795013,-0.3703261613845825
1761370336781553400,0.445553466796875,-0.07696675509214401,-0.19600561261177063,-0.43018919229507446
1761370336791054000,0.45505419921875,-0.03542914241552353,-0.20272493362426758,-0.4662291705608368
1761370336800554200,0.46455419921875,0.015271181240677834,-0.22899135947227478,-0.4747810363769531
1761370336819553500,0.483553466796875,0.07391251623630524,-0.30656898021698,-0.47111594676971436
1761370336838551000,0.502551025390625,0.12522368133068085,-0.459280788898468,-0.44729289412498474
1761370336857547500,0.521547607421875,0.1301104724407196,-0.4586699306964874,-0.46073153614997864
1761370336876464400,0.54046435546875,0.10628741979598999,-0.4091913104057312,-0.40514445304870605
1761370336895074800,0.55907470703125,0.043981000781059265,-0.32733777165412903,-0.2915268540382385
1761370336913686800,0.577686767578125,-0.04947862774133682,-0.20822255313396454,-0.12659808993339539
1761370336932297200,0.596297119140625,-0.13499724864959717,-0.10621106624603271,0.028633465990424156
1761370336950909200,0.6149091796875,-0.17836740612983704,-0.09032903611660004,0.08360971510410309
1761370336969519600,0.63351953125,-0.16248537600040436,-0.13675342500209808,0.05856497958302498
1761370336988131600,0.652131591796875,-0.12339114397764206,-0.23387815058231354,0.044515494257211685
1761370337006742000,0.670741943359375,-0.08979454636573792,-0.32122930884361267,0.06650599837303162
1761370337025354000,0.68935400390625,-0.08918370306491852,-0.3694862425327301,0.10987614840269089
1761370337043964400,0.70796435546875,-0.0916270911693573,-0.3713187873363495,0.12392564117908478
1761370337062576400,0.726576416015625,-0.11422843486070633,-0.4122455418109894,0.11476293206214905
1761370337081186800,0.745186767578125,-0.1185043677687645,-0.4366794228553772,0.13919681310653687
1761370337099798800,0.763798828125,-0.09590301662683487,-0.3853682577610016,0.18073442578315735
1761370337118409200,0.7824091796875,-0.08674030750989914,-0.41591063141822815,0.18928629159927368
1761370337137021200,0.801021240234375,-0.10262233763933182,-0.4464530050754547,0.14041851460933685
1761370337155631600,0.819631591796875,-0.11483928561210632,-0.40430453419685364,0.13797512650489807
1761370337174243600,0.83824365234375,-0.09895725548267365,-0.37742725014686584,0.1349208950996399
1761370337192854300,0.856854248046875,-0.07696675509214401,-0.39208757877349854,0.05734328553080559
1761370337211466200,0.87546630859375,-0.014049487188458443,-0.4085804522037506,-0.04718795046210289
1761370337230076700,0.89407666015625,0.08612946420907974,-0.44523128867149353,-0.058183200657367706
1761370337248688600,0.912688720703125,0.15149012207984924,-0.3823140263557434,-0.054518118500709534
1761370337267299000,0.931299072265625,0.08307522535324097,-0.1868429034948349,-0.13270656764507294
1761370337285911000,0.9499111328125,-0.07391251623630524,-0.06711684167385101,-0.22127941250801086
1761370337304521500,0.968521484375,-0.1832541823387146,-0.054899897426366806,-0.2560977041721344
1761370337323133400,0.987133544921875,-0.26694026589393616,-0.12392564117908478,-0.09544488787651062
1761370337341743900,1.005743896484375,-0.2718270421028137,-0.10193513333797455,0.0811663269996643
1761370337360355800,1.02435595703125,-0.2596100866794586,-0.0017561858985573053,0.16973918676376343
1761370337378966300,1.04296630859375,-0.2761029601097107,0.08559497445821762,0.21860696375370026
1761370337397578200,1.061578125,-0.3158080279827118,0.13324105739593506,0.3016822040081024
1761370337416188700,1.080188720703125,-0.36223241686820984,0.1020878478884697,0.39086589217185974
1761370337434800600,1.098800537109375,-0.4068242609500885,0.06665870547294617,0.4476746916770935
1761370337453411000,1.1174111328125,-0.24372805655002594,-0.11720632016658783,0.380481481552124
1761370337472023300,1.136023193359375,-0.10140064358711243,-0.32611608505249023,0.3187859058380127
1761370337490633700,1.1546337890625,-0.07696675509214401,-0.4226299524307251,0.2259371280670166
1761370337509245700,1.17324560546875,0.02626643143594265,-0.44217705726623535,0.16301986575126648
1761370337527856000,1.191856201171875,0.21440738439559937,-0.40369367599487305,-0.4784461259841919
1761370337546468000,1.210468017578125,0.17470231652259827,-0.4641675651073456,-0.23288552463054657
1761370337565078500,1.22907861328125,0.021379653364419937,-0.3456631898880005,0.09765920788049698
1761370337583690500,1.2476904296875,0.045202698558568954,-0.32489439845085144,0.20761170983314514
1761370337602301000,1.266301025390625,-0.09040539711713791,-0.23387815058231354,0.3810923397541046
1761370337620913000,1.284912841796875,-0.27854636311531067,-0.14164020121097565,0.5344150066375732
1761370337639523300,1.3035234375,-0.45508119463920593,-0.14286190271377563,0.5674007534980774
1761370337658135300,1.32213525390625,-0.5412106513977051,-0.1984490007162094,0.5032618045806885
1761370337676745700,1.340745849609375,-0.53143709897995,-0.19234053790569305,0.36276692152023315
1761370337695357700,1.359357666015625,-0.5241069197654724,-0.053678203374147415,0.1214822456240654
1761370337713968000,1.377968017578125,-0.4324798583984375,0.04772244393825531,-0.06368082761764526
1761370337732580400,1.396580322265625,-0.3408527672290802,0.11919157207012177,-0.14614520967006683
1761370337751190500,1.4151904296875,-0.47585001587867737,0.17477867007255554,-0.1638597846031189
1761370337769802800,1.433802734375,-0.6719319820404053,0.22547899186611176,-0.11499200016260147
1761370337788413000,1.452412841796875,-0.6542174220085144,0.2193705290555954,-0.0459662564098835
1761370337807025200,1.471025146484375,-0.517998456954956,0.1265217363834381,0.12331479042768478
1761370337825635600,1.489635498046875,-0.8454126119613647,0.36780640482902527,0.30412557721138
1761370337844247600,1.50824755859375,-1.0042328834533691,0.43377789855003357,0.4366794228553772
1761370337862858000,1.52685791015625,-0.9773555994033813,0.2877854108810425,0.5564054846763611
1761370337881470000,1.545469970703125,-0.8356390595436096,-0.13186664879322052,0.6773532629013062
1761370337900080400,1.564080322265625,-0.8857285380363464,-0.406137079000473,0.6804074645042419
1761370337918692400,1.5826923828125,-1.0286667346954346,-0.5362475514411926,0.6327614188194275
1761370337937302800,1.601302734375,-1.0757020711898804,-0.5997756719589233,0.51914381980896
1761370337955914800,1.619914794921875,-0.9791881442070007,-0.6248204112052917,0.41652145981788635
1761370337974525200,1.638525146484375,-1.0011786222457886,-0.6290963292121887,0.3181750774383545
1761370337993137200,1.65713720703125,-1.0744802951812744,-0.7714237570762634,0.16424155235290527
1761370338011747600,1.67574755859375,-1.2607887983322144,-0.911918580532074,-0.045355409383773804
1761370338030359800,1.69435986328125,-1.4208307266235352,-0.9595646858215332,-0.072843536734581
1761370338048970200,1.71297021484375,-1.2247487306594849,-1.0151517391204834,0.006642963737249374
1761370338067582200,1.731582275390625,-0.7653915882110596,-1.0579110383987427,0.08849649876356125
1761370338086192600,1.750192626953125,-0.5015056133270264,-1.0970053672790527,0.22899135947227478
1761370338104804600,1.7688046875,-0.26755109429359436,-1.0029348134994507,0.40186113119125366
1761370338123415000,1.7874150390625,-0.21990501880645752,-0.652919352054596,0.5777851343154907
1761370338142027000,1.806027099609375,-0.16248537600040436,-0.4250733256340027,0.51914381980896
1761370338160637400,1.824637451171875,-0.14904673397541046,-0.3951418101787567,0.3285594582557678
1761370338179249400,1.84324951171875,-0.19974705576896667,-0.250981867313385,0.2112767994403839
1761370338197859800,1.86185986328125,-0.24250635504722595,-0.227769672870636,0.19417306780815125
1761370338216471800,1.880471923828125,-0.22906772792339325,-0.17768019437789917,0.15568970143795013
1761370338235082200,1.899082275390625,-0.16370706260204315,-0.18256697058677673,0.11109784245491028
1761370338253694200,1.917694091796875,-0.1844758689403534,-0.18378867208957672,0.04818057641386986
1761370338272304600,1.9363046875,-0.19241689145565033,-0.14164020121097565,0.004199574701488018
1761370338290916900,1.954916748046875,-0.15087927877902985,-0.15080291032791138,-0.04963133856654167
1761370338309527000,1.973527099609375,-0.09468132257461548,-0.21799612045288086,-0.049020491540431976
1761370338328139300,1.99213916015625,-0.06047387793660164,-0.21555273234844208,-0.039857782423496246
1761370338346749400,2.01074951171875,-0.0659715011715889,-0.2137201875448227,-0.06490252166986465
1761370338365361700,2.029361572265625,-0.08246438205242157,-0.17157171666622162,-0.07101099193096161
1761370338383972000,2.04797216796875,-0.10873081535100937,-0.11720632016658783,-0.06673506647348404
1761370338402584000,2.066583984375,-0.11911521852016449,-0.0946049690246582,-0.058183200657367706
1761370338421194500,2.085194580078125,-0.10201149433851242,-0.05123481526970863,-0.0594048947095871
1761370338439806500,2.103806396484375,-0.06413896381855011,-0.013362283818423748,-0.039857782423496246
1761370338458417000,2.1224169921875,-0.04031591862440109,0.022677704691886902,-0.038636088371276855
1761370338477028900,2.14102880859375,-0.00916270911693573,0.011682453565299511,-0.06429167091846466
1761370338495639300,2.159639404296875,0.010995250195264816,0.009239064529538155,-0.12048961967229843
1761370338514251300,2.178251220703125,0.053143709897994995,0.004963133949786425,-0.17057909071445465
1761370338532861700,2.19686181640625,0.12155860662460327,0.03978142887353897,-0.1760767251253128
1761370338551473700,2.2154736328125,0.09468132257461548,-0.023746687918901443,-0.18218518793582916
1761370338570084000,2.234083984375,0.008551862090826035,-0.1336991935968399,-0.15286453068256378
1761370338588696000,2.252696044921875,0.017714571207761765,-0.11842801421880722,-0.12720894813537598
1761370338607306500,2.271306396484375,-0.013438640162348747,-0.16607409715652466,-0.14492350816726685
1761370338625918500,2.28991845703125,-0.13438639044761658,-0.2638096511363983,-0.16935740411281586
1761370338644529000,2.30852880859375,-0.21562908589839935,-0.31328830122947693,-0.16630317270755768
1761370338663141000,2.32714111328125,-0.3555130958557129,-0.3181750774383545,-0.15591876208782196
1761370338681751600,2.34575146484375,-0.312142938375473,-0.19172967970371246,-0.12781979143619537
1761370338700363500,2.364363525390625,-0.2217375487089157,-0.02557922899723053,-0.06490252166986465
1761370338718974000,2.382973876953125,-0.23212195932865143,0.03061871975660324,-0.03008422814309597
1761370338737586000,2.4015859375,-0.16309621930122375,0.0752105712890625,-0.01847812905907631
1761370338756196400,2.4201962890625,-0.18997350335121155,0.004352286923676729,-0.010537114925682545
1761370338774808300,2.438808349609375,-0.12033691257238388,0.015958385542035103,0.02435753494501114
1761370338793418800,2.457418701171875,0.0036650835536420345,0.04772244393825531,0.05734328553080559
1761370338812030700,2.47603076171875,0.0781884491443634,0.043446511030197144,0.015194825828075409
1761370338830641200,2.49464111328125,0.07207997888326645,0.015958385542035103,-0.051463883370161057
1761370338849253000,2.513253173828125,0.02870982140302658,-0.04512634128332138,-0.04718795046210289
1761370338867863600,2.531863525390625,0.09468132257461548,-0.004199574701488018,0.028633465990424156
1761370338886475500,2.5504755859375,0.11911521852016449,-0.0164165198802948,0.07078192383050919
1761370338905086000,2.5690859375,0.06780404597520828,-0.07994463294744492,0.07200361788272858
1761370338923698000,2.587697998046875,0.05070032179355621,-0.11598462611436844,0.08605311065912247
1761370338942308400,2.606308349609375,0.046424392610788345,-0.08055548369884491,0.11598462611436844
1761370338960920300,2.62492041015625,-0.054365407675504684,-0.06467345356941223,0.14225105941295624
1761370338979530800,2.64353076171875,-0.16615045070648193,0.004963133949786425,0.15691138803958893
1761370338998142700,2.662142822265625,-0.1820324808359146,0.11613733321428299,0.09827005118131638
1761370339016753200,2.680753173828125,-0.11911521852016449,0.044668205082416534,0.012751436792314053
1761370339035365000,2.699365234375,-0.09284878522157669,0.00007635590736754239,-0.03374931216239929
1761370339053975600,2.7179755859375,-0.020157959312200546,-0.023746687918901443,-0.08261708915233612
1761370339072587800,2.736587890625,-0.11483928561210632,-0.04756972938776016,-0.149199441075325
1761370339091198000,2.755197998046875,-0.1453816443681717,0.01046075951308012,-0.22433365881443024
1761370339109810200,2.77381005859375,-0.08857285231351852,0.044668205082416534,-0.31596073508262634
1761370339128420600,2.792420654296875,0.017714571207761765,0.04772244393825531,-0.3984251320362091
1761370339147032600,2.811032470703125,0.09773556143045425,0.012904148548841476,-0.34039464592933655
1761370339165643000,2.82964306640625,0.05619794875383377,-0.026190076023340225,-0.14186927676200867
1761370339184255000,2.8482548828125,0.016492875292897224,-0.054899897426366806,0.06039752438664436
1761370339202865400,2.866865478515625,0.0036650835536420345,-0.030466007068753242,0.1996707022190094
1761370339221477400,2.885477294921875,-0.0024433890357613564,0.034283801913261414,0.25831204652786255
1761370339240087800,2.904087890625,0.005497625097632408,0.08192989230155945,0.24243000149726868
1761370339258699800,2.92269970703125,0.0024433890357613564,0.1277434378862381,0.1752368062734604
1761370339277310200,2.941310302734375,-0.005497625097632408,0.1265217363834381,0.06650599837303162
1761370339295922200,2.959922119140625,0.005497625097632408,0.1295759677886963,-0.039857782423496246
1761370339314532600,2.97853271484375,0.006719320081174374,0.12224581092596054,-0.1119377613067627
1761370339333144600,2.99714453125,0.016492875292897224,0.03978142887353897,-0.1241547018289566
1761370339351755000,3.015755126953125,0.03176405653357506,-0.04879142343997955,-0.09239064902067184
1761370339370367000,3.034366943359375,0.04031591862440109,-0.05795413255691528,-0.047798797488212585
1761370339388977400,3.052977294921875,0.02504473738372326,-0.017027366906404495,-0.037414394319057465
1761370339407589400,3.07158935546875,0.0036650835536420345,-0.006642963737249374,-0.03680354729294777
1761370339426199800,3.09019970703125,-0.008551862090826035,-0.0017561858985573053,0.011529741808772087
1761370339444811800,3.108811767578125,-0.01954711228609085,0.00129805039614439,0.07322531193494797
1761370339463422200,3.127422119140625,-0.021990500390529633,0.01779092662036419,0.08971819281578064
1761370339482034200,3.1460341796875,-0.02748812735080719,0.011071606539189816,0.07566870748996735
1761370339500644600,3.16464453125,-0.023823043331503868,-0.00908635277301073,0.050013117492198944
1761370339519256600,3.183256591796875,-0.014660334214568138,-0.02802261710166931,0.0164165198802948
1761370339537867000,3.201866943359375,-0.0006108472589403391,-0.029855160042643547,-0.009315420873463154
1761370339556479000,3.22047900390625,0.007330167107284069,-0.02680092304944992,-0.028251685202121735
1761370339575089400,3.23908935546875,0.01038440316915512,-0.006642963737249374,-0.04474456235766411
1761370339593701400,3.257701416015625,0.020157959312200546,0.0031305921729654074,-0.07101099193096161
1761370339612311800,3.276311767578125,0.021990500390529633,-0.0164165198802948,-0.10094250738620758
1761370339630924000,3.294924072265625,0.021990500390529633,-0.05856497958302498,-0.13087402284145355
1761370339649534200,3.3135341796875,0.02626643143594265,-0.0958266630768776,-0.125987246632576
1761370339668146400,3.332146484375,0.022601349279284477,-0.0823880210518837,-0.08689302206039429
1761370339686756900,3.3507568359375,0.00916270911693573,-0.052456509321928024,-0.04352286830544472
1761370339705368800,3.369368896484375,0.0012216945178806782,-0.01763821393251419,-0.012369656935334206
1761370339723979300,3.387979248046875,-0.005497625097632408,0.015958385542035103,-0.001374406274408102
1761370339742591200,3.40659130859375,-0.014049487188458443,0.03855973482131958,0.0035887276753783226
1761370339761201700,3.42520166015625,-0.010995250195264816,0.02023431472480297,-0.007482878863811493
1761370339779813600,3.443813720703125,-0.017714571207761765,0.0037414394319057465,-0.03008422814309597
1761370339798424000,3.462424072265625,0,0.005573981441557407,-0.03558185324072838
1761370339817036000,3.4810361328125,0.006108472589403391,0.000687203137204051,-0.03436015918850899
1761370339835646500,3.499646484375,0.006108472589403391,-0.004199574701488018,-0.024586603045463562
1761370339854258400,3.518258544921875,-0.0036650835536420345,-0.0011453386396169662,-0.007482878863811493
1761370339872868900,3.536868896484375,-0.014049487188458443,-0.010918894782662392,0.007253811229020357
1761370339891480800,3.555480712890625,-0.025655584409832954,-0.00908635277301073,0.03229855000972748
1761370339910091300,3.57409130859375,-0.029320668429136276,0.01046075951308012,0.06589514762163162
1761370339928703200,3.592703125,-0.0397050715982914,0.014125842601060867,0.07933378964662552
1761370339947313700,3.611313720703125,-0.04337015375494957,0.01901262067258358,0.07261446863412857
1761370339965925600,3.629925537109375,-0.05131116881966591,0.03733803704380989,0.052456509321928024
1761370339984536000,3.6485361328125,-0.04337015375494957,0.055052608251571655,0.022524992004036903
1761370340003148000,3.66714794921875,-0.05008947476744652,0.07215633243322372,0.015805672854185104
1761370340021758500,3.685758544921875,-0.03787253051996231,0.06482616811990738,-0.014202198944985867
1761370340040370400,3.704370361328125,0.008551862090826035,0.014125842601060867,-0.09544488787651062
1761370340058980900,3.72298095703125,0.047646086663007736,-0.021914144977927208,-0.1516428291797638
1761370340077592800,3.7415927734375,0.061084724962711334,-0.03168770298361778,-0.17180079221725464
1761370340096203300,3.760203369140625,0.054365407675504684,-0.0231358390301466,-0.1656923145055771
1761370340114815200,3.778815185546875,0.02504473738372326,0.0037414394319057465,-0.10888352245092392
1761370340133425700,3.79742578125,-0.01038440316915512,0.04161396995186806,-0.024586603045463562
1761370340152037600,3.81603759765625,-0.022601349279284477,0.1014770045876503,0.03229855000972748
1761370340170648000,3.83464794921875,-0.0006108472589403391,0.0880383625626564,0.04940227046608925
1761370340189260000,3.853260009765625,-0.010995250195264816,0.04772244393825531,0.022524992004036903
1761370340207870500,3.871870361328125,0.04703523963689804,0.0489441379904747,-0.04230117425322533
1761370340226482400,3.890482421875,0.13560809195041656,0.0067956759594380856,-0.1510319858789444
1761370340245092900,3.9090927734375,0.1185043677687645,0.0752105712890625,-0.2163926362991333
1761370340263704800,3.927704833984375,0.05803048983216286,0.10819631814956665,-0.15897299349308014
1761370340282315300,3.946315185546875,0.03542914241552353,0.16011834144592285,-0.014202198944985867
1761370340300927200,3.96492724609375,0.0036650835536420345,0.1527881771326065,0.13003410398960114
1761370340319537700,3.98353759765625,-0.034818295389413834,0.13446275889873505,0.1984490007162094
1761370340338149600,4.002149658203125,-0.0653606578707695,0.13140851259231567,0.20944425463676453
1761370340356760000,4.020760009765625,-0.07146912813186646,0.13812783360481262,0.15507884323596954
1761370340375372000,4.0393720703125,-0.05070032179355621,0.10819631814956665,0.07811209559440613
1761370340393982500,4.057982421875,-0.02504473738372326,0.07093463838100433,0.017027366906404495
1761370340412594400,4.076594482421875,0.0012216945178806782,0.045889899134635925,-0.03008422814309597
1761370340431204900,4.095204833984375,0.01710372418165207,0.008017370477318764,-0.08689302206039429
1761370340449816800,4.11381689453125,0.026877280324697495,-0.021914144977927208,-0.11804623156785965
1761370340468427300,4.13242724609375,0.014660334214568138,-0.03962871432304382,-0.11865708231925964
1761370340487039200,4.151039306640625,-0.0036650835536420345,-0.027411770075559616,-0.1113269105553627
1761370340505649700,4.169649658203125,-0.006108472589403391,-0.021303297951817513,-0.09666658192873001
1761370340524261600,4.18826171875,0.007330167107284069,-0.0023670331574976444,-0.06856760382652283
1761370340542872000,4.2068720703125,0.024433890357613564,0.022066857665777206,-0.03558185324072838
1761370340561484000,4.225484130859375,0.00916270911693573,0.018401773646473885,-0.015423892997205257
1761370340580094500,4.244094482421875,0.004886778071522713,0.024510245770215988,-0.00259610079228878
1761370340598706400,4.26270654296875,0.012216945178806782,0.014736690558493137,-0.008704573847353458
1761370340617316900,4.28131689453125,0.012827792204916477,0.005573981441557407,-0.017867282032966614
1761370340635928800,4.2999287109375,0.007330167107284069,-0.013973130844533443,-0.005650337319821119
1761370340654539300,4.318539306640625,0,-0.00908635277301073,0.017027366906404495
1761370340673151200,4.337151123046875,-0.004886778071522713,0.0037414394319057465,0.019470756873488426
1761370340691761700,4.35576171875,-0.00916270911693573,0.012904148548841476,0.014583977870643139
1761370340710373600,4.37437353515625,-0.007330167107284069,0.009849912486970425,0.004199574701488018
1761370340728984000,4.392984130859375,0.0030542362947016954,-0.00908635277301073,-0.008704573847353458
1761370340747596300,4.41159619140625,0.012216945178806782,-0.015805672854185104,-0.021532366052269936
1761370340766206500,4.43020654296875,0.015271181240677834,-0.012751436792314053,-0.03497100621461868
1761370340784818700,4.448818603515625,0.021379653364419937,-0.008475505746901035,-0.0459662564098835
1761370340803428900,4.467428955078125,0.022601349279284477,-0.0005344913806766272,-0.0594048947095871
1761370340822041000,4.486041015625,0.013438640162348747,-0.0035887276753783226,-0.06551336497068405
1761370340840651300,4.5046513671875,-0.0006108472589403391,-0.021303297951817513,-0.06245913356542587
1761370340859263500,4.523263427734375,-0.02870982140302658,-0.05306735634803772,-0.06795676052570343
1761370340877873700,4.541873779296875,-0.05375456064939499,-0.07200361788272858,-0.08811471611261368
1761370340896486000,4.56048583984375,-0.07757759839296341,-0.07750124484300613,-0.10888352245092392
1761370340915096000,4.579095947265625,-0.08735115826129913,-0.054899897426366806,-0.11499200016260147
1761370340933708300,4.597708251953125,-0.09284878522157669,-0.03352024406194687,-0.11254860460758209
1761370340952318500,4.616318359375,-0.10750912129878998,0.0025197449140250683,-0.0978882759809494
1761370340970930700,4.6349306640625,-0.10689827054738998,0.02695363573729992,-0.06856760382652283
1761370340989541000,4.653541015625,-0.09040539711713791,0.03733803704380989,-0.054518118500709534
1761370341008153000,4.672153076171875,-0.07269082218408585,0.00862821750342846,-0.04169032722711563
1761370341026763500,4.690763427734375,-0.04947862774133682,-0.050013117492198944,-0.012980503961443901
1761370341045375500,4.70937548828125,-0.013438640162348747,-0.0695602297782898,0.026190076023340225
1761370341063986000,4.72798583984375,0.0012216945178806782,-0.034131091088056564,0.045737188309431076
1761370341082598000,4.746597900390625,0.010995250195264816,-0.006642963737249374,0.04940227046608925
1761370341101208300,4.765208251953125,0.006108472589403391,0.028786176815629005,0.028633465990424156
1761370341119820300,4.7838203125,0.01038440316915512,0.05138752609491348,0.006642963737249374
1761370341138430700,4.8024306640625,0.01038440316915512,0.061771929264068604,-0.00992626789957285
1761370341157042700,4.821042724609375,-0.0012216945178806782,0.043446511030197144,-0.01725643500685692
1761370341175653000,4.839653076171875,-0.007330167107284069,0.036727190017700195,-0.014813045971095562
1761370341194265000,4.85826513671875,-0.014660334214568138,0.03306210786104202,-0.014813045971095562
1761370341212875500,4.87687548828125,-0.026877280324697495,0.024510245770215988,-0.014202198944985867
1761370341231487500,4.895487548828125,-0.030542362481355667,0.0067956759594380856,-0.017867282032966614
1761370341250098000,4.914097900390625,-0.029320668429136276,-0.009697199799120426,-0.010537114925682545
1761370341268710000,4.9327099609375,-0.02504473738372326,-0.013973130844533443,-0.0068720318377017975
1761370341287320300,4.9513203125,-0.021990500390529633,-0.00786465872079134,-0.01175880990922451
1761370341305932300,4.969932373046875,-0.018936265259981155,-0.004199574701488018,-0.022754060104489326
1761370341324542700,4.988542724609375,-0.02870982140302658,-0.005421269219368696,-0.027029991149902344
1761370341343154700,5.00715478515625,-0.02993151545524597,0.005573981441557407,-0.017867282032966614
1761370341361765000,5.02576513671875,-0.017714571207761765,0.007406522985547781,-0.001374406274408102
1761370341380377000,5.044377197265625,-0.015271181240677834,0.004352286923676729,0.004810422193259001
1761370341398987500,5.062987548828125,-0.018936265259981155,0.01046075951308012,0.0023670331574976444
1761370341417599500,5.081599609375,-0.02076880633831024,0.025731941685080528,0.0035887276753783226
1761370341436210000,5.1002099609375,-0.01954711228609085,0.036727190017700195,0.006032116711139679
1761370341454822000,5.11882177734375,-0.02626643143594265,0.025121092796325684,0.0029778804164379835
1761370341473432300,5.137432373046875,-0.03176405653357506,0.004963133949786425,0.0011453386396169662
1761370341492044300,5.156044189453125,-0.026877280324697495,0.014125842601060867,0.013362283818423748
1761370341510654700,5.17465478515625,-0.022601349279284477,0.022066857665777206,0.020692450925707817
1761370341529266700,5.1932666015625,-0.012827792204916477,0.026342788711190224,0.02924431301653385
1761370341547877000,5.211877197265625,0.0036650835536420345,0.026342788711190224,0.022524992004036903
1761370341566489000,5.230489013671875,0.020157959312200546,0.0165692325681448,-0.008093725889921188
1761370341585099500,5.249099609375,0.024433890357613564,-0.0035887276753783226,-0.03130592033267021
1761370341603711500,5.26771142578125,0.01832541823387146,-0.008475505746901035,-0.036192700266838074
1761370341622322000,5.286322021484375,0.0036650835536420345,0.0019088976550847292,-0.01847812905907631
1761370341640934100,5.30493408203125,-0.01038440316915512,0.02145601063966751,0.012751436792314053
1761370341659544300,5.32354443359375,-0.02076880633831024,0.018401773646473885,0.02435753494501114
1761370341678156500,5.342156494140625,-0.026877280324697495,-0.0005344913806766272,0.02435753494501114
1761370341696766700,5.3607666015625,-0.01954711228609085,0.0037414394319057465,0.02680092304944992
1761370341715379000,5.37937890625,-0.006719320081174374,0.0165692325681448,0.027411770075559616
1761370341733989400,5.3979892578125,-0.006108472589403391,0.014125842601060867,0.0164165198802948
1761370341752601300,5.416601318359375,-0.007941014133393764,-0.0017561858985573053,0.012751436792314053
1761370341771211500,5.43521142578125,-0.0030542362947016954,0.0031305921729654074,0.01763821393251419
1761370341789823700,5.45382373046875,-0.0006108472589403391,0.009239064529538155,0.024968381971120834
1761370341808434000,5.472433837890625,-0.010995250195264816,0.009849912486970425,0.013973130844533443
1761370341827046100,5.491046142578125,-0.020157959312200546,0.0025197449140250683,-0.01175880990922451
1761370341845656600,5.509656494140625,-0.021990500390529633,0.007406522985547781,-0.027029991149902344
1761370341864268500,5.5282685546875,-0.00916270911693573,-0.00908635277301073,-0.010537114925682545
1761370341882879000,5.54687890625,-0.0018325417768210173,-0.02802261710166931,-0.005650337319821119
1761370341901491000,5.565490966796875,-0.0018325417768210173,-0.03168770298361778,-0.016645587980747223
1761370341920101400,5.584101318359375,-0.004886778071522713,-0.03168770298361778,-0.025808297097682953
1761370341938713300,5.60271337890625,0,-0.02924431301653385,-0.016034740954637527
1761370341957323800,5.62132373046875,0.006108472589403391,-0.009697199799120426,0.006032116711139679
1761370341975935700,5.639935791015625,0.007330167107284069,-0.006032116711139679,0.012140588834881783
1761370341994546200,5.658546142578125,0.013438640162348747,-0.004810422193259001,0.011529741808772087
1761370342013158100,5.677158203125,0.025655584409832954,-0.012751436792314053,0.015805672854185104
1761370342031768600,5.6957685546875,0.02870982140302658,-0.020692450925707817,0.008475505746901035
1761370342050380500,5.714380615234375,0.023823043331503868,-0.010308047756552696,-0.0050394898280501366
1761370342068991000,5.732990966796875,0.015271181240677834,0.026342788711190224,-0.021532366052269936
1761370342087603000,5.75160302734375,0.008551862090826035,0.06849125027656555,-0.03558185324072838
1761370342106213400,5.77021337890625,0.014660334214568138,0.08987089991569519,-0.006261184345930815
1761370342124825300,5.788825439453125,0.0390942245721817,0.08437328040599823,0.04512634128332138
1761370342143435800,5.807435791015625,0.053143709897994995,0.062993623316288,0.07750124484300613
1761370342162047700,5.8260478515625,0.05375456064939499,0.05199837312102318,0.07750124484300613
1761370342180658200,5.844658203125,0.04459185153245926,0.03733803704380989,0.04634803533554077
1761370342199270100,5.863270263671875,0.0397050715982914,0.02145601063966751,0.031076854094862938
1761370342217880600,5.881880615234375,0.04153761267662048,0.014736690558493137,0.03840702027082443
1761370342236492500,5.900492431640625,0.031153209507465363,-0.0005344913806766272,0.03962871432304382
1761370342255103000,5.91910302734375,0.014049487188458443,-0.004199574701488018,0.03290939703583717
1761370342273715000,5.93771484375,0.0024433890357613564,0.00007635590736754239,0.02802261710166931
1761370342292325400,5.956325439453125,-0.009773556143045425,0.006184828467667103,0.013362283818423748
1761370342310937300,5.974937255859375,-0.023823043331503868,-0.0017561858985573053,0.0017561858985573053
1761370342329547800,5.9935478515625,-0.02870982140302658,0.012293301522731781,0.009697199799120426
1761370342348159700,6.01215966796875,-0.018936265259981155,0.0293970238417387,0.03962871432304382
1761370342366770200,6.030770263671875,-0.023823043331503868,0.049554985016584396,0.06406260281801224
1761370342385382100,6.049382080078125,-0.034818295389413834,0.04772244393825531,0.0683385357260704
1761370342403992600,6.06799267578125,-0.023212196305394173,0.024510245770215988,0.06223006546497345
1761370342422604500,6.0866044921875,-0.005497625097632408,0.00862821750342846,0.054899897426366806
1761370342441215000,6.105215087890625,0,0.027564482763409615,0.044515494257211685
1761370342459827000,6.123826904296875,-0.00916270911693573,0.039170581847429276,0.03901786729693413
1761370342478437400,6.142437255859375,-0.025655584409832954,0.028786176815629005,0.035352785140275955
1761370342497049300,6.16104931640625,-0.02504473738372326,0.014125842601060867,0.020692450925707817
1761370342515659800,6.17965966796875,-0.016492875292897224,0.008017370477318764,0.006032116711139679
1761370342534271700,6.198271728515625,0.008551862090826035,-0.019470756873488426,-0.007482878863811493
1761370342552882200,6.216882080078125,0.018936265259981155,-0.031076854094862938,-0.027029991149902344
1761370342571494100,6.235494140625,0.012827792204916477,-0.0164165198802948,-0.04169032722711563
1761370342590104600,6.2541044921875,0.011606098152697086,-0.0005344913806766272,-0.0331384651362896
1761370342608716500,6.272716552734375,0.006108472589403391,0.0031305921729654074,-0.001985253533348441
1761370342627327000,6.291326904296875,-0.0006108472589403391,0.000687203137204051,0.027411770075559616
1761370342645939000,6.30993896484375,0.004886778071522713,-0.00786465872079134,0.03168770298361778
1761370342664549400,6.32854931640625,0.014660334214568138,-0.021303297951817513,0.011529741808772087
1761370342683161300,6.347161376953125,0.023823043331503868,-0.021303297951817513,-0.014202198944985867
1761370342701771800,6.365771728515625,0.02626643143594265,-0.0035887276753783226,-0.02886253222823143
1761370342720383700,6.3843837890625,0.021379653364419937,0.025731941685080528,-0.012369656935334206
1761370342738994200,6.402994140625,0.02626643143594265,0.056274302303791046,0.0231358390301466
1761370342757606100,6.421606201171875,0.054365407675504684,0.056274302303791046,0.04390464723110199
1761370342776216600,6.440216552734375,0.06719319522380829,0.0489441379904747,0.03840702027082443
1761370342794828500,6.45882861328125,0.06719319522380829,0.031229566782712936,0.0164165198802948
1761370342813439000,6.47743896484375,0.05070032179355621,0.000687203137204051,-0.0038177953101694584
1761370342832051000,6.496051025390625,0.025655584409832954,-0.0011453386396169662,0.012751436792314053
1761370342850661400,6.514661376953125,-0.005497625097632408,0.005573981441557407,0.05673243850469589
1761370342869273300,6.5332734375,-0.036039989441633224,0.024510245770215988,0.10498937219381332
1761370342887883800,6.5518837890625,-0.05497625470161438,0.03061871975660324,0.1361425817012787
1761370342906495700,6.570495849609375,-0.061084724962711334,0.040392275899648666,0.14897038042545319
1761370342925106200,6.589106201171875,-0.05131116881966591,0.02145601063966751,0.12820157408714294
1761370342943718100,6.60771826171875,-0.04581354558467865,-0.005421269219368696,0.10132429003715515
1761370342962328600,6.62632861328125,-0.038483377546072006,-0.013973130844533443,0.06039752438664436
1761370342980940500,6.6449404296875,-0.02748812735080719,-0.015194825828075409,0.02435753494501114
1761370342999551000,6.663551025390625,-0.018936265259981155,-0.026190076023340225,-0.01175880990922451
1761370343018163000,6.682162841796875,-0.013438640162348747,-0.04146125912666321,-0.055739812552928925
1761370343036773400,6.7007734375,-0.007941014133393764,-0.03901786729693413,-0.07711946964263916
1761370343055385300,6.71938525390625,-0.009773556143045425,-0.026190076023340225,-0.06490252166986465
1761370343073995800,6.737995849609375,-0.01588202826678753,-0.02557922899723053,-0.030695075169205666
1761370343092607700,6.756607666015625,-0.021990500390529633,-0.0231358390301466,-0.013591351918876171
1761370343111218200,6.77521826171875,-0.018936265259981155,-0.00908635277301073,-0.007482878863811493
1761370343129830100,6.793830078125,-0.012827792204916477,0.005573981441557407,-0.0032069480512291193
1761370343148440600,6.812440673828125,-0.00916270911693573,0.0019088976550847292,-0.007482878863811493
1761370343167052500,6.831052490234375,-0.01038440316915512,-0.014583977870643139,-0.009315420873463154
1761370343185663000,6.8496630859375,-0.0018325417768210173,-0.010918894782662392,-0.0068720318377017975
1761370343204275000,6.86827490234375,0.0006108472589403391,0.008017370477318764,-0.004428642801940441
1761370343222885400,6.886885498046875,-0.006108472589403391,0.00862821750342846,0.013973130844533443
1761370343241497300,6.905497314453125,-0.015271181240677834,0.0019088976550847292,0.04879142343997955
1761370343260107800,6.924107666015625,-0.01954711228609085,-0.0005344913806766272,0.08605311065912247
1761370343278719700,6.9427197265625,-0.018936265259981155,0.005573981441557407,0.09032903611660004
1761370343297330200,6.961330078125,-0.01710372418165207,0.014736690558493137,0.0689493864774704
1761370343315942100,6.979942138671875,-0.01038440316915512,0.035505495965480804,0.05123481526970863
1761370343334552600,6.998552490234375,0.0036650835536420345,0.04283566400408745,0.04818057641386986
1761370343353164500,7.01716455078125,0,0.023899398744106293,0.04756972938776016
1761370343371775000,7.03577490234375,-0.022601349279284477,0.015347537584602833,0.04634803533554077
1761370343390387000,7.054386962890625,-0.037261683493852615,0.020845163613557816,0.06039752438664436
1761370343408997400,7.072997314453125,-0.04886778071522713,0.014736690558493137,0.06039752438664436
1761370343427609300,7.091609375,-0.05375456064939499,0.00129805039614439,0.04146125912666321
1761370343446219800,7.1102197265625,-0.05070032179355621,0.01046075951308012,0.026190076023340225
1761370343464831700,7.128831787109375,-0.04459185153245926,0.017180079594254494,0.021914144977927208
1761370343483442200,7.147442138671875,-0.02993151545524597,0.011682453565299511,0.023746687918901443
1761370343502054100,7.16605419921875,-0.017714571207761765,-0.0029778804164379835,0.028633465990424156
1761370343520664600,7.18466455078125,-0.0006108472589403391,-0.00786465872079134,0.01885990984737873
1761370343539276500,7.203276611328125,0.0030542362947016954,-0.01885990984737873,-0.008093725889921188
1761370343557887000,7.221886962890625,0.0024433890357613564,-0.03290939703583717,-0.03130592033267021
1761370343576499000,7.2404990234375,-0.0006108472589403391,-0.03352024406194687,-0.04840964451432228
1761370343595109400,7.259109375,-0.0030542362947016954,-0.028633465990424156,-0.05207473039627075
1761370343613721300,7.277721435546875,0.0036650835536420345,-0.013973130844533443,-0.03924693539738655
1761370343632331800,7.296331787109375,0.01710372418165207,0.009849912486970425,-0.025808297097682953
1761370343650943700,7.31494384765625,0.02993151545524597,0.0489441379904747,-0.024586603045463562
1761370343669554200,7.33355419921875,0.03542914241552353,0.0752105712890625,-0.03497100621461868
1761370343688166100,7.352166259765625,0.043981000781059265,0.05199837312102318,-0.03802524134516716
1761370343706776600,7.370776611328125,0.0647498071193695,0.004963133949786425,-0.01175880990922451
1761370343725388500,7.389388427734375,0.08185353130102158,-0.020692450925707817,0.006032116711139679
1761370343743999000,7.4079990234375,0.08124268800020218,-0.030466007068753242,0.0017561858985573053
1761370343762611000,7.42661083984375,0.06413896381855011,-0.02008160389959812,-0.025197450071573257
1761370343781221400,7.445221435546875,0.05131116881966591,-0.017027366906404495,-0.03008422814309597
1761370343799833300,7.463833251953125,0.04703523963689804,-0.027411770075559616,-0.005650337319821119
1761370343818443800,7.48244384765625,0.045202698558568954,-0.043293800204992294,0.00786465872079134
1761370343837055700,7.5010556640625,0.043981000781059265,-0.03718532621860504,0.010918894782662392
1761370343855666000,7.519666015625,0.04703523963689804,-0.021303297951817513,0.012140588834881783
1761370343874278100,7.538278076171875,0.053143709897994995,-0.010308047756552696,-0.0038177953101694584
1761370343892888300,7.556888427734375,0.05925218388438225,-0.011529741808772087,-0.04352286830544472
1761370343911500500,7.57550048828125,0.05925218388438225,-0.02008160389959812,-0.0856713280081749
1761370343930110700,7.59411083984375,0.05619794875383377,-0.021303297951817513,-0.10033166408538818
1761370343948722700,7.61272265625,0.05741964280605316,-0.024968381971120834,-0.07467607408761978
1761370343967333000,7.6313330078125,0.05619794875383377,-0.029855160042643547,-0.04046862944960594
1761370343985945000,7.649945068359375,0.051922015845775604,-0.02802261710166931,-0.03924693539738655
1761370344004555500,7.668555419921875,0.05070032179355621,-0.020692450925707817,-0.06978929787874222
1761370344023167500,7.68716748046875,0.0525328628718853,-0.021303297951817513,-0.10705098509788513
1761370344041778000,7.70577783203125,0.05741964280605316,-0.0164165198802948,-0.10888352245092392
1761370344060390000,7.724389892578125,0.05070032179355621,-0.026190076023340225,-0.10338589549064636
1761370344079000300,7.743000244140625,0.05070032179355621,-0.03596363216638565,-0.10644013434648514
1761370344097612300,7.7616123046875,0.0647498071193695,-0.03962871432304382,-0.10827267915010452
1761370344116222700,7.78022265625,0.06658235192298889,-0.011529741808772087,-0.11377029865980148
1761370344134834700,7.798834716796875,0.0653606578707695,0.01046075951308012,-0.10827267915010452
1761370344153445000,7.817445068359375,0.053143709897994995,0.014736690558493137,-0.0984991192817688
1761370344172057000,7.83605712890625,0.04703523963689804,0.024510245770215988,-0.08811471611261368
1761370344190667500,7.85466748046875,0.04459185153245926,0.03245126083493233,-0.06429167091846466
1761370344209279500,7.873279541015625,0.03298575058579445,0.035505495965480804,-0.02641914412379265
1761370344227890000,7.891889892578125,0.014049487188458443,0.0293970238417387,0.010308047756552696
1761370344246502000,7.910501953125,-0.0030542362947016954,0.015958385542035103,0.03229855000972748
1761370344265112300,7.9291123046875,-0.00916270911693573,0.007406522985547781,0.028633465990424156
1761370344283724300,7.947724365234375,-0.0006108472589403391,0.0019088976550847292,0.01763821393251419
1761370344302334700,7.966334716796875,0.013438640162348747,-0.0029778804164379835,-0.020310672000050545
1761370344320946700,7.98494677734375,0.021379653364419937,-0.006642963737249374,-0.0844496339559555
1761370344339557000,8.00355712890625,0.021379653364419937,-0.011529741808772087,-0.12720894813537598
1761370344358169000,8.022169189453125,0.016492875292897224,-0.00908635277301073,-0.13087402284145355
1761370344376779500,8.040779541015626,0.007330167107284069,-0.009697199799120426,-0.10582929104566574
1761370344395391500,8.0593916015625,-0.006108472589403391,-0.021914144977927208,-0.0716218426823616
1761370344414002000,8.078001953125,-0.02504473738372326,-0.012751436792314053,-0.031916771084070206
1761370344432614000,8.09661376953125,-0.03176405653357506,-0.00786465872079134,0.004199574701488018
1761370344451224300,8.115224365234376,-0.021379653364419937,-0.0035887276753783226,0.01885990984737873
1761370344469836300,8.133836181640625,-0.01038440316915512,-0.01763821393251419,0.006642963737249374
1761370344488446500,8.152446533203126,-0.018936265259981155,-0.04512634128332138,-0.0325276181101799
1761370344507058700,8.17105859375,-0.026877280324697495,-0.07322531193494797,-0.05757235363125801
1761370344525668900,8.1896689453125,-0.03787253051996231,-0.08971819281578064,-0.07467607408761978
1761370344544280800,8.20828076171875,-0.021379653364419937,-0.10071343928575516,-0.072232685983181
1761370344562891300,8.226891357421875,0.014049487188458443,-0.08788564801216125,-0.04413371533155441
1761370344581503200,8.245503173828125,0.008551862090826035,-0.0561215914785862,-0.025808297097682953
1761370344600113700,8.26411376953125,-0.021990500390529633,-0.031076854094862938,-0.02092151902616024
1761370344618725600,8.2827255859375,-0.0397050715982914,-0.017027366906404495,-0.001374406274408102
1761370344637336000,8.301336181640625,-0.04459185153245926,-0.004810422193259001,0.019470756873488426
1761370344655948000,8.319947998046874,-0.04459185153245926,0.006184828467667103,0.05062396824359894
1761370344674558500,8.338558349609375,-0.04337015375494957,0.02145601063966751,0.07627955079078674
1761370344693170400,8.35717041015625,-0.033596597611904144,0.022677704691886902,0.07383616268634796
1761370344711780900,8.37578076171875,-0.03298575058579445,0.023288551717996597,0.04940227046608925
1761370344730392800,8.394392822265624,0.0006108472589403391,0.026342788711190224,0.02557922899723053
1761370344749003300,8.413003173828125,0.01832541823387146,0.028786176815629005,-0.015423892997205257
1761370344767615200,8.431615234375,0.029320668429136276,0.0019088976550847292,-0.058183200657367706
1761370344786225700,8.4502255859375,0.02993151545524597,-0.026190076023340225,-0.08994726091623306
1761370344804837600,8.468837646484374,-0.012216945178806782,-0.053678203374147415,-0.11438114941120148
1761370344823448000,8.487447998046875,0.018936265259981155,-0.08055548369884491,-0.09361234307289124
1761370344842060000,8.50606005859375,-0.0006108472589403391,-0.10682191699743271,-0.08017370104789734
1761370344860670500,8.52467041015625,0.007330167107284069,-0.11598462611436844,-0.055739812552928925
1761370344879282400,8.543282470703126,-0.010995250195264816,-0.08788564801216125,-0.04352286830544472
1761370344897892600,8.561892578125,-0.026877280324697495,-0.015805672854185104,-0.02092151902616024
1761370344916504800,8.5805048828125,-0.028098974376916885,0.011071606539189816,0.02557922899723053
1761370344935115000,8.599114990234375,-0.02076880633831024,0.02023431472480297,0.06406260281801224
1761370344953727000,8.61772705078125,-0.015271181240677834,0.03367295488715172,0.07750124484300613
1761370344972337400,8.63633740234375,-0.023212196305394173,0.02817532978951931,0.07994463294744492
1761370344990949400,8.654949462890626,-0.028098974376916885,0.01779092662036419,0.07017108052968979
1761370345009559800,8.673559814453125,-0.02504473738372326,0.025731941685080528,0.044515494257211685
1761370345028171800,8.692171875,-0.02076880633831024,0.028786176815629005,0.013973130844533443
1761370345046782200,8.7107822265625,-0.00916270911693573,0.014736690558493137,-0.02092151902616024
1761370345065394200,8.729394287109375,0.00916270911693573,0.0031305921729654074,-0.04963133856654167
1761370345084004600,8.748004638671874,0.01588202826678753,-0.0005344913806766272,-0.05635065957903862
1761370345102616600,8.766616455078125,0.018936265259981155,0.0037414394319057465,-0.030695075169205666
1761370345121227000,8.78522705078125,0.020157959312200546,0.00862821750342846,0.00786465872079134
1761370345139839000,8.8038388671875,0.01038440316915512,0.0067956759594380856,0.03474193811416626
1761370345158449400,8.822449462890624,-0.007330167107284069,0.004352286923676729,0.04695888236165047
1761370345177061400,8.841061279296875,-0.00916270911693573,-0.0023670331574976444,0.05306735634803772
1761370345195671800,8.859671875,0.0030542362947016954,-0.008475505746901035,0.04818057641386986
1761370345214283800,8.87828369140625,0.016492875292897224,-0.00786465872079134,0.03352024406194687
1761370345232894000,8.89689404296875,0.02504473738372326,0.00007635590736754239,0.012751436792314053
1761370345251506200,8.915506103515625,0.03176405653357506,0.012293301522731781,-0.0007635590736754239
1761370345270116400,8.934116455078126,0.045202698558568954,0.026342788711190224,-0.004428642801940441
1761370345288728300,8.952728271484375,0.04947862774133682,0.0293970238417387,-0.0068720318377017975
1761370345307338800,8.9713388671875,0.05131116881966591,0.023899398744106293,0.0023670331574976444
1761370345325950700,8.98995068359375,0.055587101727724075,0.00129805039614439,0.0164165198802948
1761370345344561200,9.00856103515625,0.056808795779943466,-0.0017561858985573053,0.020692450925707817
1761370345363173000,9.027173095703125,0.04947862774133682,-0.012751436792314053,0.0164165198802948
1761370345381783600,9.045783447265626,0.026877280324697495,-0.031076854094862938,0.015805672854185104
1761370345400395500,9.0643955078125,0.006108472589403391,-0.024968381971120834,0.013362283818423748
1761370345419006000,9.083005859375,-0.007941014133393764,-0.012140588834881783,0.011529741808772087
1761370345437618000,9.101617919921875,-0.005497625097632408,-0.010308047756552696,0.017027366906404495
1761370345456228400,9.120228271484375,0,-0.012140588834881783,0.018249060958623886
1761370345474840300,9.13884033203125,-0.0018325417768210173,-0.0023670331574976444,0.010918894782662392
1761370345493450800,9.15745068359375,-0.0018325417768210173,0.0019088976550847292,0.0029778804164379835
1761370345512062700,9.176062744140625,-0.0024433890357613564,-0.0035887276753783226,0.004810422193259001
1761370345530673000,9.1946728515625,0.0030542362947016954,-0.015194825828075409,0.004810422193259001
1761370345549285000,9.21328515625,0.013438640162348747,-0.020692450925707817,0.0017561858985573053
1761370345567895300,9.231895263671875,0.01954711228609085,-0.017027366906404495,-0.0007635590736754239
1761370345586507300,9.25050732421875,0.01710372418165207,-0.019470756873488426,-0.008093725889921188
1761370345605117700,9.26911767578125,0.02076880633831024,-0.01885990984737873,-0.01175880990922451
1761370345623729700,9.287729736328124,0.02076880633831024,-0.00908635277301073,-0.004428642801940441
1761370345642340000,9.306340087890625,0.018936265259981155,0.0025197449140250683,0.004810422193259001
1761370345660952000,9.3249521484375,0.017714571207761765,0.01046075951308012,0.012140588834881783
1761370345679562500,9.3435625,0.021379653364419937,0.005573981441557407,0.009697199799120426
1761370345698174500,9.362174560546874,0.031153209507465363,-0.005421269219368696,0.0023670331574976444
1761370345716785000,9.380784912109375,0.031153209507465363,-0.010918894782662392,-0.0032069480512291193
1761370345735396900,9.39939697265625,0.018936265259981155,-0.010918894782662392,-0.0050394898280501366
1761370345754007300,9.41800732421875,0.013438640162348747,-0.013973130844533443,-0.012369656935334206
1761370345772619300,9.436619384765624,-0.0012216945178806782,-0.02802261710166931,-0.00992626789957285
1761370345791229400,9.4552294921875,-0.00916270911693573,-0.029855160042643547,0.012751436792314053
1761370345809841700,9.473841552734376,-0.0012216945178806782,-0.03168770298361778,0.021303297951817513
1761370345828451800,9.492451904296875,-0.007330167107284069,-0.03474193811416626,0.020692450925707817
1761370345847064000,9.51106396484375,-0.006108472589403391,-0.03779617324471474,0.010918894782662392
1761370345865674200,9.52967431640625,-0.0024433890357613564,-0.02435753494501114,0.006642963737249374
1761370345884286200,9.5482861328125,0.007941014133393764,-0.012140588834881783,0.012140588834881783
1761370345902896600,9.566896728515625,0.011606098152697086,-0.006642963737249374,0.015194825828075409
1761370345921508600,9.585508544921876,0.014049487188458443,0.005573981441557407,0.017027366906404495
1761370345940119000,9.604119140625,0.011606098152697086,0.012293301522731781,0.008475505746901035
1761370345958731000,9.62273095703125,0.011606098152697086,0.014736690558493137,-0.0032069480512291193
1761370345977341400,9.641341552734374,0.005497625097632408,-0.0011453386396169662,-0.01725643500685692
1761370345995953400,9.659953369140625,-0.006108472589403391,-0.015805672854185104,-0.028251685202121735
1761370346014563800,9.678563720703124,-0.017714571207761765,-0.009697199799120426,-0.022754060104489326
1761370346033175800,9.69717578125,-0.023823043331503868,0.007406522985547781,-0.008704573847353458
1761370346051786200,9.7157861328125,-0.023823043331503868,0.004963133949786425,0.015805672854185104
1761370346070398200,9.734398193359375,-0.021990500390529633,-0.004810422193259001,0.03229855000972748
1761370346089008400,9.75300830078125,-0.01588202826678753,-0.0029778804164379835,0.03229855000972748
1761370346107620600,9.77162060546875,-0.015271181240677834,-0.005421269219368696,0.012140588834881783
1761370346126230800,9.790230712890626,-0.010995250195264816,-0.0029778804164379835,0.0017561858985573053
1761370346144842800,9.8088427734375,0.006719320081174374,-0.0011453386396169662,0.0017561858985573053
1761370346163453200,9.827453125,0.01832541823387146,-0.006032116711139679,-0.008704573847353458
1761370346182065200,9.846065185546875,0.015271181240677834,-0.013973130844533443,-0.028251685202121735
1761370346200675600,9.864675537109376,0.00916270911693573,-0.012751436792314053,-0.02886253222823143
1761370346219287600,9.88328759765625,0.014660334214568138,-0.014583977870643139,-0.025197450071573257
1761370346237898000,9.90189794921875,0.012827792204916477,-0.0023670331574976444,-0.025808297097682953
1761370346256510000,9.920510009765625,0.0030542362947016954,0.00129805039614439,-0.022754060104489326
1761370346275120400,9.939120361328126,-0.0036650835536420345,-0.013362283818423748,-0.010537114925682545
1761370346293732400,9.957732421875,-0.006719320081174374,-0.01885990984737873,0.012140588834881783
1761370346312342500,9.976342529296875,-0.006108472589403391,-0.010918894782662392,0.021914144977927208
1761370346330954800,9.994954833984375,-0.01588202826678753,0.0031305921729654074,0.010308047756552696
1761370346349565000,10.01356494140625,-0.020157959312200546,-0.0011453386396169662,-0.0050394898280501366
1761370346368177000,10.032177001953125,-0.014049487188458443,-0.008475505746901035,-0.007482878863811493
1761370346386787300,10.050787353515625,-0.004886778071522713,-0.009697199799120426,-0.00259610079228878
1761370346405399300,10.0693994140625,0.0036650835536420345,-0.013973130844533443,-0.001985253533348441
1761370346424009700,10.088009765625,-0.0012216945178806782,-0.012140588834881783,-0.0068720318377017975
1761370346442621700,10.10662158203125,0.0030542362947016954,-0.010918894782662392,-0.006261184345930815
1761370346461232000,10.125232177734375,0.00916270911693573,0.00007635590736754239,-0.009315420873463154
1761370346479844000,10.143843994140624,0.011606098152697086,0.014125842601060867,-0.022754060104489326
1761370346498454500,10.16245458984375,0.007330167107284069,0.020845163613557816,-0.02214321307837963
1761370346517066500,10.18106640625,0.016492875292897224,0.011682453565299511,-0.0038177953101694584
1761370346535677000,10.199677001953125,0.026877280324697495,0.00862821750342846,0.0035887276753783226
1761370346554289000,10.218288818359374,0.02993151545524597,0.00862821750342846,-0.006261184345930815
1761370346572899000,10.236899169921875,0.02626643143594265,0.009239064529538155,-0.01725643500685692
1761370346591511300,10.25551123046875,0.025655584409832954,0.014736690558493137,-0.013591351918876171
1761370346610121500,10.27412158203125,0.031153209507465363,0.015347537584602833,-0.011147962883114815
1761370346628733400,10.2927333984375,0.02626643143594265,0.004963133949786425,-0.017867282032966614
1761370346647343900,10.31134375,0.026877280324697495,-0.0029778804164379835,-0.02092151902616024
1761370346665955800,10.329955810546876,0.03237490355968475,-0.0035887276753783226,-0.016034740954637527
1761370346684566300,10.348566162109375,0.033596597611904144,0.0031305921729654074,-0.014202198944985867
1761370346703178200,10.36717822265625,0.026877280324697495,0.005573981441557407,-0.009315420873463154
1761370346721788700,10.38578857421875,0.026877280324697495,0.0067956759594380856,-0.001374406274408102
1761370346740400600,10.404400634765626,0.031153209507465363,0.0019088976550847292,-0.0050394898280501366
1761370346759011000,10.423010986328125,0.025655584409832954,-0.00786465872079134,-0.017867282032966614
1761370346777623000,10.441623046875,0.020157959312200546,-0.005421269219368696,-0.02092151902616024
1761370346796233200,10.460233154296875,0.01588202826678753,-0.0035887276753783226,-0.027029991149902344
1761370346814845400,10.478845458984376,0.007941014133393764,-0.0005344913806766272,-0.014813045971095562
1761370346833455600,10.49745556640625,0.007330167107284069,0.0025197449140250683,0.017027366906404495
1761370346852067600,10.516067626953125,0.013438640162348747,-0.0017561858985573053,0.036574479192495346
1761370346870678000,10.534677978515624,0.014049487188458443,-0.00786465872079134,0.03229855000972748
1761370346889290000,10.5532900390625,0.011606098152697086,-0.006642963737249374,0.010308047756552696
1761370346907900400,10.571900390625,0.011606098152697086,-0.00786465872079134,-0.01969982497394085
1761370346926512400,10.590512451171875,0.01832541823387146,-0.005421269219368696,-0.0325276181101799
1761370346945122800,10.609122802734374,0.012827792204916477,-0.009697199799120426,-0.031916771084070206
1761370346963734800,10.62773486328125,0.0030542362947016954,-0.021914144977927208,-0.01847812905907631
1761370346982345200,10.64634521484375,-0.0036650835536420345,-0.0231358390301466,0.006032116711139679
1761370347000957200,10.664957275390625,-0.005497625097632408,-0.017027366906404495,0.03352024406194687
1761370347019567400,10.6835673828125,-0.008551862090826035,-0.012140588834881783,0.044515494257211685
1761370347038179600,10.7021796875,-0.010995250195264816,-0.0029778804164379835,0.03840702027082443
1761370347056789800,10.720789794921876,-0.00916270911693573,0.009239064529538155,0.018249060958623886
1761370347075401700,10.739401611328125,-0.0012216945178806782,0.020845163613557816,-0.0038177953101694584
1761370347094012200,10.75801220703125,0.006719320081174374,0.009239064529538155,-0.015423892997205257
1761370347112624000,10.7766240234375,0.005497625097632408,0.00129805039614439,0.009697199799120426
1761370347131234600,10.795234619140626,0.0024433890357613564,0.0025197449140250683,0.03352024406194687
1761370347149846500,10.813846435546875,-0.020157959312200546,0.007406522985547781,0.05306735634803772
1761370347168457000,10.83245703125,-0.02993151545524597,0.004963133949786425,0.05978667363524437
1761370347187069000,10.85106884765625,-0.0390942245721817,0.014125842601060867,0.0561215914785862
1761370347205679400,10.869679443359376,-0.04337015375494957,0.026342788711190224,0.04085041210055351
1761370347224291300,10.888291259765625,-0.03542914241552353,0.014736690558493137,0.029855160042643547
1761370347242901800,10.90690185546875,-0.026877280324697495,-0.0164165198802948,0.03474193811416626
1761370347261513700,10.925513671875,-0.008551862090826035,-0.01763821393251419,0.01763821393251419
1761370347280124200,10.944124267578125,0.0036650835536420345,0.006184828467667103,-0.001985253533348441
1761370347298736000,10.962736083984375,0.0030542362947016954,0.02145601063966751,-0.023975754156708717
1761370347317346600,10.9813466796875,-0.007330167107284069,0.01779092662036419,-0.0325276181101799
1761370347335958500,10.99995849609375,-0.015271181240677834,0.0019088976550847292,-0.022754060104489326
1761370347354568700,11.018568603515625,-0.011606098152697086,-0.0029778804164379835,-0.022754060104489326
