time,seconds_elapsed,z,y,x
1761371295426081500,0.20808154296875,0.025997161865234375,-0.022308170795440674,-0.017930656671524048
1761371295444692700,0.226692626953125,0.023637771606445312,-0.02130138874053955,-0.041032642126083374
1761371295463305200,0.24530517578125,-0.0067691802978515625,-0.01729416847229004,-0.020563095808029175
1761371295481916400,0.26391650390625,-0.0022754669189453125,-0.031180262565612793,-0.0646144449710846
1761371295500529000,0.28252880859375,0.0025196075439453125,-0.040007591247558594,0.003347247838973999
1761371295519139800,0.301139892578125,0.011287689208984375,-0.047706007957458496,0.022168487310409546
1761371295537752600,0.319752685546875,0.03046894073486328,-0.035423219203948975,0.016616404056549072
1761371295556363500,0.338363525390625,0.018707275390625,-0.026336073875427246,-0.0010129809379577637
1761371295574976000,0.35697607421875,0.00824737548828125,-0.012964129447937012,-0.0334298312664032
1761371295593587200,0.375587158203125,-0.0014142990112304688,-0.006899774074554443,-0.03217855095863342
1761371295612199700,0.39419970703125,0.012224197387695312,0.000504910945892334,-0.0123501718044281
1761371295630811000,0.412810791015625,0.013795852661132812,0.005101203918457031,-0.000789940357208252
1761371295649423400,0.43142333984375,0.0036716461181640625,0.004877746105194092,-0.011605232954025269
1761371295668034600,0.45003466796875,-0.01256561279296875,0.014639675617218018,0.01094520092010498
1761371295686647000,0.46864697265625,0.00884246826171875,0.030295193195343018,-0.0364014208316803
1761371295705258000,0.487258056640625,0.03603553771972656,0.03792917728424072,-0.020310312509536743
1761371295723870700,0.50587060546875,0.05516242980957031,0.04122960567474365,0.022896885871887207
1761371295742481700,0.524481689453125,0.052613258361816406,0.01380831003189087,-0.02807345986366272
1761371295761094400,0.543094482421875,0.027085304260253906,-0.040385425090789795,-0.005135893821716309
1761371295779705300,0.561705322265625,-0.011195182800292969,-0.047706425189971924,0.035997629165649414
1761371295798317800,0.58031787109375,-0.033850669860839844,-0.04254758358001709,0.03534454107284546
1761371295816929000,0.598928955078125,-0.0024251937866210938,-0.0352475643157959,0.02733519673347473
1761371295835541500,0.61754150390625,0.039524078369140625,-0.0382843017578125,0.002671748399734497
1761371295854152700,0.636152587890625,0.056548118591308594,-0.01859337091445923,-0.047711580991744995
1761371295872765200,0.65476513671875,0.04052448272705078,0.006870150566101074,-0.06214389204978943
1761371295891376400,0.67337646484375,-0.0074291229248046875,0.033814072608947754,-0.06507575511932373
1761371295909988900,0.69198876953125,-0.035114288330078125,0.041836559772491455,-0.04007115960121155
1761371295928599800,0.710599853515625,-0.03630542755126953,0.033893465995788574,-0.02280488610267639
1761371295947212500,0.729212646484375,-0.023453712463378906,0.02243173122406006,0.021939635276794434
1761371295965823500,0.747823486328125,0.045166969299316406,0.017906248569488525,-0.02185577154159546
1761371295984436200,0.766436279296875,0.0668191909790039,-0.03456073999404907,-0.015395551919937134
1761371296003047200,0.785047119140625,0.043387413024902344,-0.045514464378356934,-0.02576899528503418
1761371296021659600,0.80365966796875,0.018712997436523438,-0.0345115065574646,-0.056862831115722656
1761371296040270800,0.822270751953125,-0.009853363037109375,-0.015137851238250732,-0.028061002492904663
1761371296058883300,0.84088330078125,-0.027986526489257812,-0.006003081798553467,0.0005348622798919678
1761371296077494500,0.85949462890625,-0.022150039672851562,0.008532345294952393,0.021778196096420288
1761371296096107000,0.87810693359375,0.0021038055419921875,-0.004396677017211914,0.03359833359718323
1761371296114718200,0.89671826171875,0.011407852172851562,0.011808037757873535,0.025085121393203735
1761371296133330700,0.91533056640625,0.04596996307373047,0.022790372371673584,0.02409493923187256
1761371296151941600,0.933941650390625,0.06528663635253906,0.0391312837600708,0.02923297882080078
1761371296170554400,0.952554443359375,0.013881683349609375,0.025823891162872314,0.02055424451828003
1761371296189165300,0.971165283203125,-0.030908584594726562,0.0186995267868042,0.00004363059997558594
1761371296207778000,0.989778076171875,-0.031856536865234375,0.015406489372253418,-0.013309687376022339
1761371296226389000,1.008388916015625,0.011397361755371094,-0.01580679416656494,-0.006095975637435913
1761371296245001700,1.027001708984375,0.04604339599609375,-0.03821837902069092,0.01540684700012207
1761371296263612700,1.04561279296875,0.0512542724609375,-0.05228531360626221,0.038755595684051514
1761371296282225400,1.064225341796875,0.01651477813720703,-0.04551953077316284,0.04875722527503967
1761371296300836400,1.08283642578125,-0.03081512451171875,-0.032837510108947754,0.04199451208114624
1761371296319448800,1.10144873046875,-0.020363807678222656,-0.02075284719467163,0.0346408486366272
1761371296338060000,1.12006005859375,0.008511543273925781,-0.0012677907943725586,-0.022027283906936646
1761371296356672500,1.138672607421875,0.04330253601074219,0.0001385807991027832,-0.037228405475616455
1761371296375283700,1.15728369140625,0.030356407165527344,-0.011404216289520264,-0.024373501539230347
1761371296393896200,1.175896240234375,0.01993274688720703,-0.0024603605270385742,-0.03094583749771118
1761371296412507400,1.19450732421875,0.0054168701171875,0.02220737934112549,-0.02333611249923706
1761371296431120000,1.213119873046875,-0.0063762664794921875,0.02800530195236206,-0.018781334161758423
1761371296449730800,1.231730712890625,-0.017668724060058594,0.02968055009841919,-0.015794605016708374
1761371296468343600,1.250343505859375,-0.0053462982177734375,0.0316808819770813,-0.01836371421813965
1761371296486954500,1.26895458984375,0.02527618408203125,0.005589008331298828,-0.020493805408477783
1761371296505567200,1.287567138671875,0.02209186553955078,-0.005782008171081543,-0.011767268180847168
1761371296524178200,1.30617822265625,-0.0019426345825195312,-0.007640480995178223,-0.003559708595275879
1761371296542791000,1.324791015625,-0.0017576217651367188,-0.016315162181854248,0.007139861583709717
1761371296561401900,1.34340185546875,0.012422561645507812,-0.024289369583129883,0.011394619941711426
1761371296580014300,1.362014404296875,0.021404266357421875,-0.013510346412658691,0.0016234517097473145
1761371296598625500,1.38062548828125,0.02300739288330078,-0.008491456508636475,-0.0030855536460876465
1761371296617238000,1.399238037109375,0.0034093856811523438,-0.015127301216125488,-0.004201054573059082
1761371296635849200,1.41784912109375,-0.02228260040283203,-0.027586638927459717,0.0007021427154541016
1761371296654461700,1.436461669921875,-0.007412910461425781,-0.013599157333374023,0.0070295631885528564
1761371296673073000,1.455072998046875,0.03024768829345703,0.01039588451385498,0.013647407293319702
1761371296691685400,1.473685302734375,0.022032737731933594,0.022983193397521973,0.03987610340118408
1761371296710296300,1.49229638671875,0.00033473968505859375,0.007334887981414795,0.040451258420944214
1761371296728909000,1.510908935546875,-0.011358261108398438,-0.0022166967391967773,0.023636162281036377
1761371296747520000,1.52952001953125,-0.006239891052246094,-0.0015143156051635742,-0.006023585796356201
1761371296766132700,1.5481328125,0.000965118408203125,0.022588253021240234,0.0008350908756256104
1761371296784743700,1.56674365234375,0.010138511657714844,0.038353562355041504,0.0059268176555633545
1761371296803356400,1.5853564453125,0.016599655151367188,0.022407352924346924,0.007329195737838745
1761371296821967400,1.60396728515625,0.02046489715576172,-0.018540918827056885,-0.0005030035972595215
1761371296840580000,1.622580078125,-0.012958526611328125,-0.022874176502227783,-0.02303728461265564
1761371296859191000,1.64119091796875,0.0061435699462890625,-0.031378746032714844,-0.03597593307495117
1761371296877803500,1.659803466796875,-0.008051872253417969,-0.04205232858657837,-0.024416953325271606
1761371296896414700,1.678414794921875,-0.012529373168945312,-0.04774826765060425,0.013413697481155396
1761371296915027200,1.697027099609375,-0.014374732971191406,-0.034050703048706055,0.009422987699508667
1761371296933638400,1.715638427734375,0.009569168090820312,0.0025771260261535645,0.019720911979675293
1761371296952251000,1.7342509765625,0.016126632690429688,0.04003560543060303,0.025075048208236694
1761371296970862000,1.752862060546875,0.013292312622070312,0.050199270248413086,0.011591017246246338
1761371296989474600,1.771474609375,0.015164375305175781,0.02991509437561035,-0.01901179552078247
1761371297008085500,1.79008544921875,0.009931564331054688,0.01942676305770874,-0.00866079330444336
1761371297026698200,1.8086982421875,0.0026035308837890625,0.019267916679382324,-0.0022094547748565674
1761371297045309200,1.82730908203125,0.000244140625,0.007857084274291992,-0.005086541175842285
1761371297063922000,1.845921875,-0.002101898193359375,0.014848172664642334,-0.0058476924896240234
1761371297082532900,1.864532958984375,0.03778076171875,-0.042681872844696045,0.03360852599143982
1761371297101145600,1.8831455078125,0.02917003631591797,-0.0014750361442565918,0.0004443526268005371
1761371297119756500,1.901756591796875,-0.030246734619140625,0.056926190853118896,0.015566349029541016
1761371297138369000,1.920369140625,-0.033875465393066406,0.021971821784973145,0.01445963978767395
1761371297156980200,1.938980224609375,-0.0142364501953125,-0.02150416374206543,0.02106955647468567
1761371297175592700,1.9575927734375,-0.004302024841308594,-0.04415452480316162,0.01465076208114624
1761371297194204000,1.976203857421875,0.01679515838623047,-0.05255705118179321,-0.004920303821563721
1761371297212816400,1.99481640625,0.03018951416015625,-0.046278417110443115,-0.029398292303085327
1761371297231427600,2.013427490234375,0.03361320495605469,-0.009857892990112305,0.0006790459156036377
1761371297250040000,2.0320400390625,0.009045600891113281,0.015385270118713379,-0.009256243705749512
1761371297268651000,2.050651123046875,-0.0075969696044921875,0.023228824138641357,-0.029200315475463867
1761371297287263700,2.069263671875,-0.011781692504882812,0.032558560371398926,-0.020160555839538574
1761371297305874700,2.087874755859375,-0.022722244262695312,0.01687908172607422,-0.009310036897659302
1761371297324487400,2.1064873046875,-0.017189979553222656,-0.0029404163360595703,0.008514493703842163
1761371297343098400,2.125098388671875,0.016157150268554688,0.007408559322357178,0.016412556171417236
1761371297361710800,2.1437109375,0.0364990234375,0.03912442922592163,0.01993045210838318
1761371297380322000,2.162322021484375,0.014139175415039062,-0.017207622528076172,0.03611847758293152
1761371297398934500,2.1809345703125,-0.01896190643310547,-0.009996891021728516,-0.0012064576148986816
1761371297417545700,2.199545654296875,-0.02054309844970703,-0.01810777187347412,-0.02301087975502014
1761371297436158200,2.218158203125,0.0012769699096679688,-0.0072672367095947266,-0.008147507905960083
1761371297454769400,2.236769287109375,0.033812522888183594,0.01380157470703125,0.012230664491653442
1761371297473382000,2.2553818359375,0.032631874084472656,0.0011887550354003906,0.015691012144088745
1761371297491992800,2.273992919921875,-0.0013275146484375,0.005161464214324951,0.010125130414962769
1761371297510605600,2.29260546875,-0.008337020874023438,-0.007208824157714844,0.013760209083557129
1761371297529216500,2.311216552734375,-0.012841224670410156,-0.005105793476104736,0.01882869005203247
1761371297547829200,2.329829345703125,-0.0077266693115234375,-0.02165806293487549,0.009691238403320312
1761371297566440200,2.348440185546875,-0.014601707458496094,-0.03715592622756958,0.00439181923866272
1761371297585053000,2.367052978515625,-0.0001068115234375,-0.019210219383239746,-0.0021695494651794434
1761371297603664000,2.385663818359375,0.016082763671875,-0.00010639429092407227,0.02332937717437744
1761371297622276400,2.4042763671875,0.00606536865234375,0.006018519401550293,0.0456567108631134
1761371297640887600,2.422887451171875,-0.005932807922363281,0.009609818458557129,0.03535723686218262
1761371297659500000,2.4415,-0.012923240661621094,0.018503308296203613,-0.002369403839111328
1761371297678111200,2.460111328125,-0.01717090606689453,0.027856528759002686,-0.022833555936813354
1761371297696723700,2.4787236328125,0.009057998657226562,0.020734012126922607,-0.020176410675048828
1761371297715334700,2.497334716796875,0.025163650512695312,-0.0011948943138122559,-0.03413960337638855
1761371297733947400,2.515947509765625,0.02879810333251953,-0.002810955047607422,-0.028695911169052124
1761371297752558300,2.534558349609375,-0.01896953582763672,0.01146608591079712,-0.004749119281768799
1761371297771171000,2.553171142578125,-0.03692340850830078,0.010357916355133057,-0.010323882102966309
1761371297789782000,2.571781982421875,0.001842498779296875,0.010740876197814941,-0.00566980242729187
1761371297808394800,2.590394775390625,0.018129348754882812,-0.0024556517601013184,0.002656310796737671
1761371297827005700,2.609005615234375,0.008325576782226562,0.001154780387878418,-0.0019451379776000977
1761371297845618200,2.6276181640625,0.0012598037719726562,-0.011846959590911865,0.005641430616378784
1761371297864229400,2.6462294921875,-0.0009765625,-0.024506986141204834,-0.0014947056770324707
1761371297882841900,2.664841796875,-0.0032253265380859375,-0.03759753704071045,0.008741050958633423
1761371297901453000,2.683453125,-0.0008411407470703125,-0.034258365631103516,0.015600591897964478
1761371297920065500,2.7020654296875,0.015501976013183594,0.0035333633422851562,0.01951611042022705
1761371297938676500,2.720676513671875,0.01730632781982422,0.02383488416671753,0.026891618967056274
1761371297957289200,2.739289306640625,0.009706497192382812,0.015865445137023926,0.024836987257003784
1761371297975900200,2.757900146484375,-0.01629638671875,-0.004773199558258057,0.028930485248565674
1761371297994513000,2.776512939453125,-0.02501392364501953,-0.0033428072929382324,0.035363584756851196
1761371298013123800,2.795123779296875,0.008442878723144531,0.01371079683303833,0.019421309232711792
1761371298031736300,2.813736328125,0.026648521423339844,0.007906138896942139,0.012277483940124512
1761371298050347500,2.832347412109375,0.01863861083984375,0.013542532920837402,0.0002751946449279785
1761371298068960000,2.8509599609375,-0.012386322021484375,0.02397000789642334,0.008979648351669312
1761371298087571200,2.8695712890625,-0.01894855499267578,0.011369168758392334,0.023358076810836792
1761371298106183700,2.88818359375,-0.006679534912109375,-0.01638484001159668,-0.0014577209949493408
1761371298124795000,2.906794921875,-0.020536422729492188,-0.015466630458831787,-0.013607442378997803
1761371298143407400,2.925407470703125,-0.008119583129882812,-0.012418985366821289,-0.013216078281402588
1761371298162018300,2.944018310546875,0.034058570861816406,-0.0008051395416259766,-0.02590930461883545
1761371298180631000,2.962631103515625,0.032813072204589844,0.014829635620117188,-0.019660741090774536
1761371298199242000,2.981241943359375,0.00612640380859375,0.013482093811035156,-0.007460743188858032
1761371298217854700,2.999854736328125,-0.012823104858398438,-0.015604138374328613,0.0006127655506134033
1761371298236465700,3.018465576171875,-0.021697044372558594,-0.02644360065460205,-0.003712594509124756
1761371298255078100,3.037078125,-0.02321338653564453,-0.01763850450515747,-0.0038935840129852295
1761371298273689300,3.055689453125,0.007807731628417969,-0.018730878829956055,-0.0209256112575531
1761371298292301800,3.0743017578125,0.026213645935058594,-0.018412768840789795,-0.011321544647216797
1761371298320219600,3.1022197265625,-0.0031881332397460938,0.014032602310180664,-0.0006223320960998535
1761371298338830600,3.12083056640625,-0.007541656494140625,0.006749093532562256,0.03222513198852539
1761371298357443300,3.139443359375,0.004253387451171875,0.007263541221618652,0.02770182490348816
1761371298376054300,3.15805419921875,0.001819610595703125,0.012143194675445557,0.014327794313430786
1761371298394667000,3.1766669921875,0.018143653869628906,0.014303863048553467,-0.0023863017559051514
1761371298413278000,3.19527783203125,0.017576217651367188,0.004045844078063965,0.0026242434978485107
1761371298431890400,3.213890380859375,0.00061798095703125,0.002917468547821045,0.012359648942947388
1761371298450501600,3.232501708984375,-0.013423919677734375,0.009057879447937012,0.011535167694091797
1761371298469114000,3.251114013671875,-0.006028175354003906,0.029267430305480957,0.00954386591911316
1761371298487725000,3.26972509765625,0.0009927749633789062,0.02544349431991577,0.003672868013381958
1761371298506337800,3.288337890625,0.007939338684082031,0.026416301727294922,-0.011474251747131348
1761371298524948700,3.30694873046875,0.002941131591796875,0.004531443119049072,-0.019759535789489746
1761371298543561500,3.3255615234375,0.0076236724853515625,-0.03053957223892212,-0.010377585887908936
1761371298562172400,3.34417236328125,-0.0020875930786132812,-0.041362881660461426,-0.0011448264122009277
1761371298580785200,3.36278515625,-0.009106636047363281,-0.040352463722229004,0.011414051055908203
1761371298599396000,3.38139599609375,-0.00644683837890625,-0.025199592113494873,-0.008381277322769165
1761371298618008600,3.400008544921875,0.007662773132324219,-0.005854368209838867,-0.006379604339599609
1761371298636619800,3.418619873046875,0.014317512512207031,0.005746662616729736,-0.007957428693771362
1761371298655232300,3.437232177734375,-0.00009918212890625,0.010282933712005615,-0.006064295768737793
1761371298673843200,3.45584326171875,0.006993293762207031,0.019227564334869385,0.00030875205993652344
1761371298692456000,3.4744560546875,-0.009603500366210938,0.020927608013153076,0.005187660455703735
1761371298711067000,3.49306689453125,0.004665374755859375,0.020394623279571533,0.012742340564727783
1761371298729679600,3.5116796875,-0.009510040283203125,0.01545172929763794,0.030062764883041382
1761371298748290600,3.53029052734375,0.004874229431152344,0.0012741684913635254,0.037571072578430176
1761371298766903000,3.548903076171875,0.009370803833007812,-0.01737821102142334,0.02718701958656311
1761371298785514200,3.56751416015625,0.009038925170898438,0.003681182861328125,0.016302138566970825
1761371298804126700,3.586126708984375,-0.00766754150390625,-0.010890305042266846,0.01026308536529541
1761371298822737700,3.604737548828125,-0.0026655197143554688,-0.0011669397354125977,-0.011351257562637329
1761371298841350400,3.623350341796875,-0.004998207092285156,0.01530301570892334,-0.013370811939239502
1761371298859961300,3.64196142578125,0.007132530212402344,0.008054852485656738,-0.007054924964904785
1761371298878574000,3.660573974609375,-0.0025005340576171875,-0.010926008224487305,0.0008292198181152344
1761371298897185000,3.67918505859375,-0.011771202087402344,-0.013232111930847168,-0.0031856298446655273
1761371298915797800,3.6977978515625,0.0027418136596679688,0.0010166168212890625,-0.012495189905166626
1761371298934408700,3.71640869140625,0.01906585693359375,0.003161191940307617,-0.010433763265609741
1761371298953021200,3.735021240234375,0.01853656768798828,0.009535610675811768,0.00332757830619812
1761371298971632400,3.75363232421875,-0.0008935928344726562,0.013031005859375,0.007889539003372192
1761371298990244900,3.772244873046875,-0.024196624755859375,0.01439213752746582,0.018895387649536133
1761371299008855800,3.790855712890625,-0.03275775909423828,0.007044017314910889,-0.004059016704559326
1761371299027468500,3.809468505859375,-0.0151519775390625,-0.027268826961517334,-0.000604778528213501
1761371299046079500,3.82807958984375,-0.009901046752929688,-0.032429516315460205,0.002666771411895752
1761371299064692200,3.846692138671875,-0.00024700164794921875,-0.04238235950469971,0.0007717013359069824
1761371299083303200,3.86530322265625,0.01613330841064453,-0.024738311767578125,-0.008971959352493286
1761371299101915600,3.88391552734375,0.017831802368164062,-0.0062795281410217285,0.005399048328399658
1761371299120526800,3.90252685546875,-0.0014591217041015625,0.011290907859802246,0.014588356018066406
1761371299139139300,3.921139404296875,-0.02250957489013672,0.02410435676574707,0.012922346591949463
1761371299157750300,3.939750244140625,-0.012381553649902344,0.03502810001373291,0.0054565370082855225
1761371299176363000,3.958363037109375,-0.030672073364257812,0.036878883838653564,0.01906895637512207
1761371299194974000,3.976973876953125,-0.008597373962402344,0.020286262035369873,0.02195441722869873
1761371299213586700,3.995586669921875,0.01968860626220703,0.008934319019317627,0.005324959754943848
1761371299232197600,4.01419775390625,0.023644447326660156,-0.002563953399658203,-0.013187140226364136
1761371299250810000,4.03281005859375,0.001781463623046875,-0.0006668567657470703,-0.004267990589141846
1761371299269421300,4.05142138671875,-0.0006618499755859375,0.007701992988586426,-0.0007664859294891357
1761371299288033800,4.07003369140625,-0.009862899780273438,0.004601478576660156,-0.009193241596221924
1761371299306644700,4.088644775390625,-0.011900901794433594,-0.007410168647766113,-0.005009263753890991
1761371299325257500,4.107257568359375,-0.0045185089111328125,-0.021008074283599854,-0.008137524127960205
1761371299343868400,4.125868408203125,-0.013641357421875,-0.03399437665939331,-0.004352837800979614
1761371299362481200,4.144481201171875,-0.02478504180908203,-0.013989090919494629,0.01680678129196167
1761371299381092000,4.163092041015625,-0.005309104919433594,0.0007538199424743652,0.02529701590538025
1761371299399704800,4.181704833984375,0.018148422241210938,-0.005978822708129883,0.005773872137069702
1761371299418315800,4.200315673828125,0.02216053009033203,0.00829625129699707,-0.017028391361236572
1761371299436928300,4.21892822265625,0.0073909759521484375,0.01720869541168213,-0.028728395700454712
1761371299455539200,4.237539306640625,-0.018408775329589844,0.007024645805358887,-0.02198779582977295
1761371299474152000,4.25615185546875,-0.03887176513671875,-0.009930253028869629,0.008309900760650635
1761371299492763000,4.274762939453125,-0.023519515991210938,-0.025788068771362305,0.031050503253936768
1761371299511375600,4.293375732421875,0.0052509307861328125,-0.015656888484954834,0.027040183544158936
1761371299529986600,4.311986572265625,0.016760826110839844,-0.00878918170928955,0.020405858755111694
1761371299548599300,4.330599365234375,-0.011800765991210938,0.00976574420928955,0.0044342875480651855
1761371299567210200,4.349210205078125,-0.013733863830566406,0.015880703926086426,0.012737542390823364
1761371299585822700,4.36782275390625,-0.013257980346679688,-0.0010283589363098145,0.0023173093795776367
1761371299604433700,4.38643359375,-0.015062332153320312,0.008745193481445312,0.012731552124023438
1761371299623046400,4.40504638671875,-0.0051784515380859375,0.020804166793823242,0.009049087762832642
1761371299641657300,4.4236572265625,0.01611804962158203,0.011674463748931885,0.0177881121635437
1761371299660270000,4.44227001953125,0.01329803466796875,0.00026488304138183594,0.019226431846618652
1761371299678881000,4.460881103515625,-0.012966156005859375,0.0025495290756225586,0.020768821239471436
1761371299697493800,4.47949365234375,-0.003093719482421875,-0.009613335132598877,0.007937520742416382
1761371299716104700,4.498104736328125,0.0017881393432617188,0.009206235408782959,-0.014690667390823364
1761371299734717200,4.51671728515625,0.018128395080566406,0.02686893939971924,-0.004818618297576904
1761371299753328400,4.535328369140625,0.01730823516845703,0.03657853603363037,0.019479840993881226
1761371299771940900,4.55394091796875,-0.011343002319335938,0.006482362747192383,0.0313163697719574
1761371299790551800,4.5725517578125,-0.034394264221191406,-0.030752837657928467,0.02141287922859192
1761371299809164500,4.59116455078125,-0.026106834411621094,-0.04697149991989136,-0.0022277235984802246
1761371299827775500,4.609775390625,0.0027551651000976562,-0.035273849964141846,-0.022084355354309082
1761371299846388200,4.62838818359375,0.011982917785644531,-0.030057132244110107,-0.012682110071182251
1761371299864999200,4.646999267578125,0.018556594848632812,-0.04210996627807617,-0.030194520950317383
1761371299883612000,4.66561181640625,-0.0009059906005859375,-0.0140799880027771,-0.0322343111038208
1761371299902222800,4.684222900390625,-0.01956653594970703,0.018601953983306885,-0.001749873161315918
1761371299920835300,4.70283544921875,-0.009602546691894531,0.034532010555267334,-0.0019522309303283691
1761371299939446500,4.721446533203125,0.007061958312988281,0.033751606941223145,-0.008572489023208618
1761371299958059000,4.74005908203125,-0.004721641540527344,0.03304862976074219,-0.012497633695602417
1761371299976670200,4.758670166015625,0.004786491394042969,0.01335686445236206,-0.002925485372543335
1761371299995282700,4.77728271484375,0.0025768280029296875,0.01043546199798584,0.0024324655532836914
1761371300013893600,4.7958935546875,0.0047454833984375,0.027904987335205078,0.016180872917175293
1761371300032506400,4.81450634765625,-0.011675834655761719,0.02207726240158081,0.03446975350379944
1761371300051117300,4.833117431640625,-0.03925037384033203,0.005564570426940918,0.045917361974716187
1761371300069730000,4.85172998046875,-0.002765655517578125,-0.009562790393829346,0.020723044872283936
1761371300088341000,4.870341064453125,0.025404930114746094,0.008306145668029785,0.0014016926288604736
1761371300106953500,4.888953369140625,0.01987743377685547,-0.0011979937553405762,0.011672228574752808
1761371300125564700,4.907564697265625,-0.0018777847290039062,-0.02024233341217041,0.013230621814727783
1761371300144177200,4.92617724609375,-0.018201828002929688,-0.02205204963684082,0.016630440950393677
1761371300162788000,4.9447880859375,-0.01055145263671875,-0.020843923091888428,0.004205435514450073
1761371300181400800,4.96340087890625,0.015360832214355469,-0.010515213012695312,0.0029945671558380127
1761371300200011800,4.98201171875,0.02186870574951172,-0.0010413527488708496,0.00017690658569335938
1761371300218624500,5.00062451171875,-0.011608123779296875,0.003292262554168701,-0.006804555654525757
1761371300237235500,5.0192353515625,-0.015915870666503906,0.0030878186225891113,-0.009941965341567993
1761371300255848200,5.03784814453125,-0.0036897659301757812,0.010195553302764893,-0.01042523980140686
1761371300274459100,5.056459228515625,0.010412216186523438,-0.008542239665985107,0.0017573535442352295
1761371300293071600,5.075071533203125,0.0007419586181640625,-0.005852997303009033,0.015431791543960571
1761371300311682800,5.093682861328125,-0.011008262634277344,0.0037412047386169434,0.008919596672058105
1761371300330295300,5.11229541015625,-0.013033866882324219,0.02528560161590576,0.00629088282585144
1761371300348906200,5.13090625,-0.0031719207763671875,0.034935951232910156,-0.00941815972328186
1761371300367519000,5.14951904296875,0.0038890838623046875,0.01920408010482788,-0.005350619554519653
1761371300386130000,5.1681298828125,-0.0008497238159179688,-0.009493887424468994,-0.02641761302947998
1761371300404742700,5.18674267578125,0.00153350830078125,-0.019045710563659668,-0.00753098726272583
1761371300423353600,5.205353515625,0.02018260955810547,0.005537569522857666,-0.011327177286148071
1761371300441966300,5.22396630859375,0.040596961975097656,0.009237825870513916,-0.003341883420944214
1761371300460577300,5.242577392578125,-0.009691238403320312,0.010461390018463135,0.011258989572525024
1761371300479189800,5.261189697265625,-0.03248023986816406,-0.0013535022735595703,0.028690248727798462
1761371300497801000,5.279801025390625,-0.009967803955078125,-0.006621420383453369,0.03876090049743652
1761371300516413400,5.298413330078125,0.02089977264404297,0.005067706108093262,0.04592263698577881
1761371300535024400,5.3170244140625,0.013280868530273438,0.024985015392303467,0.020795702934265137
1761371300553637000,5.33563720703125,0.012844085693359375,0.01257479190826416,0.0006968677043914795
1761371300572248000,5.354248046875,0.00777435302734375,-0.016784369945526123,-0.021804094314575195
1761371300590860800,5.37286083984375,0.0005016326904296875,-0.03820240497589111,-0.04592183232307434
1761371300609471700,5.3914716796875,-0.008833885192871094,-0.02579885721206665,-0.03901529312133789
1761371300628084500,5.41008447265625,-0.012959480285644531,-0.029060423374176025,-0.02582383155822754
1761371300646695400,5.4286953125,0.015566825866699219,-0.04797804355621338,0.0075646936893463135
1761371300665308000,5.447307861328125,0.008150100708007812,-0.03609257936477661,0.021590977907180786
1761371300683919000,5.465919189453125,0.0009279251098632812,-0.013453423976898193,0.03262534737586975
1761371300702531600,5.484531494140625,0.007889747619628906,0.0034281015396118164,0.026183366775512695
1761371300721142500,5.503142578125,0.00042438507080078125,0.04238659143447876,0.007829487323760986
1761371300739755300,5.52175537109375,0.0026693344116210938,0.0497928261756897,-0.0004965364933013916
1761371300758366200,5.5403662109375,-0.011435508728027344,0.04125189781188965,-0.008122622966766357
1761371300776979000,5.55897900390625,0.0029363632202148438,0.024284183979034424,0.010439097881317139
1761371300795590000,5.57758984375,0.02149486541748047,0.021865546703338623,0.02816373109817505
1761371300814202600,5.59620263671875,0.015977859497070312,0.01185518503189087,0.026617377996444702
1761371300832813600,5.6148134765625,-0.014998435974121094,0.009101271629333496,0.011415451765060425
1761371300851426000,5.633426025390625,-0.03307628631591797,-0.0071637630462646484,0.0014689862728118896
1761371300870037200,5.652037353515625,-0.013349533081054688,0.0006765127182006836,0.0075206458568573
1761371300888649700,5.670649658203125,0.019781112670898438,-0.01550281047821045,0.009864091873168945
1761371300907260700,5.6892607421875,0.014428138732910156,-0.02232891321182251,0.014282912015914917
1761371300925873400,5.707873291015625,0.0163116455078125,-0.02845996618270874,0.003524303436279297
1761371300944484400,5.726484375,0.0018033981323242188,-0.017753779888153076,-0.014012783765792847
1761371300963097000,5.74509716796875,-0.01682567596435547,-0.016424357891082764,-0.013605475425720215
1761371300981708000,5.7637080078125,-0.0067920684814453125,-0.017840921878814697,-0.029123038053512573
1761371301000320800,5.78232080078125,0.01912975311279297,-0.010844111442565918,-0.029507607221603394
1761371301018931700,5.800931640625,0.03241539001464844,0.01168137788772583,-0.03886568546295166
1761371301037544200,5.819544189453125,0.0032644271850585938,0.02191835641860962,-0.0074346065521240234
1761371301056155400,5.8381552734375,-0.022478103637695312,0.012270927429199219,0.00005364418029785156
1761371301074768000,5.856767822265625,-0.01930999755859375,0.009045660495758057,0.0067713260650634766
1761371301093378800,5.87537890625,-0.004496574401855469,0.005978703498840332,0.02719464898109436
1761371301111991600,5.893991455078125,0.028281211853027344,-0.019740939140319824,0.03310394287109375
1761371301130602500,5.9126025390625,0.015468597412109375,-0.01831895112991333,0.034979432821273804
1761371301149215200,5.93121533203125,-0.01780223846435547,-0.012254595756530762,0.03473389148712158
1761371301167826200,5.949826171875,-0.024139404296875,0.006762564182281494,0.03384348750114441
1761371301186439000,5.96843896484375,-0.018731117248535156,-0.001965343952178955,0.03497079014778137
1761371301205049900,5.9870498046875,0.000553131103515625,0.0010697245597839355,0.008224278688430786
1761371301223662300,6.005662353515625,0.014489173889160156,0.010026633739471436,-0.0029009580612182617
1761371301242273500,6.0242734375,0.006850242614746094,0.013484835624694824,-0.007412761449813843
1761371301260886000,6.042885986328125,0.015905380249023438,0.005318999290466309,0.0006503760814666748
1761371301279497000,6.0614970703125,-0.014973640441894531,0.007142603397369385,0.009900301694869995
1761371301298109700,6.080109619140625,0.0019731521606445312,-7.748603820800781e-7,0.0010795295238494873
1761371301316720600,6.098720703125,0.011126518249511719,-0.013994812965393066,-0.01175612211227417
1761371301335333400,6.11733349609375,0.0012340545654296875,-0.028042078018188477,-0.005269289016723633
1761371301353944300,6.1359443359375,-0.026932716369628906,-0.034692466259002686,-0.00023558735847473145
1761371301372557000,6.15455712890625,0.00203704833984375,-0.029125094413757324,-0.022683143615722656
1761371301391168000,6.17316796875,0.029962539672851562,-0.019469261169433594,-0.01680019497871399
1761371301409780500,6.191780517578125,0.007951736450195312,0.012926697731018066,0.011931031942367554
1761371301428391700,6.2103916015625,-0.0040149688720703125,0.02830040454864502,0.026895076036453247
1761371301447004200,6.229004150390625,-0.013194084167480469,0.02068382501602173,-0.0010434389114379883
1761371301465615000,6.247614990234375,-0.015019416809082031,0.013612687587738037,0.00009340047836303711
1761371301484227800,6.266227783203125,0.013428688049316406,0.006420910358428955,0.00021764636039733887
1761371301502838800,6.2848388671875,0.003620147705078125,0.01046663522720337,0.01070597767829895
1761371301521451500,6.303451416015625,0.0011377334594726562,0.0023145675659179688,0.011201828718185425
1761371301540062500,6.3220625,-0.0035343170166015625,0.011030912399291992,-0.0009309351444244385
1761371301558675200,6.34067529296875,-0.0011005401611328125,0.008260488510131836,-0.002392321825027466
1761371301577286100,6.3592861328125,0.00356292724609375,0.003469228744506836,0.002737075090408325
1761371301595898600,6.377898681640625,-0.0058078765869140625,-0.012840569019317627,0.015733391046524048
1761371301614509800,6.396509765625,0.0013418197631835938,-0.0052887797355651855,0.01172947883605957
1761371301633122300,6.415122314453125,-0.003337860107421875,-0.019265949726104736,0.0206337571144104
1761371301651733200,6.433733154296875,-0.0009126663208007812,-0.030056416988372803,0.009534835815429688
1761371301670346000,6.452345947265625,-0.000988006591796875,0.0037077665328979492,0.004012763500213623
1761371301688957000,6.47095703125,0.024730682373046875,0.019579529762268066,-0.021106719970703125
1761371301707569700,6.489569580078125,0.01221466064453125,0.01588892936706543,-0.009934753179550171
1761371301726180600,6.5081806640625,-0.025493621826171875,0.008144676685333252,-0.01049816608428955
1761371301744793000,6.52679296875,-0.015242576599121094,0.0037773847579956055,-0.03312787413597107
1761371301763404300,6.545404296875,-0.0008020401000976562,0.013903141021728516,-0.02633330225944519
1761371301782016800,6.564016845703125,0.013156890869140625,-0.0021219849586486816,-0.016048192977905273
1761371301800628000,6.5826279296875,0.003391265869140625,-0.0017153620719909668,0.0034578442573547363
1761371301819240400,6.601240478515625,-0.001567840576171875,-0.012689650058746338,-0.004205584526062012
1761371301837851400,6.619851318359375,-0.008373260498046875,-0.001932382583618164,0.003771275281906128
1761371301856464100,6.638464111328125,-0.0033721923828125,0.017286241054534912,0.036303162574768066
1761371301875075000,6.657074951171875,0.017688751220703125,-0.011501491069793701,0.06260156631469727
1761371301893687800,6.675687744140625,0.0006799697875976562,-0.013950169086456299,0.03528940677642822
1761371301912298800,6.694298828125,-0.013327598571777344,0.003623068332672119,0.012019336223602295
1761371301930911200,6.7129111328125,-0.005755424499511719,0.009463906288146973,0.0018588006496429443
1761371301949522400,6.7315224609375,0.03182506561279297,0.033082664012908936,0.007796049118041992
1761371301968135000,6.750135009765625,0.02132129669189453,0.0197792649269104,0.0425436794757843
1761371301986745900,6.768745849609375,-0.009818077087402344,0.0044754743576049805,0.0461806058883667
1761371302005358600,6.787358642578125,0.0069751739501953125,-0.014144420623779297,0.004451274871826172
1761371302023969500,6.805969482421875,0.006754875183105469,-0.0234261155128479,0.00703662633895874
1761371302042582300,6.824582275390625,-0.0051593780517578125,-0.06046867370605469,0.003257542848587036
1761371302061193200,6.843193115234375,-0.028348922729492188,-0.05577737092971802,-0.005384922027587891
1761371302079805700,6.8618056640625,-0.0040264129638671875,-0.018591105937957764,-0.006647825241088867
1761371302098417000,6.8804169921875,0.01953887939453125,0.007585108280181885,-0.005276232957839966
1761371302117029400,6.899029296875,0.021225929260253906,0.018584370613098145,0.013714998960494995
1761371302135640300,6.917640380859375,-0.009860038757324219,0.017834961414337158,0.007403194904327393
1761371302154253000,6.936253173828125,-0.021129608154296875,0.01548224687576294,-0.022532492876052856
1761371302172864000,6.954864013671875,0.005303382873535156,0.0223921537399292,-0.03467860817909241
1761371302191476700,6.973476806640625,0.012052536010742188,0.028323590755462646,-0.029142111539840698
1761371302210087700,6.992087646484375,0.011549949645996094,0.01470571756362915,-0.00848737359046936
1761371302228700400,7.010700439453125,-0.0028705596923828125,0.010921597480773926,-0.002400994300842285
1761371302247311400,7.029311279296875,-0.0167694091796875,0.015174686908721924,-0.005267083644866943
1761371302265923800,7.047923828125,-0.011419296264648438,0.001157522201538086,-0.0038819313049316406
1761371302284535000,7.06653515625,0.003093719482421875,-0.003208935260772705,0.00415077805519104
1761371302303147500,7.0851474609375,0.01925945281982422,-0.01723933219909668,-0.012033432722091675
1761371302321758500,7.103758544921875,0.0000553131103515625,-0.012474238872528076,-0.014867901802062988
1761371302340371200,7.12237109375,-0.0023183822631835938,-0.005607128143310547,-0.009404093027114868
1761371302358982100,7.140982177734375,-0.00002384185791015625,0.00572580099105835,0.0006328821182250977
1761371302377595000,7.159594970703125,0.006987571716308594,0.01448899507522583,0.02600345015525818
1761371302396205800,7.178205810546875,0.0068035125732421875,0.007276654243469238,0.01027226448059082
1761371302414818300,7.196818359375,0.0042362213134765625,0.002697885036468506,0.019691437482833862
1761371302433429500,7.215429443359375,-0.012198448181152344,0.00755763053894043,0.014038801193237305
1761371302452042000,7.2340419921875,0.006720542907714844,-0.00912785530090332,0.008442431688308716
1761371302470653000,7.25265283203125,0.0040569305419921875,-0.011782586574554443,0.004263818264007568
1761371302489265700,7.271265625,-0.0078582763671875,-0.023790955543518066,0.016497701406478882
1761371302507876600,7.289876708984375,-0.009955406188964844,-0.021120965480804443,0.024128586053848267
1761371302526489300,7.3084892578125,-0.0027446746826171875,-0.011308848857879639,0.014999032020568848
1761371302545100300,7.327100341796875,0.011343955993652344,-0.0019679665565490723,0.004053443670272827
1761371302563712800,7.345712646484375,0.003814697265625,0.01632213592529297,-0.015370428562164307
1761371302582323700,7.36432373046875,-0.001148223876953125,-0.0007216334342956543,-0.0013931095600128174
1761371302600936400,7.3829365234375,-0.01755046844482422,0.015952885150909424,-0.0020508170127868652
1761371302619547400,7.40154736328125,-0.028539657592773438,0.02790248394012451,0.006814181804656982
1761371302638160100,7.42016015625,0.009878158569335938,-0.005112767219543457,-0.0070479512214660645
1761371302656771000,7.43877099609375,0.028069496154785156,-0.010054051876068115,-0.014982730150222778
1761371302675383800,7.4573837890625,0.020139694213867188,0.010189712047576904,-0.016399651765823364
1761371302693994800,7.475994873046875,0.021749496459960938,0.01381683349609375,-0.00096854567527771
1761371302712607200,7.494607177734375,-0.007040977478027344,0.031858205795288086,0.014566361904144287
1761371302731218400,7.513218505859375,-0.025400161743164062,0.012294173240661621,0.01204448938369751
1761371302749831000,7.531830810546875,0.0035839080810546875,-0.013544023036956787,0.018915146589279175
1761371302768441900,7.55044189453125,0.01727581024169922,-0.03199362754821777,0.02241036295890808
1761371302787054600,7.5690546875,-0.008917808532714844,-0.040928006172180176,0.0025988221168518066
1761371302805665500,7.58766552734375,-0.004000663757324219,-0.037547409534454346,0.002994745969772339
1761371302824278300,7.6062783203125,-0.010912895202636719,-0.024940848350524902,-0.0031818747520446777
1761371302842889200,7.62488916015625,0.0058460235595703125,-0.010051429271697998,-0.005315005779266357
1761371302861501700,7.643501708984375,0.003215789794921875,0.011039316654205322,0.009850800037384033
1761371302880113000,7.66211279296875,-0.0038862228393554688,0.019512295722961426,0.026122599840164185
1761371302898725400,7.680725341796875,-0.010935783386230469,0.009319603443145752,0.026232630014419556
1761371302917336300,7.69933642578125,-0.0036458969116210938,0.01633352041244507,-0.005411267280578613
1761371302935949000,7.717948974609375,0.01748180389404297,0.01116645336151123,-0.022077947854995728
1761371302954560000,7.73656005859375,0.026137351989746094,0.0003548264503479004,-0.004197567701339722
1761371302973172700,7.7551728515625,-0.00045680999755859375,-0.010171711444854736,0.009321838617324829
1761371302991783700,7.77378369140625,-0.026073455810546875,-0.010655641555786133,0.01449674367904663
1761371303010396200,7.792396240234375,-0.025239944458007812,0.006005764007568359,0.0239982008934021
1761371303029007000,7.811007080078125,0.0012598037719726562,0.020008087158203125,0.018590033054351807
1761371303047619800,7.829619873046875,0.01985454559326172,0.017134487628936768,0.002968400716781616
1761371303066230800,7.848230712890625,0.026185035705566406,0.007060587406158447,-0.017229944467544556
1761371303084843500,7.866843505859375,-0.007311820983886719,-0.00734865665435791,-0.02403596043586731
1761371303103454500,7.885454345703125,-0.027925491333007812,-0.011426389217376709,-0.01549479365348816
1761371303122067000,7.90406689453125,-0.015297889709472656,-0.005931437015533447,0.0044231116771698
1761371303140678100,7.92267822265625,0.020284652709960938,-0.0009608268737792969,0.0076292455196380615
1761371303159290600,7.94129052734375,0.028763771057128906,0.0031456947326660156,0.004575759172439575
1761371303177901800,7.95990185546875,0.013880729675292969,-0.004537761211395264,-0.0009094476699829102
1761371303196514300,7.978514404296875,-0.009891510009765625,-0.0066294074058532715,-0.0034463107585906982
1761371303215125200,7.997125244140625,-0.027997970581054688,0.0012593865394592285,-0.0017163753509521484
1761371303233738000,8.015738037109376,-0.010695457458496094,-0.00539475679397583,0.01744428277015686
1761371303252349000,8.034348876953125,0.008292198181152344,-0.00990217924118042,-0.0018775463104248047
1761371303270961400,8.05296142578125,0.02433490753173828,-0.00746685266494751,-0.007718682289123535
1761371303289572600,8.071572509765625,0.011880874633789062,-0.005299806594848633,-0.0021100640296936035
1761371303308185000,8.09018505859375,-0.004851341247558594,-0.005494832992553711,0.02233979105949402
1761371303326796000,8.108796142578125,-0.025674819946289062,-0.005242288112640381,0.012093186378479004
1761371303345408800,8.12740869140625,-0.010692596435546875,0.002466857433319092,0.0032436251640319824
1761371303364019700,8.146019775390625,-0.012765884399414062,0.03362828493118286,0.00017276406288146973
1761371303382632400,8.164632568359375,-0.0029811859130859375,0.047782957553863525,0.007911443710327148
1761371303401243400,8.183243408203126,0.018070220947265625,0.019599735736846924,0.028896093368530273
1761371303419856000,8.20185595703125,0.031375885009765625,0.012981832027435303,0.009517699480056763
1761371303438467000,8.220467041015626,0.018564224243164062,-0.0056282877922058105,-0.014439105987548828
1761371303457079600,8.23907958984375,0.015718460083007812,-0.02679973840713501,-0.028339117765426636
1761371303475690500,8.2576904296875,0.0035991668701171875,-0.0317765474319458,0.0024971961975097656
1761371303494303200,8.27630322265625,-0.012784957885742188,-0.0016197562217712402,0.026310354471206665
1761371303512914200,8.2949140625,-0.010009765625,0.0025560855865478516,0.016337871551513672
1761371303531526700,8.313526611328125,-0.02134418487548828,-0.006536543369293213,0.013661682605743408
1761371303550137900,8.332137939453125,-0.01820850372314453,-0.012492358684539795,-0.000016063451766967773
1761371303568750300,8.350750244140626,-0.001316070556640625,-0.016138017177581787,-0.007188588380813599
1761371303587361300,8.369361328125,0.015210151672363281,-0.020454764366149902,-0.013806581497192383
1761371303605974000,8.38797412109375,0.010067939758300781,-0.020481407642364502,-0.014101177453994751
1761371303624585000,8.4065849609375,0.00040149688720703125,0.0007722377777099609,0.007630735635757446
1761371303643197700,8.42519775390625,-0.013515472412109375,0.015359997749328613,0.018840491771697998
1761371303661808600,8.44380859375,-0.0036249160766601562,0.018123090267181396,0.021852314472198486
1761371303680421000,8.462421142578124,-0.0013027191162109375,0.010666191577911377,0.016084253787994385
1761371303699032000,8.481031982421875,0.012575149536132812,0.01410818099975586,-0.0015980005264282227
1761371303717644800,8.499644775390625,0.019023895263671875,0.014639198780059814,-0.008279561996459961
1761371303736255700,8.518255859375,0.0020895004272460938,0.006336867809295654,-0.016098976135253906
1761371303754868500,8.536868408203125,0.002033233642578125,0.003653585910797119,-0.019617050886154175
1761371303773479400,8.5554794921875,0.004498481750488281,0.0009104013442993164,0.004638582468032837
1761371303792092000,8.574091796875,-0.0073833465576171875,0.009701550006866455,0.02442106604576111
1761371303810703000,8.592703125,-0.030900001525878906,0.05382949113845825,0.007671743631362915
1761371303829315600,8.611315673828125,-0.04594230651855469,0.032262980937957764,0.033331483602523804
1761371303847926500,8.629926513671874,0.004492759704589844,-0.024310171604156494,0.02045634388923645
1761371303866539300,8.648539306640625,0.03216075897216797,-0.04556089639663696,0.010516941547393799
1761371303885150200,8.667150146484374,0.045169830322265625,-0.025525331497192383,-0.018038392066955566
1761371303903763000,8.685762939453125,0.015380859375,0.027445554733276367,-0.014838367700576782
1761371303922374000,8.704373779296875,-0.05067634582519531,0.013569295406341553,0.03129720687866211
1761371303940986400,8.722986328125,-0.06304931640625,-0.004380643367767334,0.046343445777893066
1761371303959597300,8.741597412109375,-0.00033855438232421875,0.003531515598297119,0.03574693202972412
1761371303978210000,8.7602099609375,0.07435417175292969,-0.049422502517700195,-0.015235185623168945
1761371303996821000,8.778821044921875,0.053134918212890625,-0.0543360710144043,-0.03838026523590088
1761371304015433700,8.797433837890624,0.020948410034179688,-0.004609644412994385,-0.016742587089538574
1761371304034044700,8.816044677734375,-0.021920204162597656,0.014913022518157959,0.0108603835105896
1761371304052657200,8.8346572265625,-0.06803417205810547,0.02484142780303955,0.04118266701698303
1761371304071268000,8.85326806640625,-0.05173683166503906,0.030939161777496338,0.023442625999450684
1761371304089880800,8.871880859375,0.015444755554199219,0.012612104415893555,0.014269053936004639
1761371304108491800,8.89049169921875,0.07552909851074219,0.009154677391052246,0.0017462372779846191
1761371304127104500,8.9091044921875,0.061158180236816406,0.046801745891571045,-0.04129067063331604
1761371304145715500,8.927715576171876,0.0052947998046875,-0.006806492805480957,-0.008032411336898804
1761371304164328000,8.946327880859375,-0.06488704681396484,-0.045174241065979004,-0.01294940710067749
1761371304182939000,8.96493896484375,-0.06262016296386719,-0.028538644313812256,0.003639429807662964
1761371304201551600,8.983551513671875,-0.013675689697265625,0.013607800006866455,0.0006327629089355469
1761371304220162600,9.00216259765625,0.06369781494140625,0.03007209300994873,-0.017106473445892334
1761371304238775300,9.020775390625,0.05438995361328125,0.04217672348022461,0.013236939907073975
1761371304257386200,9.03938623046875,-0.02681255340576172,0.039880335330963135,0.024785280227661133
1761371304275998700,9.057998779296875,-0.06770992279052734,-0.009124457836151123,0.033031344413757324
1761371304294610000,9.07660986328125,-0.025694847106933594,-0.05103546380996704,0.019388288259506226
1761371304313222400,9.095222412109376,0.04529857635498047,-0.047974228858947754,-0.006904274225234985
1761371304331833300,9.113833251953125,0.05545997619628906,-0.03282761573791504,-0.027274280786514282
1761371304350446000,9.132446044921876,0.020833969116210938,-0.024266719818115234,-0.02270492911338806
1761371304369057000,9.15105712890625,-0.03806304931640625,-0.010944783687591553,-0.00010889768600463867
1761371304387669500,9.16966943359375,-0.043654441833496094,0.017719149589538574,0.005914628505706787
1761371304406280700,9.18828076171875,-0.01874542236328125,0.03267484903335571,0.02820494771003723
1761371304424893200,9.20689306640625,0.0076084136962890625,0.0193634033203125,0.03891098499298096
1761371304443504000,9.225504150390625,0.016645431518554688,-0.02448737621307373,0.039462536573410034
1761371304462116900,9.244116943359375,0.006711006164550781,-0.0373263955116272,0.03203776478767395
1761371304480727800,9.262727783203125,0.008837699890136719,-0.015404343605041504,0.016270071268081665
1761371304499340300,9.28134033203125,0.006272315979003906,0.03152477741241455,-0.021224379539489746
1761371304517951500,9.299951416015626,-0.0032815933227539062,0.055644452571868896,-0.027857959270477295
1761371304536564000,9.31856396484375,0.006252288818359375,0.05565595626831055,-0.014943301677703857
1761371304555175000,9.3371748046875,-0.012738227844238281,0.01868075132369995,-0.007962584495544434
1761371304573787600,9.35578759765625,-0.019194602966308594,-0.002157270908355713,0.002477884292602539
1761371304592398600,9.374398681640624,-0.011369705200195312,-0.02151256799697876,0.008309930562973022
1761371304611011000,9.393010986328125,0.012408256530761719,-0.03107762336730957,0.010763198137283325
1761371304629622300,9.411622314453124,0.028458595275878906,-0.02985769510269165,-0.00234299898147583
1761371304648234800,9.43023486328125,0.034409523010253906,-0.02705913782119751,-0.005208820104598999
1761371304666845700,9.448845703125,-0.013306617736816406,-0.016906380653381348,-0.010607749223709106
1761371304685458400,9.46745849609375,-0.03848743438720703,-0.011260807514190674,0.00258481502532959
1761371304704069400,9.4860693359375,-0.025305747985839844,-0.010084927082061768,0.006144970655441284
1761371304722681900,9.504681884765626,0.01752948760986328,-0.013921678066253662,0.009073793888092041
1761371304741293000,9.52329296875,0.021674156188964844,-0.006299197673797607,0.012350589036941528
1761371304759905500,9.541905517578124,0.009265899658203125,0.0008012652397155762,0.009724527597427368
1761371304778516500,9.5605166015625,-0.0026683807373046875,0.007951796054840088,0.003198385238647461
1761371304797129200,9.579129150390624,-0.023557662963867188,0.012650132179260254,-0.008201777935028076
1761371304815740200,9.597740234375,-0.011166572570800781,0.021697521209716797,-0.008794456720352173
1761371304834352600,9.6163525390625,0.00084686279296875,0.037099242210388184,0.01790010929107666
1761371304852963800,9.6349638671875,0.010107040405273438,0.028473079204559326,0.023744434118270874
1761371304871576300,9.653576416015625,0.005223274230957031,0.01132190227508545,0.016524910926818848
1761371304890187300,9.672187255859376,0.005138397216796875,-0.01640188694000244,0.00012946128845214844
1761371304908800000,9.690800048828125,-0.008940696716308594,-0.027007222175598145,-0.015322476625442505
1761371304927411000,9.709410888671876,-0.01789379119873047,-0.007149398326873779,-0.015449732542037964
1761371304946023400,9.7280234375,-0.005527496337890625,0.011611998081207275,-0.008358240127563477
1761371304964634600,9.746634521484374,0.013332366943359375,0.02948129177093506,-0.0019121170043945312
1761371304983247000,9.7652470703125,0.012823104858398438,0.03292733430862427,0.0056931376457214355
1761371305001858000,9.783858154296874,-0.0038852691650390625,0.0061650872230529785,0.023191452026367188
1761371305020470800,9.802470703125,-0.013065338134765625,-0.023835182189941406,0.019209235906600952
1761371305039081700,9.821081787109375,-0.024297714233398438,-0.04771840572357178,0.01250806450843811
1761371305057694200,9.839694091796876,-0.0025243759155273438,-0.05938619375228882,-0.015066862106323242
1761371305076305400,9.858305419921875,0.020789146423339844,-0.034303367137908936,-0.00955820083618164
1761371305094918000,9.87691796875,0.012948989868164062,-0.006559252738952637,-0.01669323444366455
1761371305113528800,9.89552880859375,-0.00144195556640625,0.022676169872283936,0.0064888596534729
1761371305132141600,9.9141416015625,-0.013115882873535156,0.0190122127532959,0.026708781719207764
1761371305150752500,9.93275244140625,-0.03129100799560547,0.02140897512435913,0.01220613718032837
1761371305169365000,9.951364990234374,-0.013987541198730469,0.005524098873138428,0.00633615255355835
1761371305187976200,9.96997607421875,0.014441490173339844,0.010496020317077637,-0.0031589865684509277
1761371305206588700,9.988588623046875,0.013925552368164062,0.012066423892974854,0.004085749387741089
1761371305225199600,10.00719970703125,-0.010004043579101562,0.029272735118865967,0.009799987077713013
1761371305243812000,10.02581201171875,-0.004962921142578125,0.02300715446472168,0.015884697437286377
1761371305262423300,10.04442333984375,-0.011815071105957031,0.019754648208618164,-0.0004229545593261719
1761371305281035800,10.063035888671875,-0.0067005157470703125,0.017287909984588623,-0.010447293519973755
1761371305299646700,10.081646728515626,-0.0042171478271484375,-0.0015379786491394043,-0.008431941270828247
1761371305318259500,10.100259521484375,0.007620811462402344,-0.03608042001724243,0.0065635740756988525
1761371305336870400,10.118870361328124,-0.009004592895507812,-0.05381494760513306,0.008490264415740967
1761371305355483000,10.13748291015625,-0.00634002685546875,-0.03626352548599243,0.007321000099182129
1761371305374094000,10.156093994140624,-0.00151824951171875,-0.014876186847686768,0.015191406011581421
1761371305392706600,10.17470654296875,-0.0015096664428710938,0.020077109336853027,0.022845953702926636
1761371305411317500,10.1933173828125,-0.0037527084350585938,0.014605522155761719,0.01767590641975403
1761371305429930200,10.21193017578125,-0.0013866424560546875,0.002866983413696289,0.00029584765434265137
1761371305448541200,10.230541259765625,-0.008339881896972656,-0.0012770295143127441,-0.0016997456550598145
1761371305467153700,10.249153564453126,0.005893707275390625,0.0012220144271850586,-0.012938171625137329
1761371305485764900,10.267764892578125,0.0055713653564453125,-0.008656620979309082,-0.025455504655838013
1761371305504377300,10.28637744140625,-0.008656501770019531,-0.004506051540374756,-0.016060441732406616
1761371305522988300,10.30498828125,-0.0013628005981445312,0.01367199420928955,0.0067736804485321045
1761371305541601000,10.32360107421875,0.005706787109375,0.022024810314178467,0.02036997675895691
1761371305560212000,10.3422119140625,0.0054149627685546875,0.00732576847076416,0.018133848905563354
1761371305578824400,10.360824462890625,0.0051708221435546875,0.0005242228507995605,-0.002136796712875366
1761371305597435600,10.379435546875,0.0026769638061523438,0.007889211177825928,-0.014949113130569458
1761371305616048000,10.398048095703125,-0.013681411743164062,0.031400859355926514,-0.03031858801841736
1761371305634659000,10.4166591796875,0.005347251892089844,0.020601212978363037,-0.002567976713180542
1761371305653271800,10.435271728515625,0.014398574829101562,-0.004300355911254883,0.03801491856575012
1761371305671882800,10.4538828125,0.0021266937255859375,-0.02594238519668579,0.04934540390968323
1761371305690495200,10.4724951171875,0.001983642578125,-0.01602989435195923,0.03823396563529968
1761371305709106400,10.4911064453125,-0.005177497863769531,-0.013251006603240967,-0.013926982879638672
1761371305727719000,10.509718994140625,-0.011969566345214844,-0.024233520030975342,-0.04961615800857544
1761371305746329900,10.528329833984374,-0.018613815307617188,-0.03475332260131836,-0.027640342712402344
1761371305764942600,10.546942626953125,-0.01323699951171875,-0.04282635450363159,0.012551933526992798
1761371305783553500,10.565553466796874,0.010442733764648438,-0.03755277395248413,0.03871068358421326
1761371305802166000,10.584166015625,0.028703689575195312,-0.004829108715057373,0.03859156370162964
1761371305820777200,10.602777099609375,0.015784263610839844,0.026639342308044434,0.02445170283317566
1761371305839389700,10.6213896484375,-0.0011415481567382812,0.05060535669326782,0.008778601884841919
1761371305858000600,10.640000732421875,-0.024702072143554688,0.037584662437438965,-0.009049385786056519
1761371305876613400,10.65861328125,-0.033603668212890625,0.028369426727294922,-0.008378863334655762
1761371305895224300,10.677224365234375,-0.008988380432128906,0.03972804546356201,-0.02512991428375244
1761371305913836800,10.6958369140625,0.024367332458496094,0.01661783456802368,-0.018403828144073486
1761371305932448000,10.714447998046875,0.03291797637939453,-0.004575788974761963,0.023020297288894653
1761371305951060500,10.733060546875,0.008386611938476562,-0.007146239280700684,0.03681287169456482
