time,seconds_elapsed,z,y,x
1761370601900756700,0.1857568359375,1.3060678243637085,-1.167252779006958,-1.0141592025756836
1761370601919367700,0.20436767578125,1.2852989435195923,0.20959696173667908,-1.8644585609436035
1761370601937980200,0.222980224609375,1.2083321809768677,1.2035218477249146,-2.891369104385376
1761370601956591400,0.24159130859375,1.2431504726409912,1.3977712392807007,-3.527872085571289
1761370601975203800,0.260203857421875,1.1661838293075562,0.7324821949005127,-3.871778964996338
1761370601993814800,0.278814697265625,0.7642462849617004,-0.6187118887901306,-4.0904622077941895
1761370602012427300,0.29742724609375,0.5381564497947693,-1.2344459295272827,-3.946913242340088
1761370602031038200,0.3160380859375,0.4446968138217926,-0.7482115626335144,-3.3391201496124268
1761370602049650700,0.334650634765625,0.5485408306121826,-0.34871742129325867,-2.4924094676971436
1761370602068262000,0.353261962890625,0.20646637678146362,0.271903395652771,-1.6836477518081665
1761370602086874400,0.371874267578125,-0.5937435626983643,0.530902624130249,-1.002553105354309
1761370602105485300,0.3904853515625,-0.7837170362472534,-0.18317782878875732,-0.8803836107254028
1761370602124097800,0.409097900390625,-0.9022213816642761,-0.8300650715827942,-0.8590039610862732
1761370602142708700,0.427708740234375,-0.8765658140182495,-1.0994486808776855,-0.8608365058898926
1761370602161321200,0.4463212890625,-0.7140804529190063,-0.9711707830429077,-0.7350019812583923
1761370602179932200,0.46493212890625,-0.41476529836654663,-0.28580015897750854,-0.2530434727668762
1761370602198545000,0.483544921875,-0.033596597611904144,0.4808131456375122,0.4079696238040924
1761370602217155800,0.50215576171875,0.16248537600040436,0.27679017186164856,0.7311078310012817
1761370602235768300,0.520768310546875,0.288930743932724,-0.32611608505249023,0.8587749004364014
1761370602254379300,0.539379150390625,0.18691925704479218,-0.7921925187110901,1.217953085899353
1761370602272991700,0.55799169921875,-0.006108472589403391,-0.7610393166542053,1.657763123512268
1761370602291602700,0.576602783203125,0.0659715011715889,-0.2803025245666504,1.8984369039535522
1761370602310215400,0.59521533203125,0.4477510452270508,0.3012240529060364,1.9980050325393677
1761370602328826400,0.613826416015625,0.9975899457931519,0.28839626908302307,1.9387528896331787
1761370602347438800,0.63243896484375,1.2443722486495972,-0.6077166795730591,1.9173731803894043
1761370602366049800,0.6510498046875,1.117926836013794,-1.346841812133789,1.847125768661499
1761370602384662300,0.669662353515625,0.7813500165939331,-1.6755540370941162,0.9406284093856812
1761370602403273200,0.688273193359375,0.5436540842056274,-1.6828842163085938,-0.5401417016983032
1761370602421886000,0.706885986328125,0.47890424728393555,-1.138542890548706,-1.9029419422149658
1761370602440497000,0.725496826171875,0.4312581717967987,-0.33955472707748413,-2.534558057785034
1761370602459109400,0.744109375,0.27854636311531067,0.1393495351076126,-2.4979071617126465
1761370602477720300,0.76272021484375,-0.14721418917179108,0.31893861293792725,-2.4698081016540527
1761370602496332800,0.781332763671875,-0.8900044560432434,-0.0017561858985573053,-2.6965088844299316
1761370602514943700,0.79994384765625,-1.740303874015808,-0.24365170300006866,-2.6200766563415527
1761370602533556200,0.81855615234375,-2.3891000747680664,0.1277434378862381,-2.423994541168213
1761370602552167400,0.83716748046875,-2.567467451095581,0.9426136612892151,-2.3122096061706543
1761370602570780000,0.85577978515625,-2.315187454223633,1.5455962419509888,-2.1075756549835205
1761370602589390800,0.874390869140625,-1.902178406715393,1.6188979148864746,-1.546207070350647
1761370602608003300,0.89300341796875,-1.656006932258606,1.2163496017456055,-0.9848384857177734
1761370602626614300,0.9116142578125,-1.461146593093872,0.5828246474266052,-0.5493044257164001
1761370602645226800,0.930226806640625,-1.1807677745819092,0.01779092662036419,-0.28725093603134155
1761370602663838000,0.948837890625,-0.911384105682373,-0.07200361788272858,-0.10949437320232391
1761370602682450400,0.967450439453125,-0.6878139972686768,0.2059318870306015,0.05978667363524437
1761370602701061400,0.986061279296875,-0.43919917941093445,0.6713975071907043,0.2247154414653778
1761370602719673900,1.004673828125,-0.3042019307613373,1.0043092966079712,0.334057092666626
1761370602738284800,1.023284912109375,-0.1960819661617279,1.1228135824203491,0.45439401268959045
1761370602756897500,1.0418974609375,-0.10934165865182877,1.054398775100708,0.6553627252578735
1761370602775508500,1.060508544921875,-0.18691925704479218,0.8473215103149414,0.9992697834968567
1761370602794121000,1.079120849609375,-0.42514967918395996,0.6335249543190002,1.467789649963379
1761370602812732000,1.09773193359375,-0.6975875496864319,0.4655419588088989,1.8214701414108276
1761370602831344400,1.116344482421875,-0.6890357136726379,0.3238253891468048,2.0480945110321045
1761370602849955600,1.13495556640625,-0.40132665634155273,-0.17645850777626038,2.018162965774536
1761370602868568000,1.153568115234375,-0.12705622613430023,-0.3334462344646454,1.9082105159759521
1761370602887179000,1.172178955078125,0.1820324808359146,0.13079766929149628,1.9851772785186768
1761370602905791500,1.19079150390625,0.29320669174194336,0.48875415325164795,2.0853562355041504
1761370602924402400,1.20940234375,0.2742704153060913,0.15950748324394226,2.1611013412475586
1761370602943015000,1.228014892578125,0.12583453953266144,-0.8410603404045105,1.861175298690796
1761370602961625900,1.2466259765625,-0.182643324136734,-2.036564826965332,0.7634826898574829
1761370602980238600,1.265238525390625,-0.32313820719718933,-2.2955639362335205,-0.8107470273971558
1761370602998849500,1.283849609375,0.2095206081867218,-1.1312127113342285,-2.0202245712280273
1761370603017462000,1.3024619140625,0.5919110178947449,0.23586340248584747,-2.5583810806274414
1761370603036073000,1.321072998046875,0.5131117105484009,0.47287213802337646,-2.537612199783325
1761370603054685400,1.339685546875,0.18691925704479218,-0.5515187382698059,-2.270672082901001
1761370603073296400,1.35829638671875,-0.053143709897994995,-1.5802618265151978,-1.9927364587783813
1761370603091909000,1.3769091796875,-0.16615045070648193,-1.882020354270935,-1.7990978956222534
1761370603110520000,1.39552001953125,-0.006108472589403391,-1.3224079608917236,-1.5449854135513306
1761370603129132500,1.414132568359375,0.13499724864959717,-0.3218401372432709,-1.2084085941314697
1761370603147743500,1.432743408203125,0.02870982140302658,0.2315874695777893,-0.8058602213859558
1761370603166356000,1.45135595703125,0.034818295389413834,0.20043425261974335,-0.43446511030197144
1761370603184967000,1.469966796875,0.15026842057704926,-0.13919681310653687,-0.2664821147918701
1761370603203579600,1.48857958984375,0.3243598937988281,-0.31267744302749634,-0.125987246632576
1761370603222190600,1.507190673828125,0.550373375415802,-0.10193513333797455,0.13980767130851746
1761370603240803000,1.525802978515625,0.7361472845077515,0.17172443866729736,0.47943875193595886
1761370603259414000,1.5444140625,0.794788658618927,0.2706816792488098,0.7366054654121399
1761370603278026500,1.563026611328125,0.6891120672225952,0.3103867769241333,0.8172372579574585
1761370603296637400,1.581637451171875,0.5839699506759644,0.45210331678390503,0.7964684963226318
1761370603315250200,1.600250244140625,0.5686988234519958,0.43561044335365295,0.7347729206085205
1761370603333861000,1.618861083984375,0.5790832042694092,0.4563792645931244,0.6797966361045837
1761370603352473600,1.6374736328125,0.49173203110694885,0.7025507092475891,0.7146149277687073
1761370603371084500,1.65608447265625,0.36223241686820984,0.9725452065467834,0.9931612610816956
1761370603389697000,1.674697021484375,0.3946073353290558,0.8833615183830261,1.2998065948486328
1761370603408308000,1.693307861328125,0.41537612676620483,0.4948626458644867,1.3572262525558472
1761370603426920700,1.711920654296875,0.3836120665073395,0.06360447406768799,1.2998065948486328
1761370603445531600,1.73053173828125,0.3524588644504547,-0.1862320601940155,1.4286954402923584
1761370603464144100,1.74914404296875,0.418430358171463,-0.3713187873363495,1.6137820482254028
1761370603482755000,1.767755126953125,0.22906772792339325,-0.6498651504516602,1.2155096530914307
1761370603501367600,1.786367431640625,-0.3023693859577179,-1.138542890548706,0.24731677770614624
1761370603519978500,1.804978515625,-0.9761339426040649,-1.6944903135299683,-1.3556227684020996
1761370603538591200,1.82359130859375,-1.1819894313812256,-0.8679376244544983,-3.559636116027832
1761370603557202200,1.8422021484375,-0.7574505805969238,1.625617265701294,-4.470409393310547
1761370603575814700,1.860814697265625,-0.7678350210189819,2.7013192176818848,-3.8186352252960205
1761370603594425600,1.879425537109375,-1.6731106042861938,0.7416449189186096,-2.703839063644409
1761370603613038000,1.8980380859375,-2.5045502185821533,-1.1635876893997192,-1.4179291725158691
1761370603631649000,1.91664892578125,-2.4770619869232178,-1.1580899953842163,-1.0404255390167236
1761370603650261800,1.93526171875,-1.780619740486145,-0.3053472638130188,-1.33912992477417
1761370603668872700,1.953872802734375,-1.1373976469039917,0.42217180132865906,-1.3818892240524292
1761370603687485200,1.972485107421875,-0.5491516590118408,0.5773270130157471,-1.1851963996887207
1761370603706096000,1.99109619140625,-0.13377554714679718,0.4514924883842468,-0.7808154821395874
1761370603724708600,2.00970849609375,0.07024743407964706,0.30305659770965576,-0.20661908388137817
1761370603743319600,2.028319580078125,0.3127537965774536,0.05566345527768135,0.39330926537513733
1761370603761932000,2.04693212890625,0.7013289928436279,0.14423631131649017,0.9852202534675598
1761370603780543200,2.065543212890625,1.0452359914779663,0.4667636752128601,1.0249253511428833
1761370603799155700,2.08415576171875,1.1521342992782593,0.5809921026229858,0.9528453946113586
1761370603817766700,2.1027666015625,1.076389193534851,0.6836144328117371,0.9876636862754822
1761370603836379100,2.121379150390625,0.9939248561859131,0.5602232813835144,1.1544249057769775
1761370603854990000,2.139989990234375,0.9145147204399109,0.2065427303314209,1.2173422574996948
1761370603873602600,2.1586025390625,0.9169580936431885,-0.03840702027082443,1.1037245988845825
1761370603892213800,2.1772138671875,0.9175689220428467,0.07887565344572067,0.9620080590248108
1761370603910826200,2.195826171875,0.9169580936431885,0.4441623091697693,1.0670738220214844
1761370603929437200,2.214437255859375,0.8308286070823669,0.868701159954071,1.4457991123199463
1761370603948049700,2.233049560546875,0.6976639032363892,0.920012354850769,1.6858620643615723
1761370603966660600,2.25166064453125,0.7422557473182678,0.5706077218055725,1.9534131288528442
1761370603985273000,2.270273193359375,0.8913025259971619,0.10758547484874725,2.3431336879730225
1761370604003884000,2.288884033203125,0.896189272403717,0.053830914199352264,2.537993907928467
1761370604022496800,2.307496826171875,0.7905126810073853,-0.02802261710166931,2.058478832244873
1761370604041107700,2.326107666015625,0.5540384650230408,-0.2503710091114044,0.8691592812538147
1761370604059720200,2.34472021484375,0.6988856196403503,-0.6309288740158081,-0.29946786165237427
1761370604078331100,2.3633310546875,0.9096279144287109,-1.343787670135498,-1.6121786832809448
1761370604096943600,2.381943603515625,0.6616239547729492,-1.6150801181793213,-2.960394859313965
1761370604115554600,2.400554443359375,0.25716668367385864,-0.7408813834190369,-3.3030800819396973
1761370604134167000,2.4191669921875,0.33352261781692505,-0.22105035185813904,-2.5583810806274414
1761370604152778200,2.4377783203125,0.609701931476593,-0.29496288299560547,-2.0959696769714355
1761370604171390700,2.456390625,0.4721849262714386,-0.23021306097507477,-2.26456356048584
1761370604190001700,2.475001708984375,-0.4715740978717804,-0.18501035869121552,-2.926187515258789
1761370604208614100,2.4936142578125,-1.1868761777877808,0.10025530308485031,-3.4661765098571777
1761370604227225000,2.51222509765625,-0.9229902029037476,0.35864371061325073,-3.0110952854156494
1761370604245837600,2.530837646484375,-0.07696675509214401,0.3219928741455078,-1.7135792970657349
1761370604264448500,2.549448486328125,0.6903337836265564,-0.2748049199581146,-0.049020491540431976
1761370604283061200,2.568061279296875,1.012250304222107,-1.0212602615356445,1.3639456033706665
1761370604301672200,2.586672119140625,1.0495119094848633,-1.5686557292938232,2.1788158416748047
1761370604320284700,2.60528466796875,1.1228135824203491,-1.6266862154006958,2.42559814453125
1761370604338895600,2.6238955078125,1.2443722486495972,-1.060354471206665,2.3351926803588867
1761370604357508000,2.642508056640625,1.3378318548202515,-0.0952158197760582,2.087799549102783
1761370604376119000,2.661119140625,1.4801592826843262,0.8063947558403015,2.015108823776245
1761370604394731500,2.6797314453125,1.6994534730911255,1.3971604108810425,2.101238250732422
1761370604413342700,2.6983427734375,2.054966449737549,1.4472498893737793,2.3687891960144043
1761370604431955200,2.716955078125,2.098947525024414,1.017137050628662,2.794015407562256
1761370604450566100,2.735566162109375,1.4850460290908813,0.21142950654029846,3.158691167831421
1761370604469178600,2.7541787109375,0.8558733463287354,-0.2546469569206238,3.3114030361175537
1761370604487789600,2.77278955078125,0.6897228956222534,-0.15691138803958893,3.1336464881896973
1761370604506402000,2.791402099609375,0.7251520752906799,-0.18012358248233795,2.385282278060913
1761370604525013000,2.810012939453125,0.6316924095153809,-0.23693238198757172,1.3321815729141235
1761370604543625700,2.828625732421875,0.5326588153839111,-0.11720632016658783,0.5478536486625671
1761370604562236700,2.847236572265625,0.5424323678016663,-0.3566584289073944,-0.362995982170105
1761370604580849200,2.86584912109375,0.2492256760597229,-0.5502970218658447,-1.7257962226867676
1761370604599460000,2.884460205078125,-0.006719320081174374,-0.04085041210055351,-2.738657236099243
1761370604618072600,2.903072509765625,-0.17897824943065643,1.0128611326217651,-2.9799420833587646
1761370604636683500,2.92168359375,-0.25777754187583923,1.4283136129379272,-2.7374355792999268
1761370604655296000,2.9402958984375,-0.12888877093791962,0.7520293593406677,-2.326259136199951
1761370604673907200,2.9589072265625,-0.17531315982341766,-0.593056321144104,-1.6463860273361206
1761370604692519700,2.977519775390625,-0.5082249045372009,-1.3089693784713745,-0.8339592218399048
1761370604711130600,2.996130615234375,-0.4569137394428253,-1.3627238273620605,-0.28786176443099976
1761370604729743000,3.0147431640625,-0.16737215220928192,-0.8642725348472595,-0.1656923145055771
1761370604748354000,3.03335400390625,-0.061084724962711334,-0.32733777165412903,-0.2695363461971283
1761370604766966500,3.051966552734375,-0.02993151545524597,-0.4220190942287445,-0.18279604613780975
1761370604785577500,3.070577392578125,0.18019993603229523,-0.7989118695259094,0.12331479042768478
1761370604804190000,3.08918994140625,0.6164212226867676,-0.9051992893218994,0.4879906177520752
1761370604822801200,3.10780126953125,0.9572740197181702,-0.8777111768722534,0.9870527982711792
1761370604841413600,3.12641357421875,0.9664367437362671,-0.8746569156646729,1.4757306575775146
1761370604860024600,3.145024658203125,0.7550835609436035,-0.9051992893218994,1.7353407144546509
1761370604878637000,3.163636962890625,0.5583143830299377,-0.852666437625885,1.781765103340149
1761370604897248000,3.182248046875,0.4679090082645416,-0.7427139282226562,1.8306329250335693
1761370604915860500,3.200860595703125,0.4220954477787018,-0.5594597458839417,1.911875605583191
1761370604934471700,3.2194716796875,0.3298575282096863,-0.28763270378112793,2.012665271759033
1761370604953084200,3.238084228515625,0.14843589067459106,0.014125842601060867,2.1641554832458496
1761370604971695000,3.256695068359375,-0.11117420345544815,0.005573981441557407,2.2618911266326904
1761370604990307600,3.2753076171875,-0.2883199155330658,-0.4751628041267395,2.3810062408447266
1761370605008918500,3.29391845703125,-0.4037700295448303,-1.0750148296356201,2.231348752975464
1761370605027531000,3.312531005859375,-0.39888325333595276,-1.3303489685058594,1.6803644895553589
1761370605046142000,3.331141845703125,-0.40193748474121094,-1.2258940935134888,1.1495381593704224
1761370605064754400,3.34975439453125,-0.4563029110431671,-0.7989118695259094,0.7543200254440308
1761370605083365600,3.36836572265625,-0.47890424728393555,-0.588780403137207,0.2124984860420227
1761370605101978000,3.38697802734375,-0.7488987445831299,-1.3230187892913818,-1.038593053817749
1761370605120589000,3.405589111328125,-0.9449806809425354,-1.1275477409362793,-2.2889974117279053
1761370605139201500,3.424201416015625,-0.9064973592758179,0.13751699030399323,-3.1295995712280273
1761370605157812500,3.4428125,-0.5540384650230408,1.372726559638977,-3.435023307800293
1761370605176425000,3.461425048828125,-0.07269082218408585,1.8131474256515503,-3.397761583328247
1761370605195036000,3.480035888671875,0.16737215220928192,1.565143346786499,-3.0758450031280518
1761370605213648400,3.4986484375,0.08796200156211853,0.8241093158721924,-2.537001371383667
1761370605232259600,3.517259521484375,-0.0916270911693573,-0.029855160042643547,-1.9609724283218384
1761370605250872000,3.5358720703125,-0.0794101431965828,-0.4470638334751129,-1.330578088760376
1761370605269483000,3.55448291015625,0.2858765125274658,-0.15263545513153076,-0.6769714951515198
1761370605288095500,3.573095458984375,0.9737668633460999,0.30427828431129456,-0.06306997686624527
1761370605306706400,3.59170654296875,1.7587056159973145,0.4264477491378784,0.5625139474868774
1761370605325319000,3.61031884765625,2.177135944366455,0.18882815539836884,1.1611442565917969
1761370605343929900,3.628929931640625,2.070237636566162,-0.20944425463676453,1.5526974201202393
1761370605362542300,3.647542236328125,1.6078263521194458,-0.4598916172981262,1.6082844734191895
1761370605381153500,3.666153564453125,1.119759440422058,-0.26075541973114014,1.3920445442199707
1761370605399766000,3.68476611328125,0.951776385307312,0.30183491110801697,1.190464973449707
1761370605418377000,3.703376953125,1.0305756330490112,0.7111025452613831,1.2228398323059082
1761370605436989400,3.721989501953125,1.098990559577942,0.854040801525116,1.4311387538909912
1761370605455600400,3.740600341796875,1.0598963499069214,0.7575269341468811,1.8709487915039062
1761370605474212900,3.759212890625,0.9377269148826599,0.5602232813835144,2.399942636489868
1761370605492823800,3.77782373046875,0.8186116814613342,0.1552315652370453,2.9027462005615234
1761370605511436300,3.796436279296875,0.6542937755584717,-0.27419406175613403,3.1079907417297363
1761370605530047500,3.815047607421875,0.43614494800567627,-0.4989858567714691,2.7439258098602295
1761370605548660000,3.833659912109375,0.17531315982341766,-0.7653152346611023,1.8587318658828735
1761370605567271000,3.85227099609375,-0.1960819661617279,-1.1550358533859253,0.6156576871871948
1761370605585883400,3.87088330078125,-0.34940463304519653,-0.8172372579574585,-0.5719057321548462
1761370605604494300,3.889494384765625,-0.46607646346092224,-0.6150468587875366,-1.9426469802856445
1761370605623106800,3.90810693359375,-0.6646018028259277,-0.054899897426366806,-3.3006367683410645
1761370605641717800,3.9267177734375,-0.7293516397476196,1.1044882535934448,-3.7496094703674316
1761370605660330200,3.945330322265625,-0.6603258848190308,1.455190896987915,-3.5058815479278564
1761370605678941200,3.963941162109375,-0.7550072073936462,0.4576009511947632,-2.9481780529022217
1761370605697554000,3.982553955078125,-0.9290986657142639,-1.5802618265151978,-2.4221620559692383
1761370605716164900,4.001164794921875,-0.9290986657142639,-2.670013427734375,-2.2871649265289307
1761370605734777300,4.01977734375,-0.5070032477378845,-1.2216181755065918,-2.3213722705841064
1761370605753388300,4.03838818359375,0.1844758689403534,0.8198333978652954,-2.204700469970703
1761370605772000800,4.057000732421875,0.8430455923080444,1.449082374572754,-1.8797297477722168
1761370605790611700,4.07561181640625,1.2498698234558105,0.8424347043037415,-1.2584980726242065
1761370605809224200,4.09422412109375,1.4416759014129639,-0.012751436792314053,-0.5022691488265991
1761370605827835100,4.112835205078125,1.7422127723693848,-0.3029038906097412,0.1483595222234726
1761370605846447900,4.13144775390625,1.9883841276168823,-0.25953373312950134,0.4238516390323639
1761370605865058800,4.150058837890625,1.9248560667037964,0.06116108223795891,0.4098021686077118
1761370605883671300,4.16867138671875,1.6292059421539307,0.3659738600254059,0.3426089584827423
1761370605902282200,4.1872822265625,1.5919443368911743,0.5254049897193909,0.4250733256340027
1761370605920894700,4.205894775390625,1.8662147521972656,0.5437304377555847,0.746379017829895
1761370605939505700,4.224505615234375,2.0800113677978516,0.4973060190677643,1.157479166984558
1761370605958118100,4.2431181640625,1.9877732992172241,0.405678927898407,1.2283375263214111
1761370605976729000,4.26172900390625,1.6982316970825195,0.3897969126701355,0.9650623202323914
1761370605995341800,4.280341796875,1.3268365859985352,0.2706816792488098,0.6938461065292358
1761370606013952800,4.298952880859375,0.8063947558403015,0.38307759165763855,0.6290963292121887
1761370606032565200,4.317565185546875,0.13866232335567474,0.6060368418693542,0.3823140263557434
1761370606051176200,4.33617626953125,-0.07452336698770523,0.8491540551185608,0.006032116711139679
1761370606069788700,4.35478857421875,0.05925218388438225,0.7349256277084351,-0.3483356535434723
1761370606088399600,4.373399658203125,0.16065283119678497,-0.0555107444524765,-0.5993938446044922
1761370606107012000,4.39201220703125,-0.17836740612983704,-1.0927294492721558,-1.2566654682159424
1761370606125623000,4.410623046875,-0.5515950918197632,-1.0860100984573364,-1.8351378440856934
1761370606144235500,4.429235595703125,-0.9462023973464966,-0.4067479074001312,-2.5883126258850098
1761370606162846700,4.4478466796875,-1.0671501159667969,0.2309766262769699,-2.943291187286377
1761370606181459200,4.466459228515625,-0.7000309824943542,0.4411080777645111,-2.5724306106567383
1761370606200070100,4.485070068359375,-0.2596100866794586,0.07643226534128189,-2.0373282432556152
1761370606218682600,4.5036826171875,-0.1301104724407196,-0.4330143630504608,-2.0880286693573
1761370606237293600,4.52229345703125,-0.2596100866794586,-0.4910448491573334,-2.2492923736572266
1761370606255906000,4.540906005859375,-0.546097457408905,-0.24853847920894623,-2.252957344055176
1761370606274517000,4.55951708984375,-0.569309651851654,0.19982340931892395,-1.8968334197998047
1761370606293129500,4.57812939453125,-0.1954711228609085,0.3995704650878906,-1.1155598163604736
1761370606311740400,4.596740478515625,0.42576053738594055,0.10819631814956665,-0.06123743951320648
1761370606330353000,4.615352783203125,0.974988579750061,-0.3474957346916199,1.032866358757019
1761370606348964000,4.633964111328125,1.1655728816986084,-0.6193227767944336,1.9320335388183594
1761370606367576600,4.65257666015625,0.9817079305648804,-0.6883485317230225,2.662606954574585
1761370606386187500,4.6711875,0.6261947751045227,-0.7176691889762878,3.283914804458618
1761370606404800000,4.689800048828125,0.3665083646774292,-0.8783220052719116,3.6864631175994873
1761370606423411000,4.708410888671875,0.24678228795528412,-1.0762364864349365,3.6809656620025635
1761370606442023400,4.7270234375,0.1429382562637329,-1.0737931728363037,3.465336561203003
1761370606460634400,4.74563427734375,-0.1459924876689911,-0.9302440285682678,3.190455198287964
1761370606479246800,4.764246826171875,-0.7116370797157288,-1.0805124044418335,2.759807825088501
1761370606497857800,4.78285791015625,-1.336533784866333,-1.4904673099517822,2.1317806243896484
1761370606516470500,4.801470458984375,-1.5991981029510498,-1.8099404573440552,1.5307068824768066
1761370606535081500,4.82008154296875,-1.4648116827011108,-1.6401249170303345,1.3853251934051514
1761370606553694000,4.83869384765625,-1.2100883722305298,-0.666968822479248,1.184356451034546
1761370606572305000,4.857304931640625,-1.0928057432174683,0.38002336025238037,0.061619218438863754
1761370606590917400,4.87591748046875,-0.5906893014907837,0.47714805603027344,-1.2462811470031738
1761370606609528300,4.8945283203125,0.2583884000778198,-0.16363070905208588,-2.3476388454437256
1761370606628140800,4.913140869140625,0.6823927164077759,-0.010918894782662392,-3.337287664413452
1761370606646751700,4.931751708984375,0.518609344959259,0.7098808884620667,-3.1851866245269775
1761370606665364200,4.9503642578125,0.3243598937988281,0.8216659426689148,-2.2352428436279297
1761370606683975400,4.968975341796875,-0.04581354558467865,0.022066857665777206,-1.2847645282745361
1761370606702588000,4.987587890625,-0.5705313682556152,-1.0902860164642334,-0.862669050693512
1761370606721198800,5.00619873046875,-0.6603258848190308,-1.2888113260269165,-1.0123265981674194
1761370606739811300,5.024811279296875,-0.2510582208633423,-0.5454102754592896,-1.0709679126739502
1761370606758422300,5.04342236328125,0.3396310806274414,0.0880383625626564,-1.0538642406463623
1761370606777034800,5.06203466796875,0.7911235690116882,-0.05184566229581833,-1.1436587572097778
1761370606795645700,5.080645751953125,0.8259418606758118,-0.5954996943473816,-1.0831849575042725
1761370606814258200,5.099258056640625,0.6164212226867676,-0.514867901802063,-0.6378772258758545
1761370606832869000,5.117869140625,0.7495859265327454,-0.04756972938776016,-0.14797775447368622
1761370606851481600,5.136481689453125,1.0837193727493286,0.2205922156572342,0.2271588295698166
1761370606870092800,5.1550927734375,1.2034454345703125,0.32932302355766296,0.5802285671234131
1761370606888705300,5.173705322265625,1.2388745546340942,0.35620030760765076,0.8502230048179626
1761370606907316200,5.192316162109375,1.2510915994644165,0.6029825806617737,1.1495381593704224
1761370606925928700,5.2109287109375,1.2969050407409668,1.1081533432006836,1.5026079416275024
1761370606944539600,5.22953955078125,1.4832135438919067,1.5083346366882324,1.7463359832763672
1761370606963152100,5.248152099609375,1.4935978651046753,1.8589608669281006,2.0450403690338135
1761370606981763000,5.26676318359375,1.3866996765136719,1.7771073579788208,2.1122334003448486
1761370607000375600,5.28537548828125,0.9774319529533386,0.9859838485717773,2.165377140045166
1761370607018986500,5.303986572265625,0.4343124032020569,0.09842276573181152,2.22951602935791
1761370607037599000,5.322598876953125,-0.04825693368911743,-0.13064496219158173,2.3370251655578613
1761370607056210000,5.3412099609375,-0.3243598937988281,-0.3187859058380127,2.6064088344573975
1761370607074822700,5.35982275390625,0.033596597611904144,-0.13980767130851746,2.2331812381744385
1761370607093433600,5.37843359375,0.38544461131095886,-0.17157171666622162,1.5581949949264526
1761370607112046000,5.397046142578125,0.45447036623954773,-0.13125580549240112,0.5130353569984436
1761370607130657000,5.415656982421875,0.45141613483428955,0.46004435420036316,-0.705681324005127
1761370607149269500,5.43426953125,0.5473191738128662,0.9481112957000732,-1.2261232137680054
1761370607167880400,5.45288037109375,0.4477510452270508,0.8833615183830261,-1.3079767227172852
1761370607186493000,5.471492919921875,0.07452336698770523,0.13629528880119324,-1.080130696296692
1761370607205103900,5.490103759765625,-0.3903313875198364,-0.4879906177520752,-0.6091674566268921
1761370607223716400,5.50871630859375,-0.8997780084609985,-0.07811209559440613,-0.19256959855556488
1761370607242327600,5.52732763671875,-1.3066022396087646,0.3268796503543854,0.054899897426366806
1761370607260940000,5.54593994140625,-1.550330400466919,0.609701931476593,0.22288289666175842
1761370607279551000,5.564551025390625,-1.5613255500793457,0.5364002585411072,0.35116082429885864
1761370607298163500,5.58316357421875,-1.2937744855880737,0.058717694133520126,0.5044834613800049
1761370607316774400,5.6017744140625,-0.6694886088371277,-0.13736428320407867,0.7140040993690491
1761370607335387000,5.620386962890625,0.20402298867702484,-0.21005509793758392,1.0188168287277222
1761370607353997800,5.638997802734375,1.0208021402359009,-0.542356014251709,1.3639456033706665
1761370607372610300,5.6576103515625,1.404414176940918,-0.6920135617256165,1.4616811275482178
1761370607391221200,5.67622119140625,1.2260468006134033,-0.24853847920894623,1.5905698537826538
1761370607409833700,5.694833740234375,0.9670475721359253,-0.09827005118131638,1.9039345979690552
1761370607428444700,5.713444580078125,0.7575269341468811,-0.11231953650712967,2.205693006515503
1761370607447057400,5.732057373046875,0.5888567566871643,-0.11293038725852966,2.1036815643310547
1761370607465668400,5.75066845703125,0.5625903010368347,-0.03901786729693413,1.9754036664962769
1761370607484280800,5.76928076171875,0.7892910242080688,0.139960378408432,2.0340449810028076
1761370607502891800,5.787891845703125,0.9817079305648804,0.31649523973464966,1.6088953018188477
1761370607521504300,5.806504150390625,1.017137050628662,0.6591805219650269,1.0151517391204834
1761370607540115200,5.825115234375,1.1460257768630981,1.132587194442749,0.8563315272331238
1761370607558727700,5.843727783203125,1.2400963306427002,0.5944307446479797,0.574120044708252
1761370607577338600,5.862338623046875,1.0605071783065796,-0.537469208240509,-0.27625566720962524
1761370607595951000,5.880951171875,0.4159869849681854,-1.641957402229309,-1.9298192262649536
1761370607614562300,5.899562255859375,-0.25411245226860046,-1.6352381706237793,-4.242563247680664
1761370607633174800,5.9181748046875,-0.05803048983216286,-0.4647783935070038,-5.87299108505249
1761370607651785700,5.93678564453125,0.7025507092475891,0.6506286859512329,-5.750821590423584
1761370607670398200,5.955398193359375,0.9248991012573242,0.9047411680221558,-4.2407307624816895
1761370607689009200,5.974009033203125,0.46607646346092224,-0.32122930884361267,-2.1051323413848877
1761370607707621600,5.99262158203125,-0.30664533376693726,-1.6908252239227295,-0.2786990702152252
1761370607726232600,6.011232666015625,-0.5870242118835449,-2.20088267326355,0.8117396235466003
1761370607744845000,6.029844970703125,-0.18875180184841156,-1.8783552646636963,1.2674317359924316
1761370607763456000,6.0484560546875,0.30969956517219543,-1.213677167892456,1.1623660326004028
1761370607782068500,6.067068359375,0.5082249045372009,-0.8880955576896667,0.8147938847541809
1761370607800679700,6.0856796875,0.35917818546295166,-1.097616195678711,0.6034407615661621
1761370607819292200,6.104292236328125,0.03176405653357506,-1.5002409219741821,0.5002075433731079
1761370607837903000,6.122903076171875,-0.3646758198738098,-1.4012072086334229,0.35116082429885864
1761370607856515600,6.141515625,-0.5216635465621948,-0.8099071383476257,0.3841465711593628
1761370607875126500,6.16012646484375,-0.44042086601257324,-0.48004958033561707,0.7469898462295532
1761370607893739000,6.178739013671875,-0.2351761907339096,-0.6736881732940674,1.486725926399231
1761370607912350000,6.197349853515625,-0.2754921019077301,-1.0310338735580444,2.352907180786133
1761370607930962400,6.21596240234375,-0.4984513521194458,-1.199016809463501,2.710329294204712
1761370607949573400,6.234573486328125,-0.6096255779266357,-0.9791117906570435,2.428652286529541
1761370607968185900,6.253185791015625,-0.3817795515060425,-0.12392564117908478,1.8923285007476807
1761370607986797000,6.271797119140625,-0.21501824259757996,0.6775059700012207,1.4787847995758057
1761370608005409500,6.290409423828125,-0.02993151545524597,1.053176999092102,1.4934451580047607
1761370608024020500,6.3090205078125,0.11300674080848694,1.0324082374572754,1.7438925504684448
1761370608042633000,6.327633056640625,0.22662433981895447,0.6164212226867676,1.4793957471847534
1761370608061244000,6.346243896484375,0.37444937229156494,0.6597914099693298,0.5319716334342957
1761370608079856400,6.3648564453125,0.36223241686820984,0.9206231832504272,-0.6867450475692749
1761370608098467300,6.38346728515625,0.2632751762866974,1.265828251838684,-1.4295352697372437
1761370608117079800,6.402079833984375,0.23945212364196777,1.6476078033447266,-1.5138322114944458
1761370608135690800,6.420690673828125,0.3029802441596985,1.935316801071167,-1.1131163835525513
1761370608154303500,6.439303466796875,0.36223241686820984,2.0813093185424805,-0.6000047326087952
1761370608172914400,6.45791455078125,0.30908870697021484,2.009840250015259,-0.3568875193595886
1761370608191527000,6.47652685546875,0.37322768568992615,1.7960436344146729,-0.335507869720459
1761370608210137900,6.495137939453125,0.5057815313339233,1.6396667957305908,-0.2793098986148834
1761370608228750300,6.513750244140625,0.5674771070480347,1.5828579664230347,-0.023975754156708717
1761370608247361300,6.532361328125,0.4355340898036957,1.4393088817596436,0.4379011392593384
1761370608265973800,6.550973876953125,0.20157960057258606,1.025688886642456,1.1929082870483398
1761370608284585000,6.5695849609375,0.29442837834358215,0.20043425261974335,1.897826075553894
1761370608303197400,6.588197509765625,0.37322768568992615,-0.10071343928575516,2.1812591552734375
1761370608321808400,6.606808349609375,0.3671191930770874,0.02817532978951931,2.017552137374878
1761370608340420900,6.6254208984375,0.20341213047504425,0.27801185846328735,1.6840295791625977
1761370608359031800,6.64403173828125,-0.04031591862440109,0.40751147270202637,1.4122024774551392
1761370608377644300,6.662644287109375,-0.35856732726097107,0.5058578848838806,1.2087904214859009
1761370608396255200,6.681255126953125,-0.6255075931549072,0.5993174910545349,1.2717076539993286
1761370608414867700,6.69986767578125,-0.6902574300765991,0.8228875994682312,1.6021759510040283
1761370608433479000,6.71847900390625,-0.8002098798751831,1.3201936483383179,1.7530553340911865
1761370608452091400,6.73709130859375,-1.1697725057601929,2.0733683109283447,1.4195326566696167
1761370608470702300,6.755702392578125,-1.5436110496520996,1.242616057395935,0.6962895393371582
1761370608489314800,6.774314697265625,-1.2949961423873901,-0.4207974076271057,-0.004428642801940441
1761370608507925800,6.79292578125,-0.6529957056045532,-0.5405234694480896,-0.3501681983470917
1761370608526538200,6.811538330078125,-0.130721315741539,0.04222481697797775,-0.27197974920272827
1761370608545149200,6.830149169921875,0.3799470067024231,-0.6639146208763123,0.12514732778072357
1761370608563761700,6.84876171875,0.7007181644439697,-2.0952060222625732,0.06772769242525101
1761370608582372600,6.86737255859375,0.9499438405036926,-2.8685386180877686,-0.6763606071472168
1761370608600985000,6.885985107421875,1.3671525716781616,-2.481872320175171,-1.3837217092514038
1761370608619596300,6.90459619140625,1.6121022701263428,-1.83132004737854,-1.7899352312088013
1761370608638208800,6.923208740234375,1.475272536277771,-1.1739721298217773,-1.9059962034225464
1761370608656819700,6.94181982421875,1.22054922580719,-0.6242095232009888,-1.709303379058838
1761370608675432200,6.96043212890625,0.9432245492935181,-0.08971819281578064,-1.395938754081726
1761370608694043100,6.979043212890625,0.7636354565620422,0.1796654462814331,-1.0349279642105103
1761370608712655600,6.997655517578125,0.5974085927009583,0.2309766262769699,-0.6555918455123901
1761370608731266600,7.0162666015625,0.38849884271621704,0.48753246665000916,-0.38009971380233765
1761370608749879000,7.034879150390625,0.16737215220928192,0.8296069502830505,0.05306735634803772
1761370608768490200,7.053490234375,-0.10262233763933182,1.1002122163772583,0.5814502239227295
1761370608787102700,7.072102783203125,-0.38422292470932007,1.0140827894210815,1.041418194770813
1761370608805713700,7.090713623046875,-0.4556920528411865,0.6500178575515747,1.4097591638565063
1761370608824326100,7.109326171875,-0.25533416867256165,0.5565581917762756,1.5997326374053955
1761370608842937000,7.12793701171875,0.016492875292897224,0.6255839467048645,1.615614652633667
1761370608861549600,7.146549560546875,0.1563768982887268,0.49913856387138367,1.662039041519165
1761370608880160500,7.165160400390625,0.3799470067024231,0.6793385148048401,1.851401686668396
1761370608898773000,7.18377294921875,0.5540384650230408,0.9676584005355835,2.1311697959899902
1761370608917384200,7.20238427734375,0.4300364851951599,0.4722612798213959,2.1543819904327393
1761370608935996700,7.22099658203125,0.21685077250003815,0.1784437596797943,2.0535922050476074
1761370608954607600,7.239607666015625,0.1582094430923462,0.3659738600254059,1.9644083976745605
1761370608973220000,7.25822021484375,0.25777754187583923,0.4447731673717499,1.5533082485198975
1761370608991831000,7.2768310546875,0.3536805510520935,0.7123242616653442,0.9424609541893005
1761370609010443500,7.295443603515625,0.3249707520008087,1.2487244606018066,0.48249298334121704
1761370609029054500,7.314054443359375,0.30481278896331787,0.6439093947410583,-0.09910997003316879
1761370609047667000,7.3326669921875,0.43858832120895386,-0.3053472638130188,-0.9481876492500305
1761370609066278000,7.35127783203125,0.8851940631866455,-0.935130774974823,-2.066038131713867
1761370609084890600,7.369890625,1.3518813848495483,-0.6920135617256165,-3.348282814025879
1761370609103501600,7.38850146484375,1.7507646083831787,-0.1990598440170288,-4.077023506164551
1761370609122114000,7.407114013671875,1.9712804555892944,-0.18378867208957672,-3.8296306133270264
1761370609140725000,7.42572509765625,1.5296379327774048,-0.17035003006458282,-2.7856924533843994
1761370609159337500,7.44433740234375,0.1185043677687645,0.17661121487617493,-1.1845855712890625
1761370609177948400,7.462948486328125,-0.7715001106262207,0.22792237997055054,-0.34405970573425293
1761370609196561000,7.481560791015625,-0.8631271719932556,0.41056570410728455,0.09277242422103882
1761370609215172000,7.500172119140625,-0.4434750974178314,0.13507360219955444,0.19111883640289307
1761370609233784600,7.51878466796875,0.24189551174640656,0.09720107167959213,0.21616357564926147
1761370609252395500,7.5373955078125,0.6445202231407166,0.23708508908748627,0.4782170355319977
1761370609271008000,7.556008056640625,0.7037724256515503,0.5803812742233276,0.852666437625885
1761370609289619000,7.574618896484375,0.4581354558467865,0.5718293786048889,1.3217971324920654
1761370609308231400,7.5932314453125,0.11178504675626755,0.30672168731689453,1.7432817220687866
1761370609326842400,7.61184228515625,-0.2498365342617035,-0.12942326068878174,1.976014494895935
1761370609345454800,7.630454833984375,-0.3414636254310608,-0.2754157483577728,2.183091640472412
1761370609364065800,7.649065673828125,-0.18814095854759216,-0.2124984860420227,2.35351824760437
1761370609382678300,7.66767822265625,0.04825693368911743,-0.24609509110450745,2.4695792198181152
1761370609401289500,7.68628955078125,0.2113531529903412,-0.33894386887550354,2.393223285675049
1761370609419902000,7.70490185546875,-0.0036650835536420345,-0.45256146788597107,1.8361304998397827
1761370609438513000,7.723512939453125,-0.4294256269931793,-0.12575818598270416,1.115330696105957
1761370609457125400,7.74212548828125,-0.5027272701263428,0.8638143539428711,0.5747309327125549
1761370609475736300,7.760736328125,-0.3946073353290558,1.5022261142730713,0.18073442578315735
1761370609494348800,7.779348876953125,-0.3268032968044281,0.9719343185424805,-0.252432644367218
1761370609512959700,7.797959716796875,-0.29626092314720154,-0.1465269923210144,-0.9084826111793518
1761370609531572200,7.816572265625,-0.062306419014930725,-0.8483904600143433,-1.8534632921218872
1761370609550183400,7.835183349609375,0.3402419090270996,-0.4110238552093506,-2.7881360054016113
1761370609568796000,7.8537958984375,0.046424392610788345,1.0824977159500122,-3.220615863800049
1761370609587406800,7.87240673828125,-0.37506023049354553,0.920012354850769,-3.342785358428955
1761370609606019300,7.891019287109375,-0.09773556143045425,-0.62543123960495,-3.0110952854156494
1761370609624630300,7.90963037109375,0.27915719151496887,-1.5051276683807373,-1.995790719985962
1761370609643242800,7.92824267578125,0.13499724864959717,-1.0682954788208008,-0.6812474131584167
1761370609661853700,7.946853759765625,-0.2357870489358902,-0.48371466994285583,0.30901235342025757
1761370609680466200,7.965466064453125,-0.5931326746940613,0.07398887723684311,0.8001335263252258
1761370609699077000,7.9840771484375,-0.8686248064041138,0.1417929232120514,0.9424609541893005
1761370609717689900,8.00268994140625,-1.0708152055740356,0.03306210786104202,0.9369633197784424
1761370609736300800,8.02130078125,-1.0176715850830078,-0.4977641701698303,1.051191806793213
1761370609754913300,8.039913330078125,-0.8942803740501404,-0.33466795086860657,0.930854856967926
1761370609773524200,8.058524169921874,-0.7525638341903687,0.299391508102417,0.7103390097618103
1761370609792136700,8.07713671875,-0.6401679515838623,0.9920923113822937,0.5649573802947998
1761370609810747600,8.09574755859375,-0.601073682308197,1.255443811416626,0.7078956365585327
1761370609829360000,8.114360107421875,-0.5076140761375427,0.8381587862968445,0.990717887878418
1761370609847971000,8.13297119140625,-0.3506263196468353,0.46065518260002136,1.310191035270691
1761370609866583800,8.151583740234376,-0.1044548824429512,0.3671955466270447,1.628442406654358
1761370609885194800,8.17019482421875,0.16737215220928192,0.3659738600254059,1.8379631042480469
1761370609903807200,8.18880712890625,0.42392799258232117,0.1020878478884697,1.8440715074539185
1761370609922418200,8.207418212890625,0.6579588651657104,-0.26014456152915955,1.4506858587265015
1761370609941030700,8.22603076171875,1.072113275527954,-0.3737621605396271,0.6150468587875366
1761370609959641600,8.2446416015625,1.3317233324050903,-0.276637464761734,-0.2530434727668762
1761370609978254000,8.263254150390624,1.0409600734710693,0.348259299993515,-0.6342121958732605
1761370609996865000,8.281864990234375,0.8619818091392517,1.2817102670669556,-0.18340688943862915
1761370610015477500,8.3004775390625,0.9065737128257751,0.6316924095153809,0.18256697058677673
1761370610034088700,8.319088623046875,0.7379798293113708,-0.7921925187110901,-0.254265159368515
1761370610052701200,8.337701171875,0.3939964771270752,-1.2448303699493408,-1.2401726245880127
1761370610071312100,8.35631201171875,0.3170297145843506,-0.11842801421880722,-1.8552958965301514
1761370610089924600,8.374924560546875,0.30969956517219543,0.8308286070823669,-1.7850483655929565
1761370610108535600,8.39353564453125,0.3921639323234558,0.7031615376472473,-1.343405842781067
1761370610127148000,8.41214794921875,0.5699204802513123,-0.23204560577869415,-0.7692093849182129
1761370610145759000,8.430759033203126,0.5632011890411377,-1.0432507991790771,-0.16630317270755768
1761370610164371500,8.449371337890625,0.24494975805282593,-1.1012812852859497,0.018249060958623886
1761370610182982400,8.467982421875,-0.1954711228609085,-0.4580591022968292,-0.18401773273944855
1761370610201595000,8.486594970703125,-0.3396310806274414,-0.005421269219368696,-0.4637857675552368
1761370610220206000,8.5052060546875,-0.19241689145565033,0.2578538954257965,-0.3764346241950989
1761370610238818600,8.523818603515625,-0.0525328628718853,0.17477867007255554,0.10315682739019394
1761370610257429500,8.542429443359374,-0.1453816443681717,-0.03779617324471474,0.8819870948791504
1761370610276042000,8.5610419921875,-0.3805578351020813,-0.10010259598493576,1.6333292722702026
1761370610294653000,8.57965283203125,-0.5436540842056274,0.0623827762901783,2.07252836227417
1761370610313265400,8.598265380859376,-0.6218425035476685,0.24258272349834442,2.211801528930664
1761370610331876400,8.61687646484375,-0.5485408306121826,0.43744298815727234,2.2020280361175537
1761370610350488800,8.63548876953125,-0.2864873707294464,0.6726191639900208,2.1519384384155273
1761370610369099800,8.654099853515625,-0.05497625470161438,0.5510605573654175,1.939363718032837
1761370610387712500,8.67271240234375,-0.14049486815929413,-0.30656898021698,1.2894221544265747
1761370610406323500,8.691323486328125,-0.27060532569885254,-0.26991814374923706,0.7256101965904236
1761370610424936000,8.70993603515625,-0.09040539711713791,-0.0561215914785862,0.3707079291343689
1761370610443547000,8.728546875,0.12827792763710022,-0.036574479192495346,0.08727480471134186
1761370610462159400,8.747159423828125,0.056808795779943466,0.04650074616074562,-0.21822518110275269
1761370610480770300,8.765770263671875,-0.053143709897994995,-0.41468894481658936,-0.8492304086685181
1761370610499382800,8.7843828125,-0.023823043331503868,-0.5454102754592896,-1.5010044574737549
