time,seconds_elapsed,z,y,x
1761369826910755800,0.097755859375,0,0,0
1761369826938671000,0.125671142578125,-0.015572547912597656,-0.020169153809547424,0.01408134400844574
1761369826957282300,0.1442822265625,0.0031728744506835938,-0.022041842341423035,0.02528563141822815
1761369826975892200,0.162892333984375,-0.007814407348632812,-0.025620579719543457,0.02526429295539856
1761369826994503400,0.18150341796875,-0.011769294738769531,-0.024317637085914612,0.010322153568267822
1761369827013113000,0.200113037109375,-0.004233360290527344,0.0007432997226715088,0.002836883068084717
1761369827031724500,0.218724609375,-0.0036420822143554688,0.01985105872154236,-0.00804048776626587
1761369827050334200,0.237334228515625,0.0014390945434570312,0.023811355233192444,-0.023411884903907776
1761369827068945700,0.255945556640625,0.00339508056640625,0.0166027694940567,-0.015932679176330566
1761369827087555300,0.274555419921875,-0.008202552795410156,0.012282878160476685,-0.014074087142944336
1761369827106166500,0.29316650390625,0.0038518905639648438,-0.004324913024902344,0.003321141004562378
1761369827124776400,0.3117763671875,0.019186973571777344,-0.015383169054985046,0.021142542362213135
1761369827143387600,0.3303876953125,-0.004857063293457031,-0.02335837483406067,0.013150572776794434
1761369827161997600,0.34899755859375,-0.006741523742675781,-0.014907479286193848,0.005990147590637207
1761369827180608800,0.36760888671875,0.005107879638671875,-0.004992187023162842,0.013014554977416992
1761369827199218700,0.38621875,-0.008760452270507812,0.013536527752876282,0.003414928913116455
1761369827217830000,0.404829833984375,0.005401611328125,0.026377558708190918,-0.02150365710258484
1761369827236439800,0.423439697265625,0.00030517578125,0.022554293274879456,-0.019909322261810303
1761369827255051000,0.442051025390625,0.004946708679199219,0.01888410747051239,-0.016111701726913452
1761369827273661000,0.460660888671875,0.0069675445556640625,0.006068393588066101,0.001252204179763794
1761369827292272000,0.479272216796875,0.0021314620971679688,-0.012895911931991577,0.012948453426361084
1761369827310882000,0.497882080078125,0.0019779205322265625,-0.033464521169662476,0.03354957699775696
1761369827329493200,0.5164931640625,0.0042247772216796875,-0.034501537680625916,0.0371338427066803
1761369827348103200,0.535103271484375,-0.012073516845703125,-0.023728832602500916,0.029267698526382446
1761369827366714400,0.55371435546875,-0.0024538040161132812,0.002683788537979126,0.005239963531494141
1761369827385324000,0.572323974609375,-0.009316444396972656,0.03482374548912048,-0.01780666410923004
1761369827403935500,0.590935546875,0.00733184814453125,0.04270210862159729,-0.032813236117362976
1761369827422545200,0.609545166015625,0.002399444580078125,0.034176990389823914,-0.019603446125984192
1761369827441156600,0.628156494140625,-0.004746437072753906,0.021207109093666077,-0.011518225073814392
1761369827459766300,0.646766357421875,-0.0045108795166015625,-0.007811188697814941,0.028862908482551575
1761369827478377700,0.665377685546875,-0.009077072143554688,-0.026310667395591736,0.039819300174713135
1761369827496987400,0.6839873046875,-0.013531684875488281,-0.05130782723426819,0.03655484318733215
1761369827515598800,0.702598876953125,-0.0036706924438476562,-0.03814391791820526,0.030953064560890198
1761369827534208500,0.72120849609375,0.0034236907958984375,-0.0066651850938797,0.02102978527545929
1761369827552820000,0.739820068359375,-0.0036792755126953125,0.02370379865169525,-0.01188872754573822
1761369827571429600,0.7584296875,-0.005917549133300781,0.038997337222099304,-0.02268122136592865
1761369827590041000,0.777041015625,-0.0010986328125,0.04686997830867767,-0.023971617221832275
1761369827608650800,0.795650634765625,-0.010325431823730469,0.019413232803344727,-0.011095285415649414
1761369827627262000,0.814261962890625,-0.0006504058837890625,-0.007135450839996338,0.012929186224937439
1761369827645871900,0.832871826171875,0.00862884521484375,-0.02806071937084198,0.03142102062702179
1761369827664483300,0.8514833984375,-0.0033168792724609375,-0.03894078731536865,0.042540043592453
1761369827683093000,0.870093017578125,-0.012555122375488281,-0.033045560121536255,0.036874935030937195
1761369827701704200,0.8887041015625,-0.0051631927490234375,-0.02276657521724701,0.031450703740119934
1761369827720314000,0.907314208984375,-0.011865615844726562,-0.00124417245388031,0.0004478543996810913
1761369827738925600,0.925925537109375,0.01178741455078125,0.029055476188659668,-0.0038302987813949585
1761369827757535200,0.94453515625,-0.005009651184082031,0.04413154721260071,-0.019563257694244385
1761369827776146400,0.963146484375,-0.00009918212890625,0.02602650225162506,-0.02089609205722809
1761369827794756400,0.98175634765625,0.004486083984375,0.015851646661758423,0.001096978783607483
1761369827813367600,1.000367431640625,-0.004970550537109375,-0.015158995985984802,0.02712637186050415
1761369827831977500,1.0189775390625,-0.011721611022949219,-0.035731881856918335,0.0359605997800827
1761369827850588700,1.037588623046875,0.0095672607421875,-0.03444121778011322,0.03527297079563141
1761369827869198600,1.056198486328125,-0.0024118423461914062,-0.024079114198684692,0.03458665311336517
1761369827887809800,1.074809814453125,-0.00226593017578125,-0.0023311227560043335,0.012969374656677246
1761369827906419700,1.093419677734375,-0.0022830963134765625,0.011806637048721313,0.008367538452148438
1761369827925031000,1.112031005859375,-0.004498481750488281,0.025375962257385254,-0.010146379470825195
1761369827943640800,1.130640869140625,0.005053520202636719,0.02701742947101593,-0.013939902186393738
1761369827962252000,1.149251953125,0.002483367919921875,0.019116386771202087,-0.01075814664363861
1761369827980862000,1.167862060546875,0.004703521728515625,0.004600435495376587,0.004052385687828064
1761369827999473200,1.18647314453125,-0.00017070770263671875,-0.009655773639678955,0.01840457320213318
1761369828018083000,1.2050830078125,-0.0070819854736328125,-0.027943342924118042,0.03452572226524353
1761369828036694300,1.2236943359375,-0.002227783203125,-0.02702401578426361,0.0408337265253067
1761369828055304200,1.24230419921875,0.004891395568847656,-0.0259321928024292,0.02354477345943451
1761369828073915400,1.260915283203125,-0.00469970703125,0.003088712692260742,0.023284107446670532
1761369828092525300,1.279525390625,-0.0068264007568359375,0.007483348250389099,0.004147559404373169
1761369828111136500,1.298136474609375,0.012064933776855469,0.018904611468315125,-0.007157489657402039
1761369828129746400,1.316746337890625,0.0045928955078125,0.015922948718070984,-0.01116645336151123
1761369828148357600,1.335357666015625,-0.00490570068359375,0.015301287174224854,-0.0057614147663116455
1761369828166967600,1.353967529296875,0.0022687911987304688,0.0030778050422668457,0.020552709698677063
1761369828185579000,1.3725791015625,-0.0002117156982421875,-0.01781134307384491,0.018044903874397278
1761369828204188700,1.391188720703125,0.0045318603515625,-0.02426701784133911,0.02946615219116211
1761369828222800000,1.4097998046875,0.01131439208984375,-0.018756702542304993,0.03140325844287872
1761369828241409800,1.428409912109375,0.0015916824340820312,-0.006546512246131897,0.016741037368774414
1761369828260021200,1.447021240234375,-0.0031023025512695312,0.0008064508438110352,0.005033239722251892
1761369828278631000,1.465630859375,0.0038909912109375,0.01709267497062683,0.0006762444972991943
1761369828297242400,1.484242431640625,0.008454322814941406,0.014341577887535095,0.0012634992599487305
1761369828315852000,1.50285205078125,0.012872695922851562,0.011622458696365356,0.003982990980148315
1761369828334463500,1.52146337890625,0.0054111480712890625,-0.00501289963722229,0.016005709767341614
1761369828353073200,1.5400732421875,0.002902984619140625,-0.0024074316024780273,0.01817607879638672
1761369828371684600,1.5586845703125,-0.004189491271972656,-0.006942346692085266,0.02044716477394104
1761369828390294300,1.577294189453125,0.009940147399902344,-0.01607634127140045,0.024974867701530457
1761369828408905700,1.59590576171875,0.004891395568847656,-0.0013706684112548828,0.010586023330688477
1761369828427515400,1.614515380859375,0.0070705413818359375,0.00104425847530365,0.020052865147590637
1761369828446126800,1.633126953125,0.006863594055175781,0.0033793598413467407,0.012866869568824768
1761369828464736500,1.651736572265625,-0.0027151107788085938,0.008008092641830444,0.005934953689575195
1761369828483348000,1.670347900390625,0.0019931793212890625,0.007775440812110901,0.010854125022888184
1761369828501957600,1.68895751953125,0.0018377304077148438,0.0006997138261795044,0.013122200965881348
1761369828520569000,1.707569091796875,-0.000431060791015625,-0.0016479045152664185,0.013096541166305542
1761369828539178800,1.7261787109375,0.008828163146972656,-0.0037960857152938843,0.01090247929096222
1761369828557790200,1.744790283203125,0.0038156509399414062,-0.006045863032341003,0.01564835011959076
1761369828576400000,1.76339990234375,0.0037183761596679688,-0.00816260278224945,0.015672534704208374
1761369828595011300,1.78201123046875,0.0036211013793945312,-0.0009075701236724854,0.018041059374809265
1761369828613621200,1.800621337890625,0.0057239532470703125,0.0014122575521469116,0.003994345664978027
1761369828632232400,1.819232421875,0.007958412170410156,0.008348509669303894,0.0018749833106994629
1761369828650842400,1.83784228515625,0.003055572509765625,0.008047416806221008,-0.0023539364337921143
1761369828669453600,1.85645361328125,0.0029420852661132812,0.005483224987983704,0.019231289625167847
1761369828688063500,1.8750634765625,-0.001873016357421875,-0.0087994784116745,0.016741454601287842
1761369828706674700,1.8936748046875,0.0028438568115234375,-0.003801777958869934,0.023746013641357422
1761369828725284600,1.91228466796875,0.009799957275390625,-0.0036597102880477905,0.028186321258544922
1761369828743895800,1.930895751953125,0.007149696350097656,-0.005911141633987427,0.018378451466560364
1761369828762505700,1.949505615234375,0.006861686706542969,0.0013424009084701538,0.008813917636871338
1761369828781117000,1.968116943359375,0.0019197463989257812,0.005887508392333984,0.013659745454788208
1761369828799726800,1.986726806640625,0.0018854141235351562,0.003377676010131836,-0.0005500912666320801
1761369828818338000,2.005338134765625,0.006481170654296875,0.000967860221862793,0.004620760679244995
1761369828836948000,2.023947998046875,0.0015115737915039062,0.010232016444206238,0.016474708914756775
1761369828855559200,2.04255908203125,0.003922462463378906,0.005177319049835205,0.0186355859041214
1761369828874169000,2.061169189453125,0.0037021636962890625,0.0004868060350418091,0.016127392649650574
1761369828892780300,2.0797802734375,-0.0011005401611328125,-0.013519063591957092,0.016016021370887756
1761369828911390200,2.09839013671875,-0.0010347366333007812,-0.02000296115875244,0.025216445326805115
1761369828930001700,2.117001708984375,0.008328437805175781,-0.003111019730567932,0.0201500803232193
1761369828948611300,2.135611328125,0.0057621002197265625,0.0016907304525375366,0.01529364287853241
1761369828967222500,2.154222412109375,-0.0037412643432617188,0.0016895085573196411,0.0060618966817855835
1761369828985832400,2.17283251953125,-0.0013151168823242188,0.0039783865213394165,-0.0030137300491333008
1761369829004444000,2.19144384765625,0.010335922241210938,0.006104335188865662,-0.00016832351684570312
1761369829023053600,2.210053466796875,-0.003983497619628906,0.003413364291191101,0.007284507155418396
1761369829041665000,2.2286650390625,0.0007276535034179688,-0.0036667585372924805,0.012213051319122314
1761369829060274700,2.247274658203125,0.010072708129882812,-0.0036003142595291138,0.0192936509847641
1761369829078886100,2.26588623046875,0.005055427551269531,-0.0010571479797363281,0.019096463918685913
1761369829097495800,2.284495849609375,0.004956245422363281,-0.005717858672142029,0.018952086567878723
1761369829116107300,2.303107177734375,0.0024290084838867188,-0.0008428990840911865,0.018675804138183594
1761369829134717000,2.321717041015625,0.004652976989746094,0.006275966763496399,0.011349305510520935
1761369829153328400,2.340328369140625,-0.000179290771484375,-0.0009407550096511841,0.00902816653251648
1761369829171938000,2.35893798828125,0.009116172790527344,0.006074190139770508,0.013782516121864319
1761369829190549500,2.377549560546875,-0.002849578857421875,0.0035166889429092407,0.0045302510261535645
1761369829209159400,2.396159423828125,0.011163711547851562,0.0009679347276687622,0.011785462498664856
1761369829227770600,2.4147705078125,0.006236076354980469,-0.0037893354892730713,0.009510695934295654
1761369829246380500,2.433380615234375,0.0013093948364257812,-0.008260548114776611,0.016507074236869812
1761369829264991700,2.45199169921875,0.0013322830200195312,-0.00802794098854065,0.021227076649665833
1761369829283601700,2.4706015625,-0.005745887756347656,-0.0055456459522247314,0.011667072772979736
1761369829302212900,2.489212890625,-0.001018524169921875,-0.007719069719314575,0.009501263499259949
1761369829320822800,2.50782275390625,-0.0032739639282226562,0.0018885433673858643,0.009784713387489319
1761369829339434000,2.52643408203125,0.00145721435546875,0.006362020969390869,0.005063861608505249
1761369829358044000,2.5450439453125,0.006148338317871094,0.0014291554689407349,0.0170489102602005
1761369829376655000,2.563655029296875,0.0012264251708984375,-0.003342047333717346,0.014631479978561401
1761369829395265000,2.58226513671875,-0.0034933090209960938,0.003696843981742859,0.02155463397502899
1761369829413876200,2.600876220703125,0.0013227462768554688,-0.008306965231895447,0.016673266887664795
1761369829432486100,2.619486083984375,0.0011911392211914062,-0.008035331964492798,0.01409880816936493
1761369829451097300,2.638097412109375,0.008128166198730469,-0.005547851324081421,0.009504064917564392
1761369829469707300,2.656707275390625,0.0009441375732421875,-0.0031083226203918457,0.009638503193855286
1761369829488318500,2.675318359375,0.00086212158203125,0.013277366757392883,0.0074828267097473145
1761369829506928400,2.693928466796875,0.0007839202880859375,-0.001209855079650879,0.009974405169487
1761369829525539800,2.712539794921875,-0.0038814544677734375,0.008207455277442932,0.007736966013908386
1761369829544149500,2.7311494140625,0.005614280700683594,-0.0014093071222305298,0.017186522483825684
1761369829562761000,2.749760986328125,0.000751495361328125,0.0008725970983505249,0.014694973826408386
1761369829581370600,2.76837060546875,0.005232810974121094,-0.006138846278190613,0.016833126544952393
1761369829599982000,2.786982177734375,0.00042057037353515625,0.005677863955497742,0.014352336525917053
1761369829618591700,2.805591796875,0.007420539855957031,-0.006202593445777893,0.016694262623786926
1761369829637203200,2.824203125,-0.0021734237670898438,-0.0036514252424240112,0.014178842306137085
1761369829655812900,2.842812744140625,0.011928558349609375,0.005878940224647522,0.018913060426712036
1761369829674424300,2.86142431640625,0.004542350769042969,-0.0013948827981948853,0.007001698017120361
1761369829693034000,2.880033935546875,0.004342079162597656,0.0010744929313659668,0.011886969208717346
1761369829711645400,2.8986455078125,0.0018329620361328125,0.0009070783853530884,0.00956059992313385
1761369829730255000,2.917255126953125,-0.00749969482421875,-0.0014459490776062012,0.009706780314445496
1761369829748866600,2.935866455078125,0.0019578933715820312,-0.0013461560010910034,0.019093558192253113
1761369829767476200,2.954476318359375,-0.00274658203125,-0.010547399520874023,0.025949016213417053
1761369829786087700,2.973087646484375,-0.00035190582275390625,-0.007925599813461304,0.020846188068389893
1761369829804697600,2.991697509765625,-0.009653091430664062,-0.0029227137565612793,0.013667404651641846
1761369829823308800,3.010308837890625,0.0069789886474609375,-0.00041860342025756836,0.008938133716583252
1761369829841918700,3.028918701171875,0.006699562072753906,0.004219874739646912,0.00909242033958435
1761369829860530000,3.047530029296875,0.00183868408203125,0.008669465780258179,-0.00019396841526031494
1761369829879139800,3.066139892578125,0.006476402282714844,0.017624452710151672,0.0026465803384780884
1761369829897751000,3.0847509765625,-0.0008106231689453125,-0.006439894437789917,0.007691606879234314
1761369829916361000,3.10336083984375,-0.0006771087646484375,-0.008395805954933167,0.017185121774673462
1761369829934972200,3.12197216796875,0.006244659423828125,-0.01296357810497284,0.02867777645587921
1761369829953582000,3.14058203125,0.0037136077880859375,-0.014932408928871155,0.02117083966732025
1761369829972193300,3.159193359375,0.005972862243652344,-0.009824872016906738,0.018674224615097046
1761369829990803200,3.17780322265625,0.00348663330078125,-0.0025005191564559937,0.002212420105934143
1761369830009414400,3.196414306640625,0.0032024383544921875,0.009266197681427002,0.002602607011795044
1761369830028024300,3.2150244140625,0.0031270980834960938,0.011298537254333496,0.01461435854434967
1761369830046635500,3.233635498046875,0.0030527114868164062,-0.0007506608963012695,0.009828165173530579
1761369830065245400,3.252245361328125,-0.0063610076904296875,-0.00538046658039093,0.017029061913490295
1761369830083856600,3.270856689453125,-0.0015697479248046875,-0.005188509821891785,0.01914939284324646
1761369830102466600,3.289466552734375,-0.0014095306396484375,-0.007316514849662781,0.01890699565410614
1761369830121078000,3.308078125,-0.0037670135498046875,-0.0023913979530334473,0.011682748794555664
1761369830139687700,3.326687744140625,0.0010547637939453125,-0.007061600685119629,0.009366407990455627
1761369830158299100,3.345299072265625,-0.008325576782226562,0.004823505878448486,0.011882111430168152
1761369830176908800,3.36390869140625,-0.0057430267333984375,-0.0024560391902923584,0.014195993542671204
1761369830195520300,3.382520263671875,0.0037374496459960938,0.004686146974563599,0.009481623768806458
1761369830214130000,3.4011298828125,-0.0034189224243164062,-0.0026137083768844604,0.011853352189064026
1761369830232741400,3.419741455078125,-0.007984161376953125,0.002195194363594055,0.009538263082504272
1761369830251351000,3.43835107421875,0.006278038024902344,0.0067680031061172485,0.02362103760242462
1761369830269962500,3.45696240234375,0.006145477294921875,0.0017040371894836426,0.016210779547691345
1761369830288572200,3.475572265625,-0.003482818603515625,-0.005379572510719299,0.013595819473266602
1761369830307183600,3.49418359375,0.008439064025878906,-0.009915456175804138,0.018003493547439575
1761369830325793500,3.51279345703125,0.00109100341796875,0.006615355610847473,0.029398366808891296
1761369830344404700,3.53140478515625,-0.0013074874877929688,-0.00292205810546875,0.017142653465270996
1761369830363014400,3.550014404296875,-0.0035419464111328125,0.003990665078163147,0.0074948519468307495
1761369830381625900,3.5686259765625,0.012850761413574219,0.010785311460494995,-0.0016444772481918335
1761369830400235800,3.58723583984375,0.0031185150146484375,-0.0013226419687271118,0.0012285113334655762
1761369830418847000,3.605846923828125,-0.0039386749267578125,0.003367394208908081,0.015569373965263367
1761369830437457000,3.624456787109375,-0.00146484375,-0.0014382600784301758,0.01773884892463684
1761369830456068000,3.643068115234375,-0.0015439987182617188,-0.013138025999069214,0.02459774911403656
1761369830474678000,3.661677978515625,0.0009279251098632812,-0.01042698323726654,0.02194751799106598
1761369830493289200,3.680289306640625,0.0008821487426757812,-0.007791191339492798,0.01716524362564087
1761369830511899100,3.698899169921875,-0.0039825439453125,-0.0004976093769073486,0.007628798484802246
1761369830530510300,3.71751025390625,0.0008831024169921875,0.018210887908935547,-0.0014042854309082031
1761369830549120300,3.736120361328125,0.0031213760375976562,0.010586664080619812,-0.0009359568357467651
1761369830567731500,3.7547314453125,0.0031232833862304688,0.003243163228034973,0.004188269376754761
1761369830586341400,3.77334130859375,0.010033607482910156,-0.00616203248500824,0.00912424921989441
1761369830604952600,3.79195263671875,0.0025920867919921875,-0.008407920598983765,0.020938202738761902
1761369830623562500,3.8105625,-0.0068836212158203125,-0.017494380474090576,0.02306365966796875
1761369830642174000,3.829174072265625,0.0027132034301757812,-0.012193650007247925,0.032048046588897705
1761369830660783600,3.84778369140625,0.007282257080078125,-0.00012280046939849854,0.012680083513259888
1761369830679394800,3.866394775390625,-0.0022706985473632812,0.004642978310585022,0.003308415412902832
1761369830698004700,3.885004638671875,0.0024633407592773438,0.009098351001739502,0.0014226436614990234
1761369830716616200,3.9036162109375,0.011668205261230469,0.004034370183944702,-0.005075663328170776
1761369830735225900,3.922225830078125,0.004328727722167969,0.008514419198036194,0.0026159286499023438
1761369830753837300,3.94083740234375,0.00421905517578125,0.003373280167579651,0.012179985642433167
1761369830772447000,3.959447021484375,-0.009890556335449219,-0.008653655648231506,0.014427125453948975
1761369830791058400,3.978058349609375,-0.004939079284667969,-0.0062039196491241455,0.0213642418384552
1761369830809668000,3.996668212890625,0.0022001266479492188,-0.00613480806350708,0.02571210265159607
1761369830828279600,4.015279541015625,0.0021209716796875,-0.0060048699378967285,0.01593029499053955
1761369830846889200,4.03388916015625,-0.0027055740356445312,-0.008297935128211975,0.020387232303619385
1761369830865500700,4.052500732421875,0.0020875930786132812,0.0012977421283721924,0.013024777173995972
1761369830884110300,4.0711103515625,0.0067577362060546875,0.012809976935386658,0.019971191883087158
1761369830902721800,4.0897216796875,-0.0006160736083984375,0.0146217942237854,0.005655050277709961
1761369830921331700,4.108331787109375,-0.005230903625488281,0.016380131244659424,-0.0012026429176330566
1761369830939943000,4.12694287109375,-0.002750396728515625,0.0015594512224197388,0.008585020899772644
1761369830958552600,4.145552490234375,-0.009652137756347656,-0.010202005505561829,0.018141314387321472
1761369830977164000,4.1641640625,-0.004599571228027344,-0.012017816305160522,0.02492755651473999
1761369830995774000,4.18277392578125,0.00009059906005859375,-0.00703015923500061,0.02473945915699005
1761369831014385200,4.20138525390625,-0.004553794860839844,0.00014454126358032227,0.019692465662956238
1761369831032995000,4.2199951171875,-0.006690025329589844,0.009438559412956238,0.003181368112564087
1761369831051606300,4.238606201171875,0.007487297058105469,0.006748571991920471,0.010616868734359741
1761369831070216200,4.25721630859375,0.004796028137207031,0.004297584295272827,0.0059648603200912476
1761369831088827400,4.275827392578125,0.0023527145385742188,-0.009798675775527954,0.020245447754859924
1761369831107437300,4.294437255859375,0.009205818176269531,-0.011721640825271606,0.03165465593338013
1761369831126048500,4.313048583984375,-0.009707450866699219,-0.018412351608276367,0.02174694836139679
1761369831144658400,4.331658447265625,0.00002193450927734375,-0.006166055798530579,0.01441095769405365
1761369831163269600,4.35026953125,-0.0025424957275390625,0.003298655152320862,0.007522568106651306
1761369831181879600,4.368879638671875,0.00702667236328125,0.014856919646263123,0.00301225483417511
1761369831200490800,4.38749072265625,-0.0002803802490234375,0.019090577960014343,-0.0036483407020568848
1761369831219100700,4.4061005859375,-0.004914283752441406,0.008962646126747131,-0.00291423499584198
1761369831237712000,4.4247119140625,-0.004681587219238281,-0.0030841082334518433,0.018660858273506165
1761369831256321800,4.44332177734375,-0.004614830017089844,-0.014716461300849915,0.020805716514587402
1761369831274933000,4.46193310546875,0.00015544891357421875,-0.018827825784683228,0.032099246978759766
1761369831293543000,4.48054296875,0.0025739669799804688,-0.027526989579200745,0.03391630947589874
1761369831312154400,4.499154296875,0.0024366378784179688,-0.007815524935722351,0.014503464102745056
1761369831330764000,4.517763916015625,-0.009350776672363281,-0.0028333663940429688,0.007558092474937439
1761369831349375500,4.53637548828125,-0.011402130126953125,0.011188045144081116,0.0006354302167892456
1761369831367985200,4.554985107421875,0.0030107498168945312,0.017779871821403503,-0.0013187825679779053
1761369831386596600,4.5735966796875,0.0006265640258789062,0.005347907543182373,0.0015649646520614624
1761369831405206300,4.592206298828125,0.005225181579589844,0.005148261785507202,0.011313825845718384
1761369831423817700,4.610817626953125,-0.0019025802612304688,-0.001991942524909973,0.013685822486877441
1761369831442427400,4.629427490234375,-0.004202842712402344,-0.01599109172821045,0.011381834745407104
1761369831461038800,4.648038818359375,-0.008741378784179688,-0.01551729440689087,0.020576506853103638
1761369831479648500,4.6666484375,-0.0037126541137695312,-0.008209839463233948,0.024988487362861633
1761369831498260000,4.685260009765625,0.0033063888549804688,-0.008018150925636292,0.01771913468837738
1761369831516869600,4.70386962890625,0.0031909942626953125,0.0037867724895477295,0.01042330265045166
1761369831535481000,4.722481201171875,0.0008029937744140625,0.010478690266609192,0.01515430212020874
1761369831554090800,4.7410908203125,-0.0016231536865234375,0.010021194815635681,0.0033288896083831787
1761369831572702200,4.7597021484375,-0.006209373474121094,0.002544492483139038,-0.0009620934724807739
1761369831591312100,4.77831201171875,0.003368377685546875,0.00014244019985198975,0.015767380595207214
1761369831609923300,4.79692333984375,-0.008523941040039062,-0.007059499621391296,0.013299345970153809
1761369831628533000,4.815532958984375,0.005756378173828125,-0.016203954815864563,0.02501446008682251
1761369831647144400,4.83414453125,-0.0014705657958984375,-0.013203546404838562,0.02225644886493683
1761369831665754400,4.85275439453125,0.0056285858154296875,-0.008028939366340637,0.024298086762428284
1761369831684365600,4.871365478515625,0.0030364990234375,-0.007712036371231079,0.00769391655921936
1761369831702975500,4.8899755859375,-0.0017023086547851562,0.004102110862731934,0.003120720386505127
1761369831721586700,4.908586669921875,0.0029735565185546875,0.013243123888969421,0.00810869038105011
1761369831740196600,4.927196533203125,-0.006472587585449219,0.01740124821662903,0.006028309464454651
1761369831758807800,4.945807861328125,0.005465507507324219,0.01437370479106903,0.00619933009147644
1761369831777417700,4.964417724609375,-0.0041408538818359375,-0.002653643488883972,0.015890106558799744
1761369831796029000,4.98302880859375,0.0006952285766601562,-0.014279454946517944,0.02742786705493927
1761369831814638800,5.001638916015625,-0.00160980224609375,-0.01622055470943451,0.029150545597076416
1761369831833250000,5.02025,0.0007047653198242188,-0.008739367127418518,0.019420698285102844
1761369831851860000,5.03885986328125,0.002986907958984375,-0.010808676481246948,0.019281476736068726
1761369831870471200,5.05747119140625,0.002918243408203125,0.0128927081823349,0.007359102368354797
1761369831889081000,5.0760810546875,0.00045490264892578125,0.017094776034355164,0.0005549341440200806
1761369831907692300,5.0946923828125,0.0026693344116210938,0.011703744530677795,0.0009026527404785156
1761369831926302200,5.11330224609375,0.007359504699707031,0.004219323396682739,0.010698050260543823
1761369831944913400,5.131913330078125,0.000041961669921875,0.004002422094345093,0.019987031817436218
1761369831963523300,5.1505234375,-0.006949424743652344,-0.01496054232120514,0.015222787857055664
1761369831982134500,5.169134521484375,-0.004328727722167969,-0.012263134121894836,0.026613473892211914
1761369832000744400,5.187744384765625,0.00047397613525390625,-0.0001655668020248413,0.03544017672538757
1761369832019355600,5.206355712890625,0.0027608871459960938,0.0021139532327651978,0.0137728750705719
1761369832037965600,5.224965576171875,0.004897117614746094,0.006696268916130066,-0.0026376545429229736
1761369832056577000,5.243576904296875,0.004803657531738281,0.011216729879379272,0.01416158676147461
1761369832075186700,5.262186767578125,0.009263038635253906,0.0014279186725616455,0.014155805110931396
1761369832093798100,5.280798095703125,-0.005059242248535156,-0.0010143965482711792,0.002481415867805481
1761369832112407800,5.29940771484375,0.0020437240600585938,-0.005637362599372864,0.01917065680027008
1761369832131019300,5.318019287109375,-0.00023555755615234375,-0.007603183388710022,0.023592203855514526
1761369832149629000,5.33662890625,-0.000316619873046875,-0.007416278123855591,0.023236528038978577
1761369832168240400,5.355240478515625,-0.00023746490478515625,-0.009447187185287476,0.016008496284484863
1761369832186850000,5.37385009765625,-0.00502777099609375,0.002437278628349304,0.020549148321151733
1761369832205461500,5.39246142578125,-0.007109642028808594,0.002314850687980652,0.013427689671516418
1761369832224071200,5.4110712890625,0.004767417907714844,0.000032529234886169434,0.015746474266052246
1761369832242682600,5.4296826171875,0.0069141387939453125,0.002266213297843933,0.015728652477264404
1761369832261292300,5.448292236328125,-0.00035190582275390625,0.004520252346992493,0.011018738150596619
1761369832279903700,5.46690380859375,-0.0002307891845703125,-0.00041225552558898926,0.018181636929512024
1761369832298513400,5.485513427734375,-0.0048999786376953125,-0.0051489174365997314,0.0202481746673584
1761369832317124900,5.504124755859375,0.006867408752441406,-0.00965099036693573,0.01761758327484131
1761369832335734500,5.522734619140625,-0.005023002624511719,-0.0023098886013031006,0.01745830476284027
1761369832354346000,5.541345947265625,-0.0025529861450195312,-0.00229664146900177,0.01728859543800354
1761369832372955600,5.55995556640625,0.0069370269775390625,0.0047238171100616455,0.010250300168991089
1761369832391567000,5.578567138671875,0.008971214294433594,-0.00014288723468780518,0.008114740252494812
1761369832410177000,5.597177001953125,-0.0005941390991210938,0.002214282751083374,0.012923210859298706
1761369832428788200,5.615788330078125,0.003970146179199219,0.004317626357078552,0.01051129400730133
1761369832447398100,5.634398193359375,0.003949165344238281,0.00172385573387146,0.0035322904586791992
1761369832466009300,5.65300927734375,0.0038089752197265625,0.0015866756439208984,0.001430615782737732
1761369832484619300,5.671619384765625,0.00131988525390625,0.003943026065826416,0.01348327100276947
1761369832503230500,5.69023046875,0.0012664794921875,-0.005549505352973938,0.015798315405845642
1761369832521840400,5.70884033203125,0.0034894943237304688,-0.002944260835647583,0.015590563416481018
1761369832540451600,5.72745166015625,-0.005977630615234375,-0.00970613956451416,0.02258460223674774
1761369832559061500,5.7460615234375,-0.0011606216430664062,-0.011726856231689453,0.01518508791923523
1761369832577672700,5.764672607421875,-0.0057621002197265625,-0.00206167995929718,0.0127735435962677
1761369832596282600,5.78328271484375,0.006104469299316406,0.007566168904304504,0.005790308117866516
1761369832614893800,5.801893798828125,0.008204460144042969,0.012094363570213318,0.01073157787322998
1761369832633503700,5.820503662109375,0.005602836608886719,0.009521648287773132,0.008524209260940552
1761369832652115000,5.839114990234375,-0.00624847412109375,-0.000005140900611877441,0.017988190054893494
1761369832670724900,5.857724853515625,-0.003662109375,-0.009326547384262085,0.013202354311943054
1761369832689336000,5.876336181640625,0.005661964416503906,-0.008796840906143188,0.020323336124420166
1761369832707946000,5.894946044921875,-0.008508682250976562,-0.0037512481212615967,0.015524327754974365
1761369832726557200,5.91355712890625,-0.0012950897216796875,0.005763396620750427,0.006175532937049866
1761369832745167000,5.9321669921875,0.005879402160644531,0.010204285383224487,0.006392300128936768
1761369832763778300,5.9507783203125,0.0009250640869140625,0.014537155628204346,0.0021232664585113525
1761369832782388200,5.96938818359375,0.0010004043579101562,0.00940561294555664,0.0025524944067001343
1761369832800999400,5.98799951171875,0.0009174346923828125,-0.002659529447555542,0.012267783284187317
1761369832819609300,6.006609375,-0.0037937164306640625,-0.011818796396255493,0.016941040754318237
1761369832838220500,6.025220458984375,0.003387451171875,-0.013734042644500732,0.03300349414348602
1761369832856830500,6.04383056640625,-0.010779380798339844,-0.013337671756744385,0.03232009708881378
1761369832875442000,6.06244189453125,-0.0034465789794921875,-0.008471861481666565,0.0199812650680542
1761369832894051600,6.081051513671875,0.008390426635742188,0.008073925971984863,0.015137627720832825
1761369832912663000,6.0996630859375,0.0010805130004882812,0.010173842310905457,0.0033151060342788696
1761369832931272700,6.118272705078125,-0.005948066711425781,0.011960506439208984,-0.008024483919143677
1761369832949884200,6.13688427734375,-0.008072853088378906,0.006797805428504944,0.0018768757581710815
1761369832968493800,6.155493896484375,0.0015268325805664062,-0.002875968813896179,0.009204313158988953
1761369832987105300,6.174105224609375,0.0061359405517578125,-0.007489621639251709,0.018724247813224792
1761369833005715000,6.19271484375,0.010550498962402344,-0.021194875240325928,0.032495737075805664
1761369833024326400,6.211326416015625,-0.006051063537597656,-0.013378456234931946,0.027105018496513367
1761369833042936000,6.22993603515625,-0.0012731552124023438,-0.008289963006973267,0.022002235054969788
1761369833061547500,6.248547607421875,-0.008187294006347656,0.0013377666473388672,0.0007064789533615112
1761369833080157200,6.2671572265625,-0.005649566650390625,0.017426282167434692,0.0011454522609710693
1761369833098768600,6.2857685546875,-0.0008821487426757812,0.012103661894798279,-0.003116011619567871
1761369833117378300,6.30437841796875,-0.0007047653198242188,0.00938829779624939,-0.002644866704940796
1761369833135989800,6.32298974609375,0.00629425048828125,0.002145722508430481,0.01188226044178009
1761369833154599400,6.341599365234375,-0.0056972503662109375,-0.01205754280090332,0.02823498845100403
1761369833173211000,6.3602109375,-0.0123443603515625,-0.013898119330406189,0.01839442551136017
1761369833191820500,6.378820556640625,-0.005039215087890625,-0.008960142731666565,0.020563676953315735
1761369833210432000,6.397431884765625,-0.0025682449340820312,-0.010938674211502075,0.020384415984153748
1761369833229041700,6.416041748046875,-0.004847526550292969,0.0033529549837112427,0.0038101375102996826
1761369833247653000,6.434653076171875,-0.004658699035644531,0.007910922169685364,0.006462395191192627
1761369833266262800,6.4532626953125,-0.0022029876708984375,0.007544368505477905,0.009200900793075562
1761369833284874200,6.471874267578125,-0.004492759704589844,0.00960870087146759,0.01161910593509674
1761369833303484000,6.49048388671875,0.00270843505859375,-0.00018097460269927979,0.01646159589290619
1761369833322095400,6.509095458984375,0.0025300979614257812,0.00209905207157135,0.011672481894493103
1761369833340705000,6.527705078125,-0.00917816162109375,-0.011924564838409424,0.01870177686214447
1761369833359316500,6.54631640625,-0.00429534912109375,-0.013734802603721619,0.013821795582771301
1761369833377926400,6.564926513671875,-0.006440162658691406,-0.003983423113822937,0.02312736213207245
1761369833396537600,6.58353759765625,0.0031785964965820312,-0.010859742760658264,0.0111885666847229
1761369833415147300,6.602147216796875,-0.018009185791015625,0.0011927932500839233,0.013689965009689331
1761369833433758700,6.6207587890625,0.0037250518798828125,0.010396242141723633,0.008990377187728882
1761369833452368600,6.63936865234375,0.0058689117431640625,0.012272059917449951,0.0020771175622940063
1761369833470979800,6.657979736328125,-0.006145477294921875,0.009472653269767761,0.004808321595191956
1761369833489589800,6.67658984375,-0.008187294006347656,-0.00016476213932037354,0.0050019025802612305
1761369833508201000,6.695200927734375,-0.014987945556640625,-0.007317349314689636,0.012227073311805725
1761369833526811000,6.713810791015625,0.001857757568359375,-0.0070600807666778564,0.01930844783782959
1761369833545422000,6.732422119140625,-0.002925872802734375,-0.004455730319023132,0.01920294761657715
1761369833564032000,6.751031982421875,-0.0028409957885742188,-0.004307389259338379,0.007391735911369324
1761369833582643200,6.769643310546875,-0.005074501037597656,-0.004135236144065857,0.01690983772277832
1761369833601253000,6.788253173828125,-0.007271766662597656,0.005242958664894104,0.012200891971588135
1761369833619864300,6.8068642578125,0.002330780029296875,0.0028782039880752563,0.002978608012199402
1761369833638474200,6.82547412109375,-0.0024213790893554688,0.007353678345680237,0.007943183183670044
1761369833657085400,6.84408544921875,-0.004706382751464844,0.011700063943862915,0.005749434232711792
1761369833675695400,6.8626953125,-0.0022449493408203125,-0.000474587082862854,0.010769203305244446
1761369833694306600,6.881306640625,-0.004420280456542969,-0.007277503609657288,0.020174503326416016
1761369833712916500,6.89991650390625,-0.016013145446777344,-0.002540290355682373,0.01751941442489624
1761369833731527700,6.918527587890625,0.010125160217285156,-0.0023610442876815796,0.019834965467453003
1761369833750137600,6.9371376953125,-0.004111289978027344,-0.006898865103721619,0.017288416624069214
1761369833768748800,6.955748779296875,0.0006465911865234375,0.0025877952575683594,0.005336567759513855
1761369833787358700,6.974358642578125,-0.0017766952514648438,0.00713329017162323,0.005566254258155823
1761369833805970000,6.992969970703125,0.0030183792114257812,0.009211257100105286,0.01047438383102417
1761369833824579800,7.011579833984375,-0.0063495635986328125,0.011158689856529236,0.001180395483970642
1761369833843191300,7.03019140625,-0.0062274932861328125,-0.0032580792903900146,0.00853276252746582
1761369833861801000,7.048801025390625,0.001071929931640625,-0.0031885355710983276,0.008561745285987854
1761369833880412400,7.067412353515625,-0.0036039352416992188,-0.012385204434394836,0.02043566107749939
1761369833899022000,7.08602197265625,-0.0012178421020507812,-0.0026414096355438232,0.020207881927490234
1761369833917633500,7.104633544921875,-0.008212089538574219,-0.00026473402976989746,0.026949167251586914
1761369833936243200,7.1232431640625,0.0036220550537109375,0.006822019815444946,0.014867201447486877
1761369833954854700,7.141854736328125,-0.0011377334594726562,0.0019030570983886719,0.01242898404598236
1761369833973464300,7.16046435546875,-0.0011501312255859375,0.008820325136184692,0.010245993733406067
1761369833992075800,7.17907568359375,-0.0011606216430664062,0.0038191676139831543,0.005566000938415527
1761369834010685400,7.197685546875,0.001262664794921875,0.0035177022218704224,0.008105307817459106
1761369834029297000,7.216296875,0.0059185028076171875,0.0010068118572235107,0.010669499635696411
1761369834047906600,7.234906494140625,-0.00127410888671875,-0.0013412684202194214,0.020132824778556824
1761369834066518000,7.25351806640625,-0.0012807846069335938,-0.006047159433364868,0.019969865679740906
1761369834085127700,7.272127685546875,-0.0034456253051757812,-0.010501444339752197,0.0173071026802063
1761369834103739100,7.2907392578125,0.0012903213500976562,0.0014973282814025879,0.014772489666938782
1761369834122349000,7.30934912109375,0.008183479309082031,0.006132408976554871,0.017005428671836853
1761369834140960300,7.327960205078125,0.00554656982421875,0.0036314725875854492,0.009999722242355347
1761369834159570200,7.346570068359375,-0.0015535354614257812,-0.012876391410827637,0.014723151922225952
1761369834178181400,7.365181396484375,0.0030355453491210938,-0.0007036030292510986,0.010085418820381165
1761369834196791300,7.383791259765625,-0.00170135498046875,-0.000775754451751709,0.010103404521942139
1761369834215402500,7.402402587890625,-0.00408935546875,-0.0030090659856796265,0.01258474588394165
1761369834234012400,7.421012451171875,0.00086212158203125,-0.000618472695350647,0.017165735363960266
1761369834252623600,7.43962353515625,-0.008592605590820312,-0.007622629404067993,0.014784768223762512
1761369834271233500,7.458233642578125,-0.0013322830200195312,-0.0027549415826797485,0.01701602339744568
1761369834289844700,7.4768447265625,0.008002281188964844,0.004261329770088196,0.016957178711891174
1761369834308454700,7.49545458984375,-0.0014925003051757812,0.004043072462081909,0.019117683172225952
1761369834327065900,7.51406591796875,-0.006161689758300781,0.003909111022949219,0.00960966944694519
1761369834345675800,7.53267578125,0.0010175704956054688,0.005999460816383362,0.007422581315040588
1761369834364287200,7.551287353515625,-0.0060482025146484375,-0.001167580485343933,0.014512747526168823
1761369834382897000,7.56989697265625,0.0034399032592773438,-0.0034677982330322266,0.021384209394454956
1761369834401508400,7.58850830078125,-0.0037441253662109375,-0.005787506699562073,0.021069064736366272
1761369834420118000,7.607117919921875,0.005785942077636719,-0.0030973106622695923,0.01377551257610321
1761369834438729500,7.6257294921875,-0.001399993896484375,0.0039509981870651245,0.02076539397239685
1761369834457339100,7.644339111328125,0.0033473968505859375,-0.003299325704574585,0.004068687558174133
1761369834475950600,7.66295068359375,-0.0061855316162109375,0.00130501389503479,0.006638839840888977
1761369834494560300,7.681560302734375,-0.0035991668701171875,0.006120026111602783,0.01632191240787506
1761369834513171700,7.700171630859375,-0.008236885070800781,-0.005909457802772522,0.009181991219520569
1761369834531781400,7.718781494140625,0.008385658264160156,0.0037351399660110474,0.014008700847625732
1761369834550392800,7.737392822265625,0.008138656616210938,-0.0034918487071990967,0.013937383890151978
1761369834569002800,7.756002685546875,0.0008726119995117188,-0.0010654479265213013,0.011642783880233765
1761369834587614000,7.774614013671875,-0.006191253662109375,-0.005738943815231323,0.01640501618385315
1761369834606224000,7.793223876953125,-0.001251220703125,-0.0031976550817489624,0.01171274483203888
1761369834624835000,7.8118349609375,0.0056896209716796875,-0.003285229206085205,0.016404196619987488
1761369834643445000,7.830445068359375,0.012514114379882812,0.003713458776473999,0.013969704508781433
1761369834662056200,7.84905615234375,0.000438690185546875,0.0035497695207595825,0.01393890380859375
1761369834680666000,7.867666015625,0.0027303695678710938,0.005692586302757263,0.004466608166694641
1761369834699277300,7.88627734375,0.0073032379150390625,0.003039047122001648,0.02112714946269989
1761369834717887200,7.90488720703125,0.004738807678222656,-0.008889004588127136,0.01608860492706299
1761369834736498400,7.92349853515625,-0.0047664642333984375,-0.0038884878158569336,0.013650253415107727
1761369834755108400,7.9421083984375,-0.0070896148681640625,-0.003823027014732361,0.004212126135826111
1761369834773719600,7.960719482421875,-0.009060859680175781,-0.006147652864456177,0.011503711342811584
1761369834792329500,7.97932958984375,0.007548332214355469,0.0010550916194915771,0.011641532182693481
1761369834810941000,7.99794091796875,0.0048961639404296875,0.0010032504796981812,0.013994678854942322
1761369834829550600,8.016550537109374,-0.009203910827636719,0.0032482296228408813,0.01166050136089325
1761369834848162000,8.035162109375,0.005023002624511719,0.007752463221549988,0.016218289732933044
1761369834866771700,8.053771728515626,0.0024538040161132812,-0.006592392921447754,0.011403858661651611
1761369834885383200,8.072383056640625,0.004761695861816406,0.005219846963882446,0.018308773636817932
1761369834903992800,8.090992919921876,0.004635810852050781,0.0002425163984298706,0.018189340829849243
1761369834922604300,8.109604248046875,-0.004906654357910156,-0.009089827537536621,0.020310580730438232
1761369834941214200,8.128214111328125,0.004624366760253906,-0.004196256399154663,0.017745018005371094
1761369834959825400,8.146825439453124,0.00677490234375,-0.0017050504684448242,0.017583519220352173
1761369834978435300,8.165435302734375,0.006541252136230469,0.0006830096244812012,0.00810849666595459
1761369834997046500,8.184046630859376,-0.010005950927734375,-0.0017906129360198975,0.02001991868019104
1761369835015656400,8.202656494140625,0.0019664764404296875,0.000597536563873291,0.008113294839859009
1761369835034267600,8.221267578125,-0.005054473876953125,-0.0016982555389404297,0.017605513334274292
1761369835052877600,8.239877685546874,0.006716728210449219,-0.001745849847793579,0.010502830147743225
1761369835071488800,8.25848876953125,-0.0028142929077148438,0.0006241649389266968,0.019823923707008362
1761369835090098700,8.2770986328125,-0.00042057037353515625,0.0006581395864486694,0.012740939855575562
1761369835108710000,8.2957099609375,0.001857757568359375,-0.0040580034255981445,0.0033271759748458862
1761369835127319800,8.31431982421875,-0.0028429031372070312,-0.0015709251165390015,0.015450432896614075
1761369835145931000,8.332930908203124,-0.005112648010253906,0.0007004886865615845,0.013008549809455872
1761369835164541000,8.351541015625,-0.00028324127197265625,0.0005961954593658447,0.008278578519821167
1761369835183152400,8.37015234375,0.01380157470703125,0.0005904734134674072,0.013176709413528442
1761369835201762000,8.388761962890625,-0.005381584167480469,0.007643446326255798,0.005933746695518494
1761369835220373500,8.40737353515625,0.001850128173828125,0.0003296881914138794,0.006320953369140625
1761369835238983200,8.425983154296874,0.004054069519042969,-0.004319742321968079,0.018134504556655884
1761369835257594600,8.4445947265625,0.0038328170776367188,-0.006518512964248657,0.008550450205802917
1761369835276204300,8.463204345703126,-0.000934600830078125,-0.003916829824447632,0.015641674399375916
1761369835294815700,8.481815673828125,0.0037527084350585938,-0.0013965517282485962,0.02040727436542511
1761369835313425400,8.50042529296875,0.0012989044189453125,0.0009799301624298096,0.010912567377090454
1761369835332036900,8.519036865234375,-0.0034284591674804688,0.0009236633777618408,0.018164068460464478
1761369835350646500,8.537646484375,0.0060100555419921875,0.003277987241744995,-0.0006103813648223877
1761369835369258000,8.556258056640624,-0.00585174560546875,0.005480587482452393,0.011432498693466187
1761369835387868000,8.574867919921875,-0.005667686462402344,-0.0018835067749023438,0.011463016271591187
1761369835406479000,8.59347900390625,0.008557319641113281,0.005187883973121643,0.018528282642364502
1761369835425089000,8.612089111328125,0.0011625289916992188,0.007237270474433899,0.018416255712509155
1761369835443700700,8.63070068359375,0.010455131530761719,-0.00008150935173034668,0.011214137077331543
1761369835462310700,8.649310546875,0.0031557083129882812,-0.002434253692626953,0.013659954071044922
1761369835480921900,8.667921875,0.0006799697875976562,-0.009323880076408386,0.002185344696044922
1761369835499531800,8.68653173828125,0.0006875991821289062,-0.00911112129688263,0.011756837368011475
1761369835518143000,8.70514306640625,0.0053234100341796875,-0.0017752796411514282,0.021211430430412292
1761369835536753000,8.7237529296875,-0.0065174102783203125,0.002983689308166504,0.011578381061553955
1761369835555364000,8.742364013671875,-0.0016431808471679688,-0.0017714500427246094,0.009290292859077454
1761369835573974000,8.76097412109375,-0.0039501190185546875,0.0005851089954376221,0.016436487436294556
1761369835592585200,8.779585205078124,-0.0014362335205078125,0.002898856997489929,0.009196504950523376
1761369835611195100,8.798195068359375,0.010173797607421875,-0.006614997982978821,0.009489178657531738
1761369835629806600,8.816806640625,0.000530242919921875,-0.006452545523643494,0.01189693808555603
1761369835648416300,8.835416259765625,0.005213737487792969,0.002963036298751831,0.018856987357139587
1761369835667027700,8.85402783203125,0.00028324127197265625,-0.004197835922241211,0.01401112973690033
1761369835685637400,8.872637451171874,-0.0019731521606445312,0.0029459595680236816,0.009436458349227905
1761369835704248800,8.891248779296875,-0.0019207000732421875,-0.004197254776954651,0.014232352375984192
1761369835722858500,8.9098583984375,0.002803802490234375,-0.00641302764415741,0.00020101666450500488
1761369835741470000,8.928469970703125,-0.0066375732421875,-0.001590818166732788,0.0052888840436935425
1761369835760080000,8.947079833984375,0.0005950927734375,0.005274280905723572,0.007968679070472717
1761369835778691000,8.965691162109374,0.00052642822265625,-0.0018701404333114624,0.008113786578178406
1761369835797300700,8.98430078125,-0.0065250396728515625,0.0029294341802597046,0.01763179898262024
1761369835815912200,9.002912109375,0.0053730010986328125,-0.0018229037523269653,0.01982848346233368
1761369835834522000,9.021522216796875,0.0051860809326171875,-0.004045501351356506,0.014876648783683777
1761369835853133300,9.04013330078125,-0.0019826889038085938,-0.0015656501054763794,0.012571543455123901
1761369835871743200,9.0587431640625,0.007330894470214844,0.005559563636779785,0.01016785204410553
1761369835890354400,9.0773544921875,-0.007007598876953125,0.0007603764533996582,0.003293335437774658
1761369835908964400,9.09596435546875,0.0003566741943359375,0.0006555467844009399,0.010441601276397705
1761369835927575600,9.114575439453125,-0.0020589828491210938,0.007710561156272888,0.015346765518188477
1761369835946185500,9.133185546875,-0.008945465087890625,0.00044639408588409424,0.01289282739162445
1761369835964796700,9.151796630859375,0.0029964447021484375,-0.004182860255241394,0.015132158994674683
1761369835983406600,9.170406494140625,-0.001781463623046875,-0.004069775342941284,0.014984533190727234
1761369836002018000,9.18901806640625,-0.004044532775878906,0.0008250921964645386,0.014748722314834595
1761369836020627700,9.207627685546875,0.005375862121582031,0.0007518231868743896,0.019391536712646484
1761369836039239200,9.2262392578125,-0.008780479431152344,0.010118573904037476,0.012292638421058655
1761369836057848800,9.244848876953125,-0.0015172958374023438,0.0004468560218811035,0.014624133706092834
1761369836076460300,9.263460205078125,0.003154754638671875,0.00025816261768341064,0.014563843607902527
1761369836095070000,9.282070068359374,-0.008652687072753906,0.0003056377172470093,0.009818583726882935
1761369836113681400,9.300681396484375,0.0010004043579101562,-0.006766021251678467,0.016961976885795593
1761369836132291000,9.319291015625,-0.0060672760009765625,-0.004212930798530579,0.016902819275856018
1761369836150902500,9.337902587890625,0.0012264251708984375,0.00045900046825408936,0.009690150618553162
1761369836169512200,9.35651220703125,0.0011348724365234375,0.0004047304391860962,0.016830846667289734
1761369836188123600,9.37512353515625,-0.00836944580078125,0.00046265125274658203,0.014365985989570618
1761369836206733600,9.393733642578125,0.0059814453125,-0.001783326268196106,0.012158393859863281
1761369836225344800,9.4123447265625,-0.0036420822143554688,-0.004022568464279175,0.012028366327285767
1761369836243954700,9.43095458984375,-0.0034551620483398438,0.0007922351360321045,0.012095257639884949
1761369836262566000,9.44956591796875,0.0034761428833007812,-0.00394633412361145,0.012120768427848816
1761369836281175800,9.46817578125,0.0012292861938476562,-0.0038018375635147095,0.014616161584854126
1761369836299787000,9.486787109375,-0.0011348724365234375,0.0008962154388427734,0.012147113680839539
1761369836318397000,9.50539697265625,-0.0011072158813476562,0.00319652259349823,0.016822218894958496
1761369836337008000,9.524008056640625,0.00115203857421875,-0.0015471577644348145,0.012154445052146912
1761369836355618000,9.5426181640625,0.00118255615234375,0.0008708387613296509,0.016792163252830505
1761369836374229200,9.561229248046875,0.0010938644409179688,0.005487382411956787,0.021329328417778015
1761369836392839200,9.579839111328125,-0.0059356689453125,-0.003996148705482483,0.014088019728660583
1761369836411450600,9.59845068359375,-0.0010786056518554688,-0.0015909373760223389,0.016329124569892883
1761369836430060300,9.617060302734375,0.008322715759277344,-0.0039348304271698,0.02105739712715149
1761369836448671700,9.635671630859376,0.003326416015625,-0.0037334561347961426,0.01848609745502472
1761369836467281400,9.654281494140625,0.0009279251098632812,-0.0012977123260498047,0.013746827840805054
1761369836485892900,9.672892822265625,0.0030889511108398438,0.007986247539520264,0.008859246969223022
1761369836504502500,9.69150244140625,0.003055572509765625,0.003068491816520691,0.018312036991119385
1761369836523114000,9.710114013671875,0.005221366882324219,0.0028743594884872437,0.011127814650535583
1761369836541723600,9.7287236328125,0.0026845932006835938,-0.008874237537384033,0.011222288012504578
1761369836560335000,9.747335205078125,0.00022792816162109375,0.007581979036331177,0.016038909554481506
1761369836578945000,9.765945068359375,-0.0020666122436523438,0.002774074673652649,0.015875786542892456
1761369836597556200,9.78455615234375,-0.006678581237792969,-0.006641894578933716,0.008908823132514954
1761369836616166100,9.803166259765625,0.0028705596923828125,0.005151242017745972,0.013785958290100098
1761369836634777300,9.82177734375,0.005080223083496094,0.012099549174308777,0.004318863153457642
1761369836653387300,9.84038720703125,-0.002124786376953125,0.004788145422935486,0.00934574007987976
1761369836671998500,9.85899853515625,0.007273674011230469,-0.002321764826774597,0.018781423568725586
1761369836690608400,9.8776083984375,0.0023927688598632812,-0.004583820700645447,0.023252874612808228
1761369836709219600,9.896219482421875,0.00693511962890625,-0.011496156454086304,0.022796541452407837
1761369836727829500,9.91482958984375,0.0020656585693359375,-0.004174336791038513,0.013209447264671326
1761369836746440700,9.933440673828125,-0.00036907196044921875,-0.006336838006973267,0.013179272413253784
1761369836765050600,9.952050537109375,-0.0026407241821289062,0.0007432699203491211,0.0015538036823272705
1761369836783661800,9.970661865234375,0.004343986511230469,-0.0017156749963760376,0.011248379945755005
1761369836802271700,9.989271728515625,0.004229545593261719,-0.001621440052986145,0.016009196639060974
1761369836820883200,10.00788330078125,-0.0029058456420898438,0.00783810019493103,0.018163517117500305
1761369836839492900,10.026492919921875,0.00640106201171875,0.003020361065864563,0.013284683227539062
1761369836858104300,10.045104248046876,0.001628875732421875,0.002856031060218811,0.015490606427192688
1761369836876714000,10.0637138671875,0.008547782897949219,-0.006483778357505798,0.02009434998035431
1761369836895325400,10.082325439453125,-0.005795478820800781,0.0007129460573196411,0.013059630990028381
1761369836913935000,10.10093505859375,-0.0032186508178710938,-0.00874580442905426,0.01996469497680664
1761369836932546600,10.119546630859375,-0.003238677978515625,0.0031565427780151367,0.02442169189453125
1761369836951156500,10.138156494140626,0.0016460418701171875,0.0030269473791122437,0.010014578700065613
1761369836969767700,10.156767578125,0.006129264831542969,0.005393415689468384,0.010143741965293884
1761369836988377300,10.17537744140625,-0.008129119873046875,0.002806052565574646,0.01719789206981659
1761369837006988800,10.19398876953125,-0.007792472839355469,0.0003185868263244629,0.017131060361862183
1761369837025598700,10.2125986328125,0.00418853759765625,-0.006715640425682068,0.002924591302871704
1761369837044210000,10.2312099609375,0.0016040802001953125,0.005232304334640503,0.010273337364196777
1761369837062819800,10.24981982421875,0.006205558776855469,0.002743080258369446,0.017530307173728943
1761369837081431000,10.26843115234375,-0.00095367431640625,0.0025320500135421753,0.017264261841773987
1761369837100041000,10.287041015625,0.0060882568359375,-0.004576742649078369,0.017228737473487854
1761369837118652200,10.305652099609375,-0.0011472702026367188,-0.006781384348869324,0.005430266261100769
1761369837137262000,10.324261962890626,-0.003513336181640625,-0.0018740743398666382,0.01511441171169281
1761369837155873300,10.342873291015625,-0.008074760437011719,-0.0019510090351104736,0.00798557698726654
1761369837174483200,10.361483154296875,-0.007815361022949219,0.005041390657424927,0.019726380705833435
1761369837193094700,10.3800947265625,-0.0028162002563476562,0.002495303750038147,0.005363598465919495
1761369837211704300,10.398704345703125,-0.00046062469482421875,0.002658173441886902,0.0009243786334991455
1761369837230315800,10.417315673828124,-0.002773284912109375,-0.00446300208568573,0.010736033320426941
1761369837248925400,10.435925537109375,-0.0049686431884765625,0.0027246326208114624,0.02249567210674286
1761369837267537000,10.454536865234376,0.0067996978759765625,0.00031694769859313965,0.008129671216011047
1761369837286146600,10.473146484375,0.0018949508666992188,-0.006742119789123535,0.01067863404750824
1761369837304758000,10.491758056640625,-0.000492095947265625,0.00048707425594329834,0.013126462697982788
1761369837323367700,10.51036767578125,-0.007472991943359375,0.00037141144275665283,0.017799273133277893
1761369837341979100,10.528979248046875,-0.0026063919067382812,-0.004218921065330505,0.008281320333480835
1761369837360588800,10.5475888671875,0.011478424072265625,0.00286276638507843,0.020068421959877014
1761369837379200300,10.5662001953125,-0.009902000427246094,0.00041359663009643555,0.012827426195144653
1761369837397810200,10.58481005859375,-0.00032806396484375,0.009769350290298462,0.010630235075950623
1761369837416421400,10.60342138671875,0.013719558715820312,0.0047760009765625,0.010623514652252197
1761369837435031300,10.62203125,-0.0030651092529296875,-0.00006942451000213623,0.010680913925170898
1761369837453642500,10.640642578125,-0.005288124084472656,0.006811931729316711,0.013090789318084717
1761369837472252400,10.65925244140625,0.0017795562744140625,-0.00041985511779785156,0.01784345507621765
1761369837490863600,10.677863525390626,-0.002880096435546875,-0.0073747336864471436,0.0106210857629776
1761369837509473500,10.6964736328125,-0.0004787445068359375,-0.0025558769702911377,0.015384674072265625
1761369837528084700,10.715084716796875,0.0018796920776367188,0.004622295498847961,0.012984365224838257
1761369837546694700,10.733694580078126,-0.002979278564453125,-0.004951342940330505,0.012964814901351929
1761369837565306000,10.75230615234375,-0.014677047729492188,-0.0007184594869613647,0.020390421152114868
1761369837583915800,10.770915771484376,0.009014129638671875,0.013447538018226624,-0.02350229024887085
1761369837602527200,10.78952734375,0.02988719940185547,0.0010085850954055786,0.04308821260929108
1761369837621137000,10.808136962890625,-0.015217781066894531,-0.0034415125846862793,-0.0011575371026992798
1761369837639748400,10.826748291015624,0.003696441650390625,-0.01245620846748352,0.021416187286376953
1761369837658358000,10.84535791015625,0.0059680938720703125,-0.009646669030189514,0.02767832577228546
