time,seconds_elapsed,z,y,x
1761369826920061200,0.107061279296875,-0.0018325417768210173,0.0031305921729654074,-0.001374406274408102
1761369826938671000,0.125671142578125,-0.0018325417768210173,0.00129805039614439,-0.001374406274408102
1761369826957282300,0.1442822265625,-0.0006108472589403391,0.0037414394319057465,-0.001374406274408102
1761369826975892200,0.162892333984375,-0.0018325417768210173,0.0037414394319057465,-0.0007635590736754239
1761369826994503400,0.18150341796875,-0.0024433890357613564,0.0025197449140250683,-0.00015271181473508477
1761369827013113000,0.200113037109375,-0.0012216945178806782,0.0031305921729654074,-0.00015271181473508477
1761369827031724500,0.218724609375,-0.0018325417768210173,0.0025197449140250683,-0.00015271181473508477
1761369827050334200,0.237334228515625,-0.0012216945178806782,0.0031305921729654074,0.0011453386396169662
1761369827068945700,0.255945556640625,-0.0018325417768210173,0.0031305921729654074,0.0005344913806766272
1761369827087555300,0.274555419921875,-0.0012216945178806782,0.0019088976550847292,0.0011453386396169662
1761369827106166500,0.29316650390625,-0.0018325417768210173,0.0019088976550847292,-0.00015271181473508477
1761369827124776400,0.3117763671875,-0.0018325417768210173,0.0025197449140250683,0.0005344913806766272
1761369827143387600,0.3303876953125,-0.0018325417768210173,0.0025197449140250683,0.0005344913806766272
1761369827161997600,0.34899755859375,-0.0012216945178806782,0.0025197449140250683,-0.00015271181473508477
1761369827180608800,0.36760888671875,-0.0018325417768210173,0.0037414394319057465,0.0011453386396169662
1761369827199218700,0.38621875,-0.0012216945178806782,0.00129805039614439,-0.00015271181473508477
1761369827217830000,0.404829833984375,-0.0006108472589403391,0.0031305921729654074,0.0005344913806766272
1761369827236439800,0.423439697265625,-0.0018325417768210173,0.0019088976550847292,0.0011453386396169662
1761369827255051000,0.442051025390625,-0.0018325417768210173,0.00129805039614439,0.0011453386396169662
1761369827273661000,0.460660888671875,-0.0024433890357613564,0.0025197449140250683,0.0011453386396169662
1761369827292272000,0.479272216796875,-0.0018325417768210173,0.000687203137204051,0.0011453386396169662
1761369827310882000,0.497882080078125,-0.0012216945178806782,0.0025197449140250683,0.0017561858985573053
1761369827329493200,0.5164931640625,-0.0012216945178806782,0.0031305921729654074,0.0005344913806766272
1761369827348103200,0.535103271484375,-0.0012216945178806782,0.0025197449140250683,0.0005344913806766272
1761369827366714400,0.55371435546875,-0.0018325417768210173,0.0025197449140250683,0.0011453386396169662
1761369827385324000,0.572323974609375,-0.0012216945178806782,0.0019088976550847292,0.0011453386396169662
1761369827403935500,0.590935546875,-0.0024433890357613564,0.0019088976550847292,0.0005344913806766272
1761369827422545200,0.609545166015625,-0.0018325417768210173,0.0025197449140250683,-0.00015271181473508477
1761369827441156600,0.628156494140625,-0.0012216945178806782,0.0019088976550847292,0.0011453386396169662
1761369827459766300,0.646766357421875,-0.0012216945178806782,0.0019088976550847292,0.0017561858985573053
1761369827478377700,0.665377685546875,-0.0018325417768210173,0.00129805039614439,0.0005344913806766272
1761369827496987400,0.6839873046875,-0.0012216945178806782,0.0019088976550847292,0.0011453386396169662
1761369827515598800,0.702598876953125,-0.0018325417768210173,0.0025197449140250683,0.0011453386396169662
1761369827534208500,0.72120849609375,-0.0018325417768210173,0.0025197449140250683,0.0011453386396169662
1761369827552820000,0.739820068359375,-0.0012216945178806782,0.0025197449140250683,0.0011453386396169662
1761369827571429600,0.7584296875,-0.0012216945178806782,0.00129805039614439,0.0011453386396169662
1761369827590041000,0.777041015625,-0.0018325417768210173,0.0019088976550847292,0.0005344913806766272
1761369827608650800,0.795650634765625,-0.0012216945178806782,0.0019088976550847292,0.0011453386396169662
1761369827627262000,0.814261962890625,-0.0012216945178806782,0.0019088976550847292,0.0017561858985573053
1761369827645871900,0.832871826171875,-0.0018325417768210173,0.00129805039614439,0.0011453386396169662
1761369827664483300,0.8514833984375,-0.0018325417768210173,0.0025197449140250683,0.0005344913806766272
1761369827683093000,0.870093017578125,-0.0018325417768210173,0.0025197449140250683,0.0011453386396169662
1761369827701704200,0.8887041015625,-0.0018325417768210173,0.0031305921729654074,0.0005344913806766272
1761369827720314000,0.907314208984375,-0.0012216945178806782,0.0019088976550847292,0.0011453386396169662
1761369827738925600,0.925925537109375,-0.0012216945178806782,0.0025197449140250683,0.0011453386396169662
1761369827757535200,0.94453515625,-0.0018325417768210173,0.0025197449140250683,0.0011453386396169662
1761369827776146400,0.963146484375,-0.0012216945178806782,0.0019088976550847292,0.0011453386396169662
1761369827794756400,0.98175634765625,-0.0006108472589403391,0.0019088976550847292,0.0005344913806766272
1761369827813367600,1.000367431640625,-0.0006108472589403391,0.0019088976550847292,0.0005344913806766272
1761369827831977500,1.0189775390625,-0.0018325417768210173,0.0019088976550847292,0.0005344913806766272
1761369827850588700,1.037588623046875,-0.0012216945178806782,0.0025197449140250683,-0.00015271181473508477
1761369827869198600,1.056198486328125,-0.0018325417768210173,0.0025197449140250683,0.0011453386396169662
1761369827887809800,1.074809814453125,-0.0012216945178806782,0.0031305921729654074,-0.00015271181473508477
1761369827906419700,1.093419677734375,-0.0012216945178806782,0.0037414394319057465,-0.00015271181473508477
1761369827925031000,1.112031005859375,-0.0012216945178806782,0.0025197449140250683,-0.0007635590736754239
1761369827943640800,1.130640869140625,-0.0012216945178806782,0.0025197449140250683,-0.0007635590736754239
1761369827962252000,1.149251953125,-0.0012216945178806782,0.0019088976550847292,-0.00015271181473508477
1761369827980862000,1.167862060546875,-0.0024433890357613564,0.0019088976550847292,-0.0007635590736754239
1761369827999473200,1.18647314453125,-0.0012216945178806782,0.0025197449140250683,0.0005344913806766272
1761369828018083000,1.2050830078125,-0.0018325417768210173,0.0019088976550847292,-0.0007635590736754239
1761369828036694300,1.2236943359375,-0.0024433890357613564,0.0025197449140250683,-0.00015271181473508477
1761369828055304200,1.24230419921875,-0.0012216945178806782,0.0025197449140250683,-0.001985253533348441
1761369828073915400,1.260915283203125,-0.0012216945178806782,0.0031305921729654074,-0.00015271181473508477
1761369828092525300,1.279525390625,-0.0006108472589403391,0.00129805039614439,0.0005344913806766272
1761369828111136500,1.298136474609375,-0.0012216945178806782,0.0025197449140250683,-0.00015271181473508477
1761369828129746400,1.316746337890625,-0.0012216945178806782,0.0025197449140250683,0.0005344913806766272
1761369828148357600,1.335357666015625,-0.0012216945178806782,0.0019088976550847292,0.0005344913806766272
1761369828166967600,1.353967529296875,-0.0018325417768210173,0.0025197449140250683,-0.00015271181473508477
1761369828185579000,1.3725791015625,-0.0018325417768210173,0.0025197449140250683,-0.001374406274408102
1761369828204188700,1.391188720703125,0,0.0019088976550847292,-0.00015271181473508477
1761369828222800000,1.4097998046875,-0.0012216945178806782,0.0031305921729654074,-0.00015271181473508477
1761369828241409800,1.428409912109375,-0.0012216945178806782,0.0025197449140250683,-0.00015271181473508477
1761369828260021200,1.447021240234375,-0.0006108472589403391,0.0025197449140250683,-0.0007635590736754239
1761369828278631000,1.465630859375,-0.0018325417768210173,0.0025197449140250683,-0.00015271181473508477
1761369828297242400,1.484242431640625,-0.0006108472589403391,0.0031305921729654074,-0.0007635590736754239
1761369828315852000,1.50285205078125,-0.0012216945178806782,0.0019088976550847292,-0.0007635590736754239
1761369828334463500,1.52146337890625,-0.0012216945178806782,0.0025197449140250683,-0.0007635590736754239
1761369828353073200,1.5400732421875,-0.0012216945178806782,0.0025197449140250683,-0.0007635590736754239
1761369828371684600,1.5586845703125,-0.0012216945178806782,0.0031305921729654074,-0.00015271181473508477
1761369828390294300,1.577294189453125,-0.0012216945178806782,0.0031305921729654074,-0.00015271181473508477
1761369828408905700,1.59590576171875,-0.0012216945178806782,0.0019088976550847292,-0.0007635590736754239
1761369828427515400,1.614515380859375,-0.0018325417768210173,0.0031305921729654074,-0.00015271181473508477
1761369828446126800,1.633126953125,-0.0012216945178806782,0.0019088976550847292,-0.00015271181473508477
1761369828464736500,1.651736572265625,-0.0012216945178806782,0.0025197449140250683,-0.0007635590736754239
1761369828483348000,1.670347900390625,-0.0006108472589403391,0.0025197449140250683,-0.0007635590736754239
1761369828501957600,1.68895751953125,-0.0012216945178806782,0.0019088976550847292,-0.0007635590736754239
1761369828520569000,1.707569091796875,-0.0018325417768210173,0.0025197449140250683,-0.00015271181473508477
1761369828539178800,1.7261787109375,-0.0006108472589403391,0.0025197449140250683,-0.00015271181473508477
1761369828557790200,1.744790283203125,-0.0006108472589403391,0.0031305921729654074,-0.00015271181473508477
1761369828576400000,1.76339990234375,-0.0018325417768210173,0.0025197449140250683,-0.00015271181473508477
1761369828595011300,1.78201123046875,-0.0012216945178806782,0.0031305921729654074,-0.00015271181473508477
1761369828613621200,1.800621337890625,-0.0012216945178806782,0.0025197449140250683,-0.00015271181473508477
1761369828632232400,1.819232421875,-0.0012216945178806782,0.0019088976550847292,0.0005344913806766272
1761369828650842400,1.83784228515625,-0.0012216945178806782,0.0025197449140250683,-0.00015271181473508477
1761369828669453600,1.85645361328125,-0.0012216945178806782,0.0025197449140250683,-0.00015271181473508477
1761369828688063500,1.8750634765625,-0.0012216945178806782,0.0025197449140250683,0.0005344913806766272
1761369828706674700,1.8936748046875,-0.0012216945178806782,0.0031305921729654074,-0.00015271181473508477
1761369828725284600,1.91228466796875,-0.0012216945178806782,0.0025197449140250683,-0.0007635590736754239
1761369828743895800,1.930895751953125,-0.0012216945178806782,0.0019088976550847292,0.0005344913806766272
1761369828762505700,1.949505615234375,-0.0006108472589403391,0.0025197449140250683,-0.0007635590736754239
1761369828781117000,1.968116943359375,-0.0012216945178806782,0.00129805039614439,0.0005344913806766272
1761369828799726800,1.986726806640625,-0.0012216945178806782,0.0019088976550847292,-0.00015271181473508477
1761369828818338000,2.005338134765625,-0.0012216945178806782,0.0019088976550847292,-0.00015271181473508477
1761369828836948000,2.023947998046875,-0.0018325417768210173,0.0019088976550847292,-0.00015271181473508477
1761369828855559200,2.04255908203125,-0.0012216945178806782,0.0019088976550847292,-0.00015271181473508477
1761369828874169000,2.061169189453125,-0.0012216945178806782,0.0025197449140250683,-0.0007635590736754239
1761369828892780300,2.0797802734375,-0.0012216945178806782,0.0025197449140250683,-0.0007635590736754239
1761369828911390200,2.09839013671875,-0.0012216945178806782,0.0019088976550847292,-0.00015271181473508477
1761369828930001700,2.117001708984375,-0.0006108472589403391,0.0025197449140250683,-0.00015271181473508477
1761369828948611300,2.135611328125,-0.0018325417768210173,0.0025197449140250683,-0.00015271181473508477
1761369828967222500,2.154222412109375,-0.0012216945178806782,0.0031305921729654074,-0.00015271181473508477
1761369828985832400,2.17283251953125,-0.0012216945178806782,0.0025197449140250683,-0.00015271181473508477
1761369829004444000,2.19144384765625,-0.0018325417768210173,0.0019088976550847292,0.0005344913806766272
1761369829023053600,2.210053466796875,-0.0018325417768210173,0.0025197449140250683,-0.00015271181473508477
1761369829041665000,2.2286650390625,-0.0006108472589403391,0.0025197449140250683,-0.00015271181473508477
1761369829060274700,2.247274658203125,-0.0012216945178806782,0.0025197449140250683,0.0005344913806766272
1761369829078886100,2.26588623046875,-0.0018325417768210173,0.0031305921729654074,-0.0007635590736754239
1761369829097495800,2.284495849609375,-0.0024433890357613564,0.0019088976550847292,-0.00015271181473508477
1761369829116107300,2.303107177734375,-0.0012216945178806782,0.0019088976550847292,-0.00015271181473508477
1761369829134717000,2.321717041015625,-0.0018325417768210173,0.0019088976550847292,-0.00015271181473508477
1761369829153328400,2.340328369140625,-0.0012216945178806782,0.0025197449140250683,-0.00015271181473508477
1761369829171938000,2.35893798828125,-0.0012216945178806782,0.0025197449140250683,-0.00015271181473508477
1761369829190549500,2.377549560546875,-0.0012216945178806782,0.0025197449140250683,0.0005344913806766272
1761369829209159400,2.396159423828125,-0.0012216945178806782,0.0019088976550847292,0.0005344913806766272
1761369829227770600,2.4147705078125,-0.0012216945178806782,0.0019088976550847292,0.0005344913806766272
1761369829246380500,2.433380615234375,-0.0006108472589403391,0.0019088976550847292,-0.0007635590736754239
1761369829264991700,2.45199169921875,-0.0018325417768210173,0.0031305921729654074,0.0005344913806766272
1761369829283601700,2.4706015625,-0.0012216945178806782,0.0025197449140250683,0.0005344913806766272
1761369829302212900,2.489212890625,-0.0018325417768210173,0.0031305921729654074,0.0005344913806766272
1761369829320822800,2.50782275390625,-0.0012216945178806782,0.0031305921729654074,-0.00015271181473508477
1761369829339434000,2.52643408203125,-0.0012216945178806782,0.0019088976550847292,0.0005344913806766272
1761369829358044000,2.5450439453125,-0.0006108472589403391,0.0025197449140250683,0.0005344913806766272
1761369829376655000,2.563655029296875,-0.0012216945178806782,0.0025197449140250683,0.0005344913806766272
1761369829395265000,2.58226513671875,-0.0006108472589403391,0.0031305921729654074,0.0011453386396169662
1761369829413876200,2.600876220703125,-0.0006108472589403391,0.0025197449140250683,0.0011453386396169662
1761369829432486100,2.619486083984375,-0.0018325417768210173,0.0025197449140250683,-0.00015271181473508477
1761369829451097300,2.638097412109375,-0.0012216945178806782,0.0031305921729654074,-0.00015271181473508477
1761369829469707300,2.656707275390625,-0.0018325417768210173,0.0025197449140250683,0.0005344913806766272
1761369829488318500,2.675318359375,-0.0012216945178806782,0.0025197449140250683,-0.00015271181473508477
1761369829506928400,2.693928466796875,-0.0018325417768210173,0.0025197449140250683,-0.00015271181473508477
1761369829525539800,2.712539794921875,-0.0012216945178806782,0.0025197449140250683,-0.00015271181473508477
1761369829544149500,2.7311494140625,-0.0012216945178806782,0.0019088976550847292,-0.0007635590736754239
1761369829562761000,2.749760986328125,-0.0012216945178806782,0.0025197449140250683,0.0005344913806766272
1761369829581370600,2.76837060546875,-0.0006108472589403391,0.00129805039614439,0.0005344913806766272
1761369829599982000,2.786982177734375,-0.0012216945178806782,0.0019088976550847292,-0.00015271181473508477
1761369829618591700,2.805591796875,-0.0018325417768210173,0.0025197449140250683,-0.00015271181473508477
1761369829637203200,2.824203125,-0.0012216945178806782,0.0019088976550847292,-0.00015271181473508477
1761369829655812900,2.842812744140625,-0.0012216945178806782,0.0031305921729654074,-0.0007635590736754239
1761369829674424300,2.86142431640625,-0.0012216945178806782,0.0019088976550847292,0.0005344913806766272
1761369829693034000,2.880033935546875,-0.0018325417768210173,0.0025197449140250683,-0.00015271181473508477
1761369829711645400,2.8986455078125,0,0.0025197449140250683,0.0005344913806766272
1761369829730255000,2.917255126953125,-0.0018325417768210173,0.0025197449140250683,-0.00015271181473508477
1761369829748866600,2.935866455078125,-0.0018325417768210173,0.0019088976550847292,-0.00015271181473508477
1761369829767476200,2.954476318359375,-0.0018325417768210173,0.0025197449140250683,-0.00015271181473508477
1761369829786087700,2.973087646484375,-0.0018325417768210173,0.0025197449140250683,0.0005344913806766272
1761369829804697600,2.991697509765625,-0.0012216945178806782,0.0037414394319057465,-0.00015271181473508477
1761369829823308800,3.010308837890625,-0.0018325417768210173,0.0019088976550847292,-0.00015271181473508477
1761369829841918700,3.028918701171875,-0.0024433890357613564,0.0025197449140250683,0.0005344913806766272
1761369829860530000,3.047530029296875,-0.0012216945178806782,0.0019088976550847292,-0.00015271181473508477
1761369829879139800,3.066139892578125,-0.0018325417768210173,0.0031305921729654074,0.0005344913806766272
1761369829897751000,3.0847509765625,-0.0018325417768210173,0.0025197449140250683,0.0005344913806766272
1761369829916361000,3.10336083984375,-0.0018325417768210173,0.0025197449140250683,-0.00015271181473508477
1761369829934972200,3.12197216796875,-0.0018325417768210173,0.0019088976550847292,0.0011453386396169662
1761369829953582000,3.14058203125,-0.0018325417768210173,0.0025197449140250683,0.0005344913806766272
1761369829972193300,3.159193359375,-0.0012216945178806782,0.0031305921729654074,-0.00015271181473508477
1761369829990803200,3.17780322265625,-0.0012216945178806782,0.0025197449140250683,-0.00015271181473508477
1761369830009414400,3.196414306640625,-0.0012216945178806782,0.0025197449140250683,-0.0007635590736754239
1761369830028024300,3.2150244140625,-0.0012216945178806782,0.0019088976550847292,0.0005344913806766272
1761369830046635500,3.233635498046875,-0.0012216945178806782,0.0019088976550847292,-0.00015271181473508477
1761369830065245400,3.252245361328125,-0.0012216945178806782,0.0031305921729654074,0.0005344913806766272
1761369830083856600,3.270856689453125,-0.0018325417768210173,0.0019088976550847292,-0.00015271181473508477
1761369830102466600,3.289466552734375,-0.0012216945178806782,0.0019088976550847292,-0.00015271181473508477
1761369830121078000,3.308078125,-0.0012216945178806782,0.0025197449140250683,-0.00015271181473508477
1761369830139687700,3.326687744140625,-0.0012216945178806782,0.0025197449140250683,-0.00015271181473508477
1761369830158299100,3.345299072265625,-0.0012216945178806782,0.0025197449140250683,-0.00015271181473508477
1761369830176908800,3.36390869140625,-0.0018325417768210173,0.0019088976550847292,0.0005344913806766272
1761369830195520300,3.382520263671875,-0.0012216945178806782,0.0025197449140250683,-0.00015271181473508477
1761369830214130000,3.4011298828125,-0.0018325417768210173,0.0025197449140250683,0.0005344913806766272
1761369830232741400,3.419741455078125,-0.0018325417768210173,0.0019088976550847292,-0.00015271181473508477
1761369830251351000,3.43835107421875,-0.0012216945178806782,0.0019088976550847292,-0.00015271181473508477
1761369830269962500,3.45696240234375,-0.0024433890357613564,0.0019088976550847292,0.0011453386396169662
1761369830288572200,3.475572265625,-0.0018325417768210173,0.0019088976550847292,0.0005344913806766272
1761369830307183600,3.49418359375,-0.0024433890357613564,0.000687203137204051,0.0005344913806766272
1761369830325793500,3.51279345703125,-0.0018325417768210173,0.0019088976550847292,-0.00015271181473508477
1761369830344404700,3.53140478515625,-0.0018325417768210173,0.0019088976550847292,0.0005344913806766272
1761369830363014400,3.550014404296875,-0.0012216945178806782,0.0019088976550847292,0.0017561858985573053
1761369830381625900,3.5686259765625,-0.0018325417768210173,0.0019088976550847292,0.0005344913806766272
1761369830400235800,3.58723583984375,-0.0018325417768210173,0.0025197449140250683,0.0005344913806766272
1761369830418847000,3.605846923828125,-0.0012216945178806782,0.00129805039614439,-0.0007635590736754239
1761369830437457000,3.624456787109375,-0.0018325417768210173,0.0025197449140250683,-0.00015271181473508477
1761369830456068000,3.643068115234375,-0.0006108472589403391,0.0025197449140250683,0.0005344913806766272
1761369830474678000,3.661677978515625,-0.0012216945178806782,0.0031305921729654074,-0.00015271181473508477
1761369830493289200,3.680289306640625,-0.0012216945178806782,0.0031305921729654074,-0.00015271181473508477
1761369830511899100,3.698899169921875,-0.0018325417768210173,0.0019088976550847292,-0.00015271181473508477
1761369830530510300,3.71751025390625,-0.0012216945178806782,0.0031305921729654074,-0.00015271181473508477
1761369830549120300,3.736120361328125,-0.0006108472589403391,0.0025197449140250683,-0.00015271181473508477
1761369830567731500,3.7547314453125,-0.0018325417768210173,0.0025197449140250683,-0.00015271181473508477
1761369830586341400,3.77334130859375,-0.0006108472589403391,0.0019088976550847292,-0.00015271181473508477
1761369830604952600,3.79195263671875,-0.0012216945178806782,0.0025197449140250683,0.0005344913806766272
1761369830623562500,3.8105625,-0.0018325417768210173,0.0025197449140250683,0.0005344913806766272
1761369830642174000,3.829174072265625,-0.0018325417768210173,0.0025197449140250683,-0.00015271181473508477
1761369830660783600,3.84778369140625,-0.0012216945178806782,0.0025197449140250683,0.0005344913806766272
1761369830679394800,3.866394775390625,-0.0012216945178806782,0.0031305921729654074,-0.00015271181473508477
1761369830698004700,3.885004638671875,-0.0006108472589403391,0.0025197449140250683,-0.00015271181473508477
1761369830716616200,3.9036162109375,-0.0012216945178806782,0.0031305921729654074,0.0005344913806766272
1761369830735225900,3.922225830078125,-0.0012216945178806782,0.0025197449140250683,0.0011453386396169662
1761369830753837300,3.94083740234375,-0.0012216945178806782,0.0019088976550847292,0.0011453386396169662
1761369830772447000,3.959447021484375,-0.0012216945178806782,0.00129805039614439,0.0017561858985573053
1761369830791058400,3.978058349609375,-0.0012216945178806782,0.0019088976550847292,0.0011453386396169662
1761369830809668000,3.996668212890625,-0.0012216945178806782,0.0025197449140250683,0.0005344913806766272
1761369830828279600,4.015279541015625,-0.0012216945178806782,0.0019088976550847292,0.0011453386396169662
1761369830846889200,4.03388916015625,-0.0018325417768210173,0.0019088976550847292,0.0005344913806766272
1761369830865500700,4.052500732421875,-0.0012216945178806782,0.00129805039614439,0.0005344913806766272
1761369830884110300,4.0711103515625,-0.0018325417768210173,0.0019088976550847292,0.0005344913806766272
1761369830902721800,4.0897216796875,-0.0012216945178806782,0.0019088976550847292,0.0005344913806766272
1761369830921331700,4.108331787109375,-0.0018325417768210173,0.0019088976550847292,0.0005344913806766272
1761369830939943000,4.12694287109375,-0.0018325417768210173,0.0025197449140250683,0.0011453386396169662
1761369830958552600,4.145552490234375,-0.0018325417768210173,0.0019088976550847292,-0.00015271181473508477
1761369830977164000,4.1641640625,-0.0018325417768210173,0.0025197449140250683,-0.00015271181473508477
1761369830995774000,4.18277392578125,-0.0012216945178806782,0.0031305921729654074,-0.00015271181473508477
1761369831014385200,4.20138525390625,-0.0012216945178806782,0.0025197449140250683,0.0005344913806766272
1761369831032995000,4.2199951171875,-0.0012216945178806782,0.0025197449140250683,-0.00015271181473508477
1761369831051606300,4.238606201171875,-0.0012216945178806782,0.0025197449140250683,-0.00015271181473508477
1761369831070216200,4.25721630859375,-0.0012216945178806782,0.0025197449140250683,-0.0007635590736754239
1761369831088827400,4.275827392578125,-0.0018325417768210173,0.0019088976550847292,-0.00015271181473508477
1761369831107437300,4.294437255859375,-0.0018325417768210173,0.0031305921729654074,0.0005344913806766272
1761369831126048500,4.313048583984375,-0.0006108472589403391,0.0025197449140250683,0.0005344913806766272
1761369831144658400,4.331658447265625,-0.0012216945178806782,0.0025197449140250683,0.0005344913806766272
1761369831163269600,4.35026953125,-0.0006108472589403391,0.0031305921729654074,-0.00015271181473508477
1761369831181879600,4.368879638671875,-0.0018325417768210173,0.0019088976550847292,-0.00015271181473508477
1761369831200490800,4.38749072265625,-0.0006108472589403391,0.0025197449140250683,-0.0007635590736754239
1761369831219100700,4.4061005859375,-0.0012216945178806782,0.0031305921729654074,-0.00015271181473508477
1761369831237712000,4.4247119140625,-0.0018325417768210173,0.0019088976550847292,-0.00015271181473508477
1761369831256321800,4.44332177734375,-0.0012216945178806782,0.0019088976550847292,0.0005344913806766272
1761369831274933000,4.46193310546875,-0.0012216945178806782,0.0019088976550847292,-0.0007635590736754239
1761369831293543000,4.48054296875,-0.0012216945178806782,0.0025197449140250683,-0.00015271181473508477
1761369831312154400,4.499154296875,-0.0012216945178806782,0.0025197449140250683,-0.0007635590736754239
1761369831330764000,4.517763916015625,-0.0012216945178806782,0.0031305921729654074,-0.00015271181473508477
1761369831349375500,4.53637548828125,-0.0018325417768210173,0.00129805039614439,0.0005344913806766272
1761369831367985200,4.554985107421875,-0.0012216945178806782,0.0019088976550847292,-0.00015271181473508477
1761369831386596600,4.5735966796875,-0.0012216945178806782,0.0019088976550847292,0.0005344913806766272
1761369831405206300,4.592206298828125,-0.0012216945178806782,0.0025197449140250683,-0.0007635590736754239
1761369831423817700,4.610817626953125,-0.0012216945178806782,0.0019088976550847292,-0.00015271181473508477
1761369831442427400,4.629427490234375,-0.0012216945178806782,0.0025197449140250683,0.0005344913806766272
1761369831461038800,4.648038818359375,-0.0006108472589403391,0.0019088976550847292,0.0005344913806766272
1761369831479648500,4.6666484375,-0.0012216945178806782,0.0025197449140250683,0.0005344913806766272
1761369831498260000,4.685260009765625,-0.0012216945178806782,0.0025197449140250683,0.0005344913806766272
1761369831516869600,4.70386962890625,-0.0012216945178806782,0.0019088976550847292,0.0011453386396169662
1761369831535481000,4.722481201171875,-0.0012216945178806782,0.0019088976550847292,0.0011453386396169662
1761369831554090800,4.7410908203125,-0.0012216945178806782,0.0025197449140250683,0.0005344913806766272
1761369831572702200,4.7597021484375,-0.0024433890357613564,0.0019088976550847292,-0.00015271181473508477
1761369831591312100,4.77831201171875,-0.0012216945178806782,0.000687203137204051,-0.00015271181473508477
1761369831609923300,4.79692333984375,-0.0012216945178806782,0.0025197449140250683,0.0005344913806766272
1761369831628533000,4.815532958984375,-0.0006108472589403391,0.0025197449140250683,-0.00015271181473508477
1761369831647144400,4.83414453125,-0.0006108472589403391,0.0025197449140250683,-0.0007635590736754239
1761369831665754400,4.85275439453125,-0.0018325417768210173,0.0019088976550847292,-0.00015271181473508477
1761369831684365600,4.871365478515625,-0.0018325417768210173,0.0031305921729654074,-0.0007635590736754239
1761369831702975500,4.8899755859375,-0.0006108472589403391,0.0019088976550847292,0.0005344913806766272
1761369831721586700,4.908586669921875,-0.0012216945178806782,0.0025197449140250683,-0.00015271181473508477
1761369831740196600,4.927196533203125,-0.0018325417768210173,0.0025197449140250683,0.0005344913806766272
1761369831758807800,4.945807861328125,-0.0018325417768210173,0.0025197449140250683,0.0005344913806766272
1761369831777417700,4.964417724609375,-0.0012216945178806782,0.0031305921729654074,0.0011453386396169662
1761369831796029000,4.98302880859375,-0.0024433890357613564,0.0019088976550847292,0.0005344913806766272
1761369831814638800,5.001638916015625,-0.0018325417768210173,0.0019088976550847292,0.0005344913806766272
1761369831833250000,5.02025,-0.0006108472589403391,0.0031305921729654074,0.0005344913806766272
1761369831851860000,5.03885986328125,-0.0024433890357613564,0.0019088976550847292,0.0005344913806766272
1761369831870471200,5.05747119140625,-0.0018325417768210173,0.0019088976550847292,-0.00015271181473508477
1761369831889081000,5.0760810546875,-0.0012216945178806782,0.0019088976550847292,-0.00015271181473508477
1761369831907692300,5.0946923828125,-0.0006108472589403391,0.0019088976550847292,0.0005344913806766272
1761369831926302200,5.11330224609375,-0.0012216945178806782,0.0025197449140250683,0.0011453386396169662
1761369831944913400,5.131913330078125,-0.0012216945178806782,0.0025197449140250683,-0.00015271181473508477
1761369831963523300,5.1505234375,-0.0018325417768210173,0.0019088976550847292,0.0011453386396169662
1761369831982134500,5.169134521484375,-0.0012216945178806782,0.00129805039614439,0.0011453386396169662
1761369832000744400,5.187744384765625,-0.0012216945178806782,0.0025197449140250683,-0.00015271181473508477
1761369832019355600,5.206355712890625,-0.0012216945178806782,0.0031305921729654074,-0.00015271181473508477
1761369832037965600,5.224965576171875,-0.0012216945178806782,0.0019088976550847292,0.0005344913806766272
1761369832056577000,5.243576904296875,-0.0012216945178806782,0.0019088976550847292,-0.0007635590736754239
1761369832075186700,5.262186767578125,-0.0012216945178806782,0.0025197449140250683,0.0005344913806766272
1761369832093798100,5.280798095703125,-0.0012216945178806782,0.0019088976550847292,-0.00015271181473508477
1761369832112407800,5.29940771484375,-0.0018325417768210173,0.0025197449140250683,-0.00015271181473508477
1761369832131019300,5.318019287109375,-0.0018325417768210173,0.0025197449140250683,-0.0007635590736754239
1761369832149629000,5.33662890625,-0.0012216945178806782,0.0025197449140250683,-0.00015271181473508477
1761369832168240400,5.355240478515625,-0.0012216945178806782,0.0019088976550847292,-0.00015271181473508477
1761369832186850000,5.37385009765625,-0.0012216945178806782,0.0025197449140250683,0.0005344913806766272
1761369832205461500,5.39246142578125,-0.0012216945178806782,0.0025197449140250683,0.0005344913806766272
1761369832224071200,5.4110712890625,-0.0012216945178806782,0.0025197449140250683,-0.0007635590736754239
1761369832242682600,5.4296826171875,-0.0012216945178806782,0.0025197449140250683,-0.00015271181473508477
1761369832261292300,5.448292236328125,-0.0018325417768210173,0.0025197449140250683,-0.00015271181473508477
1761369832279903700,5.46690380859375,-0.0018325417768210173,0.0025197449140250683,0.0005344913806766272
1761369832298513400,5.485513427734375,-0.0018325417768210173,0.0019088976550847292,0.0005344913806766272
1761369832317124900,5.504124755859375,-0.0018325417768210173,0.0019088976550847292,-0.00015271181473508477
1761369832335734500,5.522734619140625,-0.0012216945178806782,0.0025197449140250683,0.0005344913806766272
1761369832354346000,5.541345947265625,-0.0012216945178806782,0.0025197449140250683,-0.00015271181473508477
1761369832372955600,5.55995556640625,-0.0012216945178806782,0.0025197449140250683,-0.00015271181473508477
1761369832391567000,5.578567138671875,-0.0006108472589403391,0.0031305921729654074,0.0011453386396169662
1761369832410177000,5.597177001953125,-0.0018325417768210173,0.0019088976550847292,-0.00015271181473508477
1761369832428788200,5.615788330078125,-0.0018325417768210173,0.0019088976550847292,0.0011453386396169662
1761369832447398100,5.634398193359375,-0.0012216945178806782,0.0019088976550847292,0.0005344913806766272
1761369832466009300,5.65300927734375,-0.0012216945178806782,0.0025197449140250683,-0.00015271181473508477
1761369832484619300,5.671619384765625,-0.0012216945178806782,0.0025197449140250683,-0.00015271181473508477
1761369832503230500,5.69023046875,-0.0018325417768210173,0.0019088976550847292,-0.00015271181473508477
1761369832521840400,5.70884033203125,-0.0018325417768210173,0.0019088976550847292,-0.00015271181473508477
1761369832540451600,5.72745166015625,-0.0012216945178806782,0.0019088976550847292,-0.0007635590736754239
1761369832559061500,5.7460615234375,-0.0018325417768210173,0.0025197449140250683,-0.00015271181473508477
1761369832577672700,5.764672607421875,-0.0006108472589403391,0.0019088976550847292,-0.0007635590736754239
1761369832596282600,5.78328271484375,-0.0018325417768210173,0.0025197449140250683,-0.001374406274408102
1761369832614893800,5.801893798828125,-0.0018325417768210173,0.0025197449140250683,-0.0007635590736754239
1761369832633503700,5.820503662109375,-0.0006108472589403391,0.0025197449140250683,-0.0007635590736754239
1761369832652115000,5.839114990234375,-0.0012216945178806782,0.0025197449140250683,-0.0007635590736754239
1761369832670724900,5.857724853515625,-0.0006108472589403391,0.0031305921729654074,-0.00015271181473508477
1761369832689336000,5.876336181640625,-0.0012216945178806782,0.0031305921729654074,-0.001374406274408102
1761369832707946000,5.894946044921875,-0.0018325417768210173,0.0025197449140250683,-0.0007635590736754239
1761369832726557200,5.91355712890625,-0.0012216945178806782,0.0025197449140250683,0.0005344913806766272
1761369832745167000,5.9321669921875,-0.0006108472589403391,0.0025197449140250683,0.0005344913806766272
1761369832763778300,5.9507783203125,-0.0012216945178806782,0.0031305921729654074,-0.00015271181473508477
1761369832782388200,5.96938818359375,-0.0006108472589403391,0.0025197449140250683,-0.00015271181473508477
1761369832800999400,5.98799951171875,-0.0012216945178806782,0.0025197449140250683,-0.00015271181473508477
1761369832819609300,6.006609375,-0.0018325417768210173,0.0025197449140250683,-0.00015271181473508477
1761369832838220500,6.025220458984375,-0.0024433890357613564,0.00129805039614439,0.0005344913806766272
1761369832856830500,6.04383056640625,-0.0018325417768210173,0.0019088976550847292,0.0005344913806766272
1761369832875442000,6.06244189453125,-0.0006108472589403391,0.0025197449140250683,0.0011453386396169662
1761369832894051600,6.081051513671875,-0.0018325417768210173,0.0019088976550847292,-0.00015271181473508477
1761369832912663000,6.0996630859375,-0.0018325417768210173,0.0025197449140250683,-0.00015271181473508477
1761369832931272700,6.118272705078125,-0.0018325417768210173,0.0019088976550847292,0.0011453386396169662
1761369832949884200,6.13688427734375,-0.0012216945178806782,0.00129805039614439,0.0005344913806766272
1761369832968493800,6.155493896484375,-0.0006108472589403391,0.0019088976550847292,0.0011453386396169662
1761369832987105300,6.174105224609375,-0.0012216945178806782,0.0025197449140250683,-0.00015271181473508477
1761369833005715000,6.19271484375,-0.0012216945178806782,0.0019088976550847292,-0.00015271181473508477
1761369833024326400,6.211326416015625,-0.0018325417768210173,0.0019088976550847292,-0.00015271181473508477
1761369833042936000,6.22993603515625,-0.0006108472589403391,0.0025197449140250683,-0.0007635590736754239
1761369833061547500,6.248547607421875,-0.0012216945178806782,0.0025197449140250683,-0.00015271181473508477
1761369833080157200,6.2671572265625,-0.0012216945178806782,0.0025197449140250683,0.0005344913806766272
1761369833098768600,6.2857685546875,-0.0006108472589403391,0.0025197449140250683,-0.00015271181473508477
1761369833117378300,6.30437841796875,-0.0012216945178806782,0.0025197449140250683,-0.00015271181473508477
1761369833135989800,6.32298974609375,-0.0024433890357613564,0.0019088976550847292,-0.00015271181473508477
1761369833154599400,6.341599365234375,-0.0012216945178806782,0.0025197449140250683,-0.0007635590736754239
1761369833173211000,6.3602109375,-0.0018325417768210173,0.0019088976550847292,0.0005344913806766272
1761369833191820500,6.378820556640625,-0.0012216945178806782,0.0025197449140250683,0.0011453386396169662
1761369833210432000,6.397431884765625,-0.0012216945178806782,0.0025197449140250683,-0.00015271181473508477
1761369833229041700,6.416041748046875,-0.0006108472589403391,0.0025197449140250683,-0.00015271181473508477
1761369833247653000,6.434653076171875,-0.0018325417768210173,0.0031305921729654074,-0.00015271181473508477
1761369833266262800,6.4532626953125,-0.0018325417768210173,0.0025197449140250683,-0.00015271181473508477
1761369833284874200,6.471874267578125,-0.0012216945178806782,0.0025197449140250683,0.0005344913806766272
1761369833303484000,6.49048388671875,-0.0012216945178806782,0.0031305921729654074,-0.00015271181473508477
1761369833322095400,6.509095458984375,-0.0012216945178806782,0.0025197449140250683,-0.00015271181473508477
1761369833340705000,6.527705078125,-0.0018325417768210173,0.0019088976550847292,-0.00015271181473508477
1761369833359316500,6.54631640625,-0.0012216945178806782,0.0025197449140250683,-0.0007635590736754239
1761369833377926400,6.564926513671875,-0.0018325417768210173,0.0025197449140250683,-0.00015271181473508477
1761369833396537600,6.58353759765625,-0.0012216945178806782,0.0031305921729654074,-0.00015271181473508477
1761369833415147300,6.602147216796875,-0.0012216945178806782,0.0031305921729654074,-0.00015271181473508477
1761369833433758700,6.6207587890625,-0.0012216945178806782,0.0019088976550847292,0.0005344913806766272
1761369833452368600,6.63936865234375,-0.0018325417768210173,0.0025197449140250683,0.0005344913806766272
1761369833470979800,6.657979736328125,-0.0012216945178806782,0.0019088976550847292,-0.00015271181473508477
1761369833489589800,6.67658984375,-0.0018325417768210173,0.0019088976550847292,-0.00015271181473508477
1761369833508201000,6.695200927734375,-0.0012216945178806782,0.0019088976550847292,0.0005344913806766272
1761369833526811000,6.713810791015625,-0.0012216945178806782,0.0025197449140250683,-0.00015271181473508477
1761369833545422000,6.732422119140625,-0.0006108472589403391,0.0031305921729654074,-0.00015271181473508477
1761369833564032000,6.751031982421875,-0.0006108472589403391,0.0025197449140250683,-0.00015271181473508477
1761369833582643200,6.769643310546875,-0.0018325417768210173,0.0025197449140250683,-0.00015271181473508477
1761369833601253000,6.788253173828125,-0.0018325417768210173,0.0031305921729654074,0.0005344913806766272
1761369833619864300,6.8068642578125,-0.0018325417768210173,0.0025197449140250683,-0.0007635590736754239
1761369833638474200,6.82547412109375,-0.0018325417768210173,0.0019088976550847292,-0.00015271181473508477
1761369833657085400,6.84408544921875,-0.0012216945178806782,0.0025197449140250683,0.0005344913806766272
1761369833675695400,6.8626953125,-0.0012216945178806782,0.0025197449140250683,0.0005344913806766272
1761369833694306600,6.881306640625,-0.0012216945178806782,0.0025197449140250683,-0.0007635590736754239
1761369833712916500,6.89991650390625,-0.0012216945178806782,0.0019088976550847292,0.0005344913806766272
1761369833731527700,6.918527587890625,-0.0006108472589403391,0.0031305921729654074,-0.00015271181473508477
1761369833750137600,6.9371376953125,-0.0018325417768210173,0.0025197449140250683,-0.00015271181473508477
1761369833768748800,6.955748779296875,-0.0018325417768210173,0.0019088976550847292,0.0005344913806766272
1761369833787358700,6.974358642578125,0,0.0025197449140250683,-0.00015271181473508477
1761369833805970000,6.992969970703125,-0.0012216945178806782,0.0025197449140250683,0.0005344913806766272
1761369833824579800,7.011579833984375,-0.0012216945178806782,0.0019088976550847292,-0.00015271181473508477
1761369833843191300,7.03019140625,-0.0012216945178806782,0.0025197449140250683,0.0005344913806766272
1761369833861801000,7.048801025390625,-0.0012216945178806782,0.0019088976550847292,-0.00015271181473508477
1761369833880412400,7.067412353515625,-0.0018325417768210173,0.0025197449140250683,-0.00015271181473508477
1761369833899022000,7.08602197265625,-0.0018325417768210173,0.0019088976550847292,0.0005344913806766272
1761369833917633500,7.104633544921875,-0.0018325417768210173,0.0025197449140250683,-0.0007635590736754239
1761369833936243200,7.1232431640625,-0.0012216945178806782,0.0025197449140250683,-0.00015271181473508477
1761369833954854700,7.141854736328125,-0.0018325417768210173,0.0019088976550847292,-0.0007635590736754239
1761369833973464300,7.16046435546875,-0.0018325417768210173,0.0025197449140250683,0.0005344913806766272
1761369833992075800,7.17907568359375,-0.0012216945178806782,0.0019088976550847292,0.0005344913806766272
1761369834010685400,7.197685546875,-0.0018325417768210173,0.0025197449140250683,0.0005344913806766272
1761369834029297000,7.216296875,-0.0006108472589403391,0.0025197449140250683,0.0005344913806766272
1761369834047906600,7.234906494140625,-0.0012216945178806782,0.0031305921729654074,0.0005344913806766272
1761369834066518000,7.25351806640625,-0.0018325417768210173,0.0025197449140250683,0.0005344913806766272
1761369834085127700,7.272127685546875,-0.0018325417768210173,0.00129805039614439,-0.0007635590736754239
1761369834103739100,7.2907392578125,-0.0012216945178806782,0.0019088976550847292,-0.00015271181473508477
1761369834122349000,7.30934912109375,-0.0012216945178806782,0.0019088976550847292,-0.00015271181473508477
1761369834140960300,7.327960205078125,-0.0012216945178806782,0.0031305921729654074,-0.00015271181473508477
1761369834159570200,7.346570068359375,-0.0018325417768210173,0.0025197449140250683,0.0005344913806766272
1761369834178181400,7.365181396484375,-0.0012216945178806782,0.0031305921729654074,-0.00015271181473508477
1761369834196791300,7.383791259765625,-0.0012216945178806782,0.0019088976550847292,0.0005344913806766272
1761369834215402500,7.402402587890625,-0.0006108472589403391,0.0025197449140250683,-0.00015271181473508477
1761369834234012400,7.421012451171875,-0.0018325417768210173,0.0019088976550847292,-0.00015271181473508477
1761369834252623600,7.43962353515625,-0.0012216945178806782,0.0025197449140250683,0.0005344913806766272
1761369834271233500,7.458233642578125,-0.0006108472589403391,0.0025197449140250683,0.0005344913806766272
1761369834289844700,7.4768447265625,-0.0018325417768210173,0.0025197449140250683,0.0005344913806766272
1761369834308454700,7.49545458984375,-0.0006108472589403391,0.0025197449140250683,-0.00015271181473508477
1761369834327065900,7.51406591796875,-0.0012216945178806782,0.0025197449140250683,-0.00015271181473508477
1761369834345675800,7.53267578125,-0.0012216945178806782,0.0019088976550847292,0.0005344913806766272
1761369834364287200,7.551287353515625,-0.0012216945178806782,0.0019088976550847292,-0.00015271181473508477
1761369834382897000,7.56989697265625,-0.0012216945178806782,0.0019088976550847292,-0.00015271181473508477
1761369834401508400,7.58850830078125,-0.0012216945178806782,0.0019088976550847292,-0.00015271181473508477
1761369834420118000,7.607117919921875,-0.0024433890357613564,0.0025197449140250683,-0.00015271181473508477
1761369834438729500,7.6257294921875,-0.0012216945178806782,0.0025197449140250683,-0.00015271181473508477
1761369834457339100,7.644339111328125,-0.0012216945178806782,0.0019088976550847292,0.0011453386396169662
1761369834475950600,7.66295068359375,-0.0012216945178806782,0.00129805039614439,0.0005344913806766272
1761369834494560300,7.681560302734375,-0.0012216945178806782,0.0025197449140250683,-0.0007635590736754239
1761369834513171700,7.700171630859375,-0.0012216945178806782,0.0025197449140250683,0.0005344913806766272
1761369834531781400,7.718781494140625,-0.0012216945178806782,0.0025197449140250683,-0.00015271181473508477
1761369834550392800,7.737392822265625,-0.0018325417768210173,0.0019088976550847292,-0.00015271181473508477
1761369834569002800,7.756002685546875,-0.0024433890357613564,0.0031305921729654074,0.0005344913806766272
1761369834587614000,7.774614013671875,-0.0012216945178806782,0.0025197449140250683,-0.00015271181473508477
1761369834606224000,7.793223876953125,-0.0018325417768210173,0.0031305921729654074,0.0005344913806766272
1761369834624835000,7.8118349609375,-0.0018325417768210173,0.0025197449140250683,0.0011453386396169662
1761369834643445000,7.830445068359375,0,0.0031305921729654074,0.0005344913806766272
1761369834662056200,7.84905615234375,-0.0018325417768210173,0.0019088976550847292,-0.00015271181473508477
1761369834680666000,7.867666015625,-0.0006108472589403391,0.0019088976550847292,0.0005344913806766272
1761369834699277300,7.88627734375,-0.0012216945178806782,0.0025197449140250683,0.0005344913806766272
1761369834717887200,7.90488720703125,-0.0012216945178806782,0.0019088976550847292,-0.00015271181473508477
1761369834736498400,7.92349853515625,-0.0018325417768210173,0.0025197449140250683,-0.00015271181473508477
1761369834755108400,7.9421083984375,-0.0012216945178806782,0.0019088976550847292,-0.00015271181473508477
1761369834773719600,7.960719482421875,-0.0012216945178806782,0.0019088976550847292,0.0005344913806766272
1761369834792329500,7.97932958984375,-0.0012216945178806782,0.0031305921729654074,-0.00015271181473508477
1761369834810941000,7.99794091796875,-0.0012216945178806782,0.0025197449140250683,0.0005344913806766272
1761369834829550600,8.016550537109374,-0.0006108472589403391,0.0019088976550847292,-0.00015271181473508477
1761369834848162000,8.035162109375,-0.0018325417768210173,0.0019088976550847292,0.0005344913806766272
1761369834866771700,8.053771728515626,-0.0018325417768210173,0.00129805039614439,0.0005344913806766272
1761369834885383200,8.072383056640625,-0.0018325417768210173,0.00129805039614439,0.0005344913806766272
1761369834903992800,8.090992919921876,-0.0012216945178806782,0.0025197449140250683,0.0011453386396169662
1761369834922604300,8.109604248046875,-0.0018325417768210173,0.0019088976550847292,-0.00015271181473508477
1761369834941214200,8.128214111328125,-0.0006108472589403391,0.0025197449140250683,-0.00015271181473508477
1761369834959825400,8.146825439453124,-0.0012216945178806782,0.0031305921729654074,-0.00015271181473508477
1761369834978435300,8.165435302734375,-0.0012216945178806782,0.0019088976550847292,-0.00015271181473508477
1761369834997046500,8.184046630859376,-0.0018325417768210173,0.0025197449140250683,0.0005344913806766272
1761369835015656400,8.202656494140625,-0.0012216945178806782,0.0025197449140250683,-0.00015271181473508477
1761369835034267600,8.221267578125,-0.0006108472589403391,0.0019088976550847292,-0.00015271181473508477
1761369835052877600,8.239877685546874,-0.0018325417768210173,0.0025197449140250683,-0.00015271181473508477
1761369835071488800,8.25848876953125,-0.0012216945178806782,0.0025197449140250683,0.0005344913806766272
1761369835090098700,8.2770986328125,-0.0012216945178806782,0.0025197449140250683,-0.00015271181473508477
1761369835108710000,8.2957099609375,-0.0012216945178806782,0.0025197449140250683,-0.00015271181473508477
1761369835127319800,8.31431982421875,-0.0012216945178806782,0.0025197449140250683,0.0005344913806766272
1761369835145931000,8.332930908203124,-0.0012216945178806782,0.0025197449140250683,0.0005344913806766272
1761369835164541000,8.351541015625,-0.0018325417768210173,0.0025197449140250683,0.0005344913806766272
1761369835183152400,8.37015234375,-0.0018325417768210173,0.0025197449140250683,-0.00015271181473508477
1761369835201762000,8.388761962890625,-0.0006108472589403391,0.00129805039614439,-0.0007635590736754239
1761369835220373500,8.40737353515625,-0.0018325417768210173,0.0025197449140250683,0.0011453386396169662
1761369835238983200,8.425983154296874,-0.0018325417768210173,0.0025197449140250683,-0.0007635590736754239
1761369835257594600,8.4445947265625,-0.0018325417768210173,0.0019088976550847292,-0.00015271181473508477
1761369835276204300,8.463204345703126,-0.0012216945178806782,0.00129805039614439,-0.0007635590736754239
1761369835294815700,8.481815673828125,-0.0018325417768210173,0.0031305921729654074,0.0005344913806766272
1761369835313425400,8.50042529296875,-0.0012216945178806782,0.0031305921729654074,-0.00015271181473508477
1761369835332036900,8.519036865234375,-0.0012216945178806782,0.0031305921729654074,-0.00015271181473508477
1761369835350646500,8.537646484375,-0.0012216945178806782,0.0025197449140250683,-0.0007635590736754239
1761369835369258000,8.556258056640624,-0.0018325417768210173,0.0019088976550847292,0.0005344913806766272
1761369835387868000,8.574867919921875,-0.0012216945178806782,0.0025197449140250683,0.0005344913806766272
1761369835406479000,8.59347900390625,-0.0006108472589403391,0.0025197449140250683,0.0005344913806766272
1761369835425089000,8.612089111328125,-0.0012216945178806782,0.0025197449140250683,0.0005344913806766272
1761369835443700700,8.63070068359375,-0.0012216945178806782,0.0019088976550847292,0.0005344913806766272
1761369835462310700,8.649310546875,-0.0012216945178806782,0.0025197449140250683,0.0005344913806766272
1761369835480921900,8.667921875,-0.0012216945178806782,0.0037414394319057465,-0.00015271181473508477
1761369835499531800,8.68653173828125,-0.0012216945178806782,0.0025197449140250683,0.0005344913806766272
1761369835518143000,8.70514306640625,-0.0018325417768210173,0.0025197449140250683,-0.00015271181473508477
1761369835536753000,8.7237529296875,-0.0006108472589403391,0.0019088976550847292,-0.00015271181473508477
1761369835555364000,8.742364013671875,-0.0024433890357613564,0.0025197449140250683,-0.00015271181473508477
1761369835573974000,8.76097412109375,-0.0006108472589403391,0.0019088976550847292,0.0005344913806766272
1761369835592585200,8.779585205078124,-0.0006108472589403391,0.0025197449140250683,-0.00015271181473508477
1761369835611195100,8.798195068359375,-0.0012216945178806782,0.0031305921729654074,0.0005344913806766272
1761369835629806600,8.816806640625,-0.0012216945178806782,0.0019088976550847292,0.0005344913806766272
1761369835648416300,8.835416259765625,-0.0012216945178806782,0.0025197449140250683,0.0005344913806766272
1761369835667027700,8.85402783203125,-0.0012216945178806782,0.0025197449140250683,-0.00015271181473508477
1761369835685637400,8.872637451171874,-0.0012216945178806782,0.0025197449140250683,0.0005344913806766272
1761369835704248800,8.891248779296875,-0.0012216945178806782,0.0031305921729654074,-0.00015271181473508477
1761369835722858500,8.9098583984375,-0.0012216945178806782,0.0025197449140250683,-0.00015271181473508477
1761369835741470000,8.928469970703125,-0.0018325417768210173,0.0025197449140250683,0.0005344913806766272
1761369835760080000,8.947079833984375,-0.0012216945178806782,0.0025197449140250683,-0.00015271181473508477
1761369835778691000,8.965691162109374,-0.0018325417768210173,0.0025197449140250683,-0.00015271181473508477
1761369835797300700,8.98430078125,-0.0018325417768210173,0.0019088976550847292,-0.0007635590736754239
1761369835815912200,9.002912109375,-0.0018325417768210173,0.0025197449140250683,-0.0007635590736754239
1761369835834522000,9.021522216796875,-0.0030542362947016954,0.0019088976550847292,-0.00015271181473508477
1761369835853133300,9.04013330078125,-0.0012216945178806782,0.0025197449140250683,-0.00015271181473508477
1761369835871743200,9.0587431640625,-0.0006108472589403391,0.0019088976550847292,-0.001374406274408102
1761369835890354400,9.0773544921875,-0.0012216945178806782,0.0019088976550847292,0.0005344913806766272
1761369835908964400,9.09596435546875,-0.0012216945178806782,0.0019088976550847292,0.0005344913806766272
1761369835927575600,9.114575439453125,-0.0012216945178806782,0.0025197449140250683,-0.00015271181473508477
1761369835946185500,9.133185546875,-0.0012216945178806782,0.0019088976550847292,-0.00015271181473508477
1761369835964796700,9.151796630859375,-0.0012216945178806782,0.00129805039614439,-0.00015271181473508477
1761369835983406600,9.170406494140625,-0.0018325417768210173,0.0019088976550847292,-0.00015271181473508477
1761369836002018000,9.18901806640625,-0.0018325417768210173,0.0019088976550847292,-0.00015271181473508477
1761369836020627700,9.207627685546875,-0.0012216945178806782,0.0025197449140250683,-0.00015271181473508477
1761369836039239200,9.2262392578125,-0.0012216945178806782,0.0025197449140250683,-0.00015271181473508477
1761369836057848800,9.244848876953125,-0.0006108472589403391,0.0031305921729654074,-0.00015271181473508477
1761369836076460300,9.263460205078125,-0.0012216945178806782,0.0025197449140250683,0.0005344913806766272
1761369836095070000,9.282070068359374,-0.0006108472589403391,0.0019088976550847292,-0.00015271181473508477
1761369836113681400,9.300681396484375,-0.0012216945178806782,0.0019088976550847292,-0.00015271181473508477
1761369836132291000,9.319291015625,-0.0012216945178806782,0.0025197449140250683,0.0005344913806766272
1761369836150902500,9.337902587890625,-0.0018325417768210173,0.0019088976550847292,-0.00015271181473508477
1761369836169512200,9.35651220703125,-0.0006108472589403391,0.0025197449140250683,0.0005344913806766272
1761369836188123600,9.37512353515625,-0.0012216945178806782,0.0019088976550847292,-0.0007635590736754239
1761369836206733600,9.393733642578125,-0.0018325417768210173,0.0025197449140250683,-0.0007635590736754239
1761369836225344800,9.4123447265625,-0.0006108472589403391,0.0019088976550847292,-0.00015271181473508477
1761369836243954700,9.43095458984375,-0.0018325417768210173,0.0025197449140250683,-0.00015271181473508477
1761369836262566000,9.44956591796875,-0.0018325417768210173,0.0025197449140250683,0.0005344913806766272
1761369836281175800,9.46817578125,-0.0012216945178806782,0.0025197449140250683,-0.00015271181473508477
1761369836299787000,9.486787109375,-0.0012216945178806782,0.0019088976550847292,0.0005344913806766272
1761369836318397000,9.50539697265625,-0.0012216945178806782,0.0019088976550847292,-0.0007635590736754239
1761369836337008000,9.524008056640625,-0.0012216945178806782,0.0031305921729654074,-0.00015271181473508477
1761369836355618000,9.5426181640625,-0.0018325417768210173,0.0025197449140250683,-0.00015271181473508477
1761369836374229200,9.561229248046875,-0.0012216945178806782,0.0025197449140250683,-0.00015271181473508477
1761369836392839200,9.579839111328125,-0.0018325417768210173,0.0019088976550847292,-0.00015271181473508477
1761369836411450600,9.59845068359375,-0.0018325417768210173,0.0019088976550847292,0.0005344913806766272
1761369836430060300,9.617060302734375,-0.0018325417768210173,0.0031305921729654074,-0.00015271181473508477
1761369836448671700,9.635671630859376,-0.0012216945178806782,0.0031305921729654074,-0.0007635590736754239
1761369836467281400,9.654281494140625,-0.0018325417768210173,0.0019088976550847292,0.0005344913806766272
1761369836485892900,9.672892822265625,-0.0012216945178806782,0.0019088976550847292,-0.00015271181473508477
1761369836504502500,9.69150244140625,-0.0012216945178806782,0.0025197449140250683,-0.00015271181473508477
1761369836523114000,9.710114013671875,-0.0006108472589403391,0.0025197449140250683,0.0005344913806766272
1761369836541723600,9.7287236328125,-0.0006108472589403391,0.0025197449140250683,-0.00015271181473508477
1761369836560335000,9.747335205078125,-0.0012216945178806782,0.0025197449140250683,0.0005344913806766272
1761369836578945000,9.765945068359375,-0.0012216945178806782,0.0025197449140250683,-0.0007635590736754239
1761369836597556200,9.78455615234375,-0.0012216945178806782,0.0025197449140250683,-0.00015271181473508477
1761369836616166100,9.803166259765625,-0.0006108472589403391,0.0031305921729654074,0.0005344913806766272
1761369836634777300,9.82177734375,-0.0012216945178806782,0.0019088976550847292,-0.00015271181473508477
1761369836653387300,9.84038720703125,-0.0012216945178806782,0.0025197449140250683,-0.0007635590736754239
1761369836671998500,9.85899853515625,-0.0012216945178806782,0.0025197449140250683,-0.00015271181473508477
1761369836690608400,9.8776083984375,-0.0012216945178806782,0.0025197449140250683,-0.00015271181473508477
1761369836709219600,9.896219482421875,-0.0012216945178806782,0.0019088976550847292,0.0005344913806766272
1761369836727829500,9.91482958984375,-0.0018325417768210173,0.0031305921729654074,-0.00015271181473508477
1761369836746440700,9.933440673828125,-0.0012216945178806782,0.0019088976550847292,0.0005344913806766272
1761369836765050600,9.952050537109375,-0.0012216945178806782,0.0025197449140250683,0.0011453386396169662
1761369836783661800,9.970661865234375,-0.0012216945178806782,0.0019088976550847292,-0.00015271181473508477
1761369836802271700,9.989271728515625,-0.0018325417768210173,0.0025197449140250683,-0.00015271181473508477
1761369836820883200,10.00788330078125,-0.0018325417768210173,0.00129805039614439,-0.00015271181473508477
1761369836839492900,10.026492919921875,-0.0012216945178806782,0.0019088976550847292,-0.0007635590736754239
1761369836858104300,10.045104248046876,-0.0018325417768210173,0.0025197449140250683,-0.00015271181473508477
1761369836876714000,10.0637138671875,-0.0012216945178806782,0.0025197449140250683,0.0005344913806766272
1761369836895325400,10.082325439453125,-0.0012216945178806782,0.0031305921729654074,-0.00015271181473508477
1761369836913935000,10.10093505859375,-0.0018325417768210173,0.0019088976550847292,0.0005344913806766272
1761369836932546600,10.119546630859375,-0.0012216945178806782,0.0025197449140250683,-0.0007635590736754239
1761369836951156500,10.138156494140626,-0.0018325417768210173,0.0019088976550847292,-0.00015271181473508477
1761369836969767700,10.156767578125,-0.0012216945178806782,0.0025197449140250683,-0.00015271181473508477
1761369836988377300,10.17537744140625,-0.0006108472589403391,0.0019088976550847292,0.0005344913806766272
1761369837006988800,10.19398876953125,-0.0012216945178806782,0.0025197449140250683,0.0005344913806766272
1761369837025598700,10.2125986328125,-0.0012216945178806782,0.0019088976550847292,-0.00015271181473508477
1761369837044210000,10.2312099609375,-0.0006108472589403391,0.0025197449140250683,-0.0007635590736754239
1761369837062819800,10.24981982421875,-0.0012216945178806782,0.0031305921729654074,0.0005344913806766272
1761369837081431000,10.26843115234375,-0.0012216945178806782,0.0019088976550847292,0.0005344913806766272
1761369837100041000,10.287041015625,-0.0018325417768210173,0.0031305921729654074,-0.00015271181473508477
1761369837118652200,10.305652099609375,-0.0012216945178806782,0.0025197449140250683,-0.00015271181473508477
1761369837137262000,10.324261962890626,-0.0018325417768210173,0.0019088976550847292,-0.00015271181473508477
1761369837155873300,10.342873291015625,-0.0024433890357613564,0.0019088976550847292,0.0005344913806766272
1761369837174483200,10.361483154296875,-0.0006108472589403391,0.0019088976550847292,0.0005344913806766272
1761369837193094700,10.3800947265625,-0.0012216945178806782,0.00129805039614439,-0.00015271181473508477
1761369837211704300,10.398704345703125,-0.0006108472589403391,0.0031305921729654074,-0.0007635590736754239
1761369837230315800,10.417315673828124,-0.0018325417768210173,0.0025197449140250683,-0.0007635590736754239
1761369837248925400,10.435925537109375,-0.0012216945178806782,0.0025197449140250683,-0.00015271181473508477
1761369837267537000,10.454536865234376,-0.0018325417768210173,0.0025197449140250683,0.0005344913806766272
1761369837286146600,10.473146484375,-0.0012216945178806782,0.0025197449140250683,-0.00015271181473508477
1761369837304758000,10.491758056640625,-0.0012216945178806782,0.0025197449140250683,0.0005344913806766272
1761369837323367700,10.51036767578125,-0.0006108472589403391,0.0031305921729654074,-0.00015271181473508477
1761369837341979100,10.528979248046875,-0.0018325417768210173,0.0019088976550847292,-0.00015271181473508477
1761369837360588800,10.5475888671875,-0.0018325417768210173,0.0019088976550847292,0.0005344913806766272
1761369837379200300,10.5662001953125,-0.0012216945178806782,0.0019088976550847292,-0.00015271181473508477
1761369837397810200,10.58481005859375,-0.0012216945178806782,0.0031305921729654074,-0.00015271181473508477
1761369837416421400,10.60342138671875,-0.0006108472589403391,0.0025197449140250683,0.0005344913806766272
1761369837435031300,10.62203125,-0.0018325417768210173,0.0025197449140250683,0.0005344913806766272
1761369837453642500,10.640642578125,-0.0018325417768210173,0.0019088976550847292,-0.00015271181473508477
1761369837472252400,10.65925244140625,-0.0012216945178806782,0.0025197449140250683,-0.00015271181473508477
1761369837490863600,10.677863525390626,-0.0012216945178806782,0.0019088976550847292,-0.00015271181473508477
1761369837509473500,10.6964736328125,-0.0006108472589403391,0.0025197449140250683,0.0005344913806766272
1761369837528084700,10.715084716796875,-0.0018325417768210173,0.0025197449140250683,-0.00015271181473508477
1761369837546694700,10.733694580078126,-0.0018325417768210173,0.0025197449140250683,0.0005344913806766272
1761369837565306000,10.75230615234375,-0.0018325417768210173,0.031229566782712936,0.006032116711139679
1761369837583915800,10.770915771484376,-0.0006108472589403391,-0.03474193811416626,-0.006261184345930815
1761369837602527200,10.78952734375,-0.0006108472589403391,0.022066857665777206,0.0029778804164379835
1761369837621137000,10.808136962890625,-0.0012216945178806782,0.00007635590736754239,-0.00015271181473508477
1761369837639748400,10.826748291015624,-0.0006108472589403391,-0.012751436792314053,-0.0032069480512291193
1761369837658358000,10.84535791015625,-0.0018325417768210173,0.00862821750342846,0.0011453386396169662
