time,seconds_elapsed,z,y,x
1761311633116845300,0.26384521484375,0.02176666259765625,-0.004281625151634216,0.015129834413528442
1761311633135459000,0.282458984375,0.016213417053222656,-0.012303024530410767,-0.0005159080028533936
1761311633154074400,0.301074462890625,0.0097503662109375,-0.0277160182595253,-0.002497047185897827
1761311633172688000,0.31968798828125,0.0150909423828125,-0.015412315726280212,0.01265650987625122
1761311633191303200,0.33830322265625,0.013637542724609375,0.012341156601905823,0.004344373941421509
1761311633209917000,0.3569169921875,0.016793251037597656,0.02892863005399704,-0.003037869930267334
1761311633228532200,0.3755322265625,0.012949943542480469,0.03310762345790863,-0.0008449256420135498
1761311633247145700,0.394145751953125,0.009722709655761719,0.023740224540233612,0.0031583011150360107
1761311633265761000,0.412760986328125,0.02053546905517578,0.0038341209292411804,0.00027427077293395996
1761311633284374800,0.431374755859375,0.014420509338378906,-0.010022744536399841,-0.002147287130355835
1761311633302990000,0.449989990234375,0.013422012329101562,-0.022995933890342712,-0.007086664438247681
1761311633321603600,0.468603515625,0.012612342834472656,-0.032855354249477386,-0.004540860652923584
1761311633340219000,0.487218994140625,0.023389816284179688,-0.02178441733121872,0.000056236982345581055
1761311633358832600,0.50583251953125,0.012881278991699219,0.002337411046028137,-0.00019663572311401367
1761311633377448000,0.524447998046875,0.021439552307128906,0.020602792501449585,-0.007726192474365234
1761311633396061400,0.5430615234375,0.006621360778808594,0.01973923295736313,0.0016815364360809326
1761311633414676700,0.5616767578125,0.013226509094238281,0.009496614336967468,-0.00350034236907959
1761311633433290500,0.58029052734375,-0.0036325454711914062,-0.014037728309631348,-0.0013206303119659424
1761311633451905800,0.59890576171875,0.010486602783203125,-0.020335853099822998,-0.015435278415679932
1761311633470519300,0.617519287109375,0.005427360534667969,-0.03575459495186806,-0.0036066174507141113
1761311633489134600,0.636134521484375,0.009871482849121094,-0.015839464962482452,-0.0038323402404785156
1761311633507748400,0.654748291015625,0.007248878479003906,0.017449259757995605,-0.006220728158950806
1761311633526363600,0.67336376953125,0.02092266082763672,0.037828072905540466,-0.006369650363922119
1761311633544977200,0.69197705078125,0.008564949035644531,0.04573247581720352,-0.004296630620956421
1761311633563592400,0.710592529296875,0.012988090515136719,0.02089652419090271,-0.004431635141372681
1761311633582206200,0.729206298828125,0.007819175720214844,-0.010038308799266815,-0.009314477443695068
1761311633600821500,0.747821533203125,0.012277603149414062,-0.03306198865175247,-0.004674464464187622
1761311633619435300,0.766435302734375,0.018787384033203125,-0.031820401549339294,0.002031654119491577
1761311633638050300,0.78505029296875,0.008954048156738281,-0.007443733513355255,-0.01003330945968628
1761311633656664000,0.8036640625,0.010980606079101562,0.011544838547706604,-0.003037005662918091
1761311633675279400,0.822279296875,0.010626792907714844,0.025274597108364105,0.001339644193649292
1761311633693893000,0.84089306640625,0.00557708740234375,0.017486058175563812,-0.008380532264709473
1761311633712508200,0.859508056640625,0.00536346435546875,0.019229918718338013,-0.013148054480552673
1761311633731122000,0.878121826171875,0.005312919616699219,-0.01159685105085373,-0.0015144646167755127
1761311633749737200,0.8967373046875,0.012093544006347656,-0.03221327066421509,-0.006526052951812744
1761311633768351000,0.91535107421875,0.014058113098144531,-0.024167459458112717,-0.00892263650894165
1761311633786966000,0.933966064453125,0.00646209716796875,-0.009386405348777771,-0.0019797086715698242
1761311633805579800,0.952579833984375,0.011045455932617188,0.007331728935241699,0.007048666477203369
1761311633824195000,0.971195068359375,0.01076507568359375,0.02583339810371399,-0.01214870810508728
1761311633842808800,0.989808837890625,0.005665779113769531,0.018057748675346375,-0.004894822835922241
1761311633861423900,1.008423828125,0.010197639465332031,0.0011845976114273071,-0.0075577497482299805
1761311633880037600,1.02703759765625,0.012103080749511719,-0.005681194365024567,-0.00986546277999878
1761311633898653000,1.04565283203125,0.014105796813964844,-0.014707006514072418,-0.007616400718688965
1761311633917266700,1.0642666015625,0.00431060791015625,-0.0071663931012153625,-0.010095685720443726
1761311633935881700,1.0828818359375,0.01587200164794922,0.004806838929653168,-0.014901146292686462
1761311633954495500,1.10149560546875,0.0059375762939453125,0.004768803715705872,-0.007838159799575806
1761311633973110800,1.12011083984375,0.0010433197021484375,0.011682219803333282,-0.010247349739074707
1761311633991724500,1.138724609375,0.005688667297363281,0.0019466876983642578,-0.012693643569946289
1761311634010339800,1.15733984375,0.014851570129394531,-0.012053310871124268,-0.010429739952087402
1761311634028953300,1.175953369140625,0.0049896240234375,-0.013881422579288483,-0.01513148844242096
1761311634047568600,1.194568603515625,0.00019931793212890625,-0.008627235889434814,-0.012526631355285645
1761311634066182400,1.213182373046875,0.01656341552734375,-0.006050877273082733,-0.007802754640579224
1761311634084797700,1.231797607421875,0.011234283447265625,0.015170373022556305,-0.005377829074859619
1761311634103411200,1.2504111328125,0.0038471221923828125,0.01012447476387024,-0.005481451749801636
1761311634122026500,1.269026611328125,0.0037670135498046875,0.007576026022434235,-0.008053600788116455
1761311634140640300,1.28764013671875,0.005927085876464844,0.011932261288166046,-0.008108943700790405
1761311634159255600,1.306255615234375,0.0011091232299804688,-0.011625342071056366,-0.0011940598487854004
1761311634177869000,1.324869140625,0.008184432983398438,-0.008894436061382294,-0.0178937166929245
1761311634196484400,1.343484375,0.01486968994140625,-0.003805980086326599,-0.015340670943260193
1761311634215098000,1.36209814453125,0.005126953125,0.005745135247707367,-0.010618925094604492
1761311634233713400,1.38071337890625,0.00489044189453125,0.003310084342956543,-0.01297411322593689
1761311634252327000,1.399326904296875,0.0024623870849609375,0.010326690971851349,-0.010663121938705444
1761311634270942200,1.417942138671875,0.0023908615112304688,0.01474001258611679,-0.015411242842674255
1761311634289556000,1.436555908203125,0.0022783279418945312,0.007241010665893555,-0.010536223649978638
1761311634308171300,1.455171142578125,0.006882667541503906,-0.00473032146692276,-0.003502398729324341
1761311634326784800,1.47378466796875,0.001995086669921875,0.004792571067810059,-0.010786056518554688
1761311634345400000,1.492400146484375,-0.00033664703369140625,-0.0000053122639656066895,-0.013160288333892822
1761311634364013800,1.511013916015625,0.004314422607421875,0.004788786172866821,-0.01080256700515747
1761311634382629000,1.529629150390625,0.008892059326171875,-0.002308778464794159,-0.006223917007446289
1761311634401242600,1.54824267578125,0.0062541961669921875,0.002412930130958557,-0.004118561744689941
1761311634419858000,1.56685791015625,0.005936622619628906,0.002364322543144226,-0.011272013187408447
1761311634438471700,1.5854716796875,0.0034322738647460938,-0.000021189451217651367,-0.013558149337768555
1761311634457087000,1.6040869140625,-0.0013799667358398438,-0.011644065380096436,-0.013447344303131104
1761311634475700500,1.622700439453125,0.0057392120361328125,-0.0018941015005111694,-0.013433337211608887
1761311634494315800,1.641315673828125,0.005558967590332031,-0.0041923001408576965,-0.004067808389663696
1761311634512929500,1.659929443359375,-0.006268501281738281,0.005488380789756775,-0.011294513940811157
1761311634531544800,1.678544921875,-0.0015039443969726562,0.0006689876317977905,-0.004084676504135132
1761311634550158300,1.697158447265625,0.005656242370605469,0.005362868309020996,-0.016019269824028015
1761311634568773600,1.715773681640625,0.005364418029785156,-0.0017688199877738953,-0.01134634017944336
1761311634587387400,1.734387451171875,0.0028829574584960938,-0.003956921398639679,-0.013622164726257324
1761311634606002700,1.753002685546875,0.012134552001953125,-0.0013682544231414795,-0.006525605916976929
1761311634624616200,1.7716162109375,0.004757881164550781,-0.008352987468242645,-0.006687432527542114
1761311634643231500,1.7902314453125,-0.004807472229003906,-0.008103050291538239,-0.009141296148300171
1761311634661845200,1.80884521484375,-0.011660575866699219,-0.0054498091340065,-0.0022094249725341797
1761311634680460300,1.827460205078125,0.002780914306640625,0.004062056541442871,-0.016639098525047302
1761311634699074000,1.846073974609375,-0.0018939971923828125,0.010941609740257263,-0.01405555009841919
1761311634717689300,1.864689453125,0.012068748474121094,0.010626271367073059,-0.004589080810546875
1761311634736303000,1.88330322265625,0.006972312927246094,-0.0035669133067131042,-0.01422429084777832
1761311634754918100,1.901918212890625,-0.00019359588623046875,0.003522641956806183,-0.009459704160690308
1761311634773532000,1.920531982421875,-0.0001392364501953125,0.0009738653898239136,-0.00939023494720459
1761311634792147200,1.939147216796875,0.004582405090332031,-0.001400001347064972,-0.0048094093799591064
1761311634810761000,1.957760986328125,-0.002620697021484375,-0.003679126501083374,-0.009735405445098877
1761311634829376000,1.9763759765625,-0.0026063919067382812,0.0011265873908996582,-0.011914998292922974
1761311634847989800,1.99498974609375,0.0022306442260742188,0.00126667320728302,-0.009416550397872925
1761311634866605000,2.01360498046875,-0.00026702880859375,0.0058844611048698425,-0.00010341405868530273
1761311634885218600,2.032218505859375,0.009207725524902344,0.005758911371231079,-0.0051840245723724365
1761311634903833900,2.050833740234375,-0.000469207763671875,-0.0014236047863960266,-0.007632225751876831
1761311634922447600,2.069447509765625,0.0019483566284179688,0.0033645331859588623,-0.0146867036819458
1761311634941063000,2.08806298828125,0.001735687255859375,-0.010722965002059937,-0.012183994054794312
1761311634959676400,2.106676513671875,0.004117012023925781,-0.003392420709133148,-0.009771764278411865
1761311634978291700,2.125291748046875,0.0062255859375,0.0037742704153060913,-0.019163206219673157
1761311634996905500,2.143905517578125,0.001476287841796875,0.006074137985706329,-0.014142543077468872
1761311635015520800,2.162520751953125,0.0060272216796875,0.005906015634536743,-0.018721804022789
1761311635034134300,2.18113427734375,-0.001224517822265625,-0.0012255236506462097,-0.013771623373031616
1761311635052749600,2.19974951171875,-0.0012121200561523438,-0.0011160746216773987,-0.016141429543495178
1761311635071363300,2.21836328125,0.00354766845703125,-0.005757875740528107,-0.013724446296691895
1761311635089978400,2.236978271484375,0.00344085693359375,-0.005591332912445068,-0.011293679475784302
1761311635108592000,2.255592041015625,0.0009393692016601562,0.0017603114247322083,-0.011186152696609497
1761311635127207400,2.27420751953125,0.005627632141113281,0.008718349039554596,-0.008973658084869385
1761311635145821200,2.2928212890625,0.0054531097412109375,0.006240531802177429,-0.00914829969406128
1761311635164436200,2.311436279296875,0.007599830627441406,-0.0010172873735427856,-0.01149645447731018
1761311635183050000,2.330050048828125,0.0003337860107421875,-0.000885307788848877,-0.013885587453842163
1761311635201665300,2.348665283203125,0.0027627944946289062,-0.005386121571063995,-0.00899931788444519
1761311635220278800,2.36727880859375,-0.004384040832519531,-0.002768300473690033,0.002764075994491577
1761311635238894000,2.38589404296875,-0.004191398620605469,-0.00498555600643158,-0.004766553640365601
1761311635257507800,2.4045078125,0.0028247833251953125,0.006995648145675659,-0.012025624513626099
1761311635276123100,2.423123046875,-0.0064792633056640625,0.006834834814071655,-0.005059421062469482
1761311635294736600,2.441736572265625,0.000766754150390625,0.00667785108089447,-0.01692207157611847
1761311635313352000,2.46035205078125,-0.003993988037109375,0.004037573933601379,-0.01687188446521759
1761311635331965700,2.478965576171875,0.010233879089355469,-0.005480021238327026,-0.01429736614227295
1761311635350580700,2.497580810546875,0.007588386535644531,-0.0003464818000793457,-0.004846930503845215
1761311635369194500,2.516194580078125,0.0003223419189453125,0.0017796680331230164,-0.0026136040687561035
1761311635387809800,2.534809814453125,0.0027532577514648438,0.008850902318954468,-0.0076500773429870605
1761311635406423600,2.553423583984375,0.00019931793212890625,0.0061931610107421875,-0.012323915958404541
1761311635425038600,2.57203857421875,0.007264137268066406,0.006000049412250519,-0.007606953382492065
1761311635443652400,2.59065234375,-0.009293556213378906,-0.0012546703219413757,-0.01005399227142334
1761311635462267600,2.609267578125,-0.0019903182983398438,-0.003457687795162201,-0.005461990833282471
1761311635480881200,2.627881103515625,-0.0065822601318359375,-0.007815584540367126,-0.00802844762802124
1761311635499496400,2.646496337890625,0.007689476013183594,-0.0052080899477005005,-0.008124470710754395
1761311635518110200,2.665110107421875,0.0027370452880859375,-0.002597041428089142,-0.01291745901107788
1761311635536725200,2.683725341796875,-0.004405021667480469,0.004502683877944946,-0.003583759069442749
1761311635555339000,2.702339111328125,0.014431953430175781,0.006679892539978027,-0.011014431715011597
1761311635573954300,2.720954345703125,0.009255409240722656,0.006544746458530426,-0.006223529577255249
1761311635592568000,2.739568115234375,-0.00034236907958984375,-0.0006102249026298523,-0.013401180505752563
1761311635611183000,2.75818310546875,0.0021104812622070312,-0.0075467899441719055,-0.006255209445953369
1761311635629796900,2.776796875,0.004485130310058594,-0.002694040536880493,-0.011109530925750732
1761311635648412200,2.795412109375,0.004230499267578125,-0.004834286868572235,-0.008858978748321533
1761311635667025700,2.814025634765625,0.004138946533203125,-0.0023876577615737915,-0.015869200229644775
1761311635685641000,2.832640869140625,-0.0029764175415039062,0.0024686604738235474,-0.010846227407455444
1761311635704254700,2.851254638671875,-0.00286865234375,0.009496055543422699,-0.01090356707572937
1761311635722869800,2.869869873046875,0.0042572021484375,0.0020595714449882507,-0.013219565153121948
1761311635741483500,2.8884833984375,-0.000583648681640625,0.0019118934869766235,-0.017717137932777405
1761311635760098800,2.907098876953125,0.0018758773803710938,-0.0026955902576446533,-0.01046818494796753
1761311635778712300,2.92571240234375,0.006455421447753906,0.00220324844121933,-0.015183687210083008
1761311635797327600,2.94432763671875,0.006247520446777344,-0.002438873052597046,-0.012632250785827637
1761311635815941400,2.96294140625,0.0013408660888671875,0.00013507157564163208,-0.007960021495819092
1761311635834556400,2.981556396484375,0.00370025634765625,0.007197946310043335,-0.012914925813674927
1761311635853170200,3.000170166015625,0.0012340545654296875,0.011601574718952179,-0.012746542692184448
1761311635871785500,3.018785400390625,0.005831718444824219,0.0018717721104621887,-0.012607276439666748
1761311635890399200,3.037399169921875,0.0033283233642578125,0.0018955394625663757,-0.012416273355484009
1761311635909014300,3.05601416015625,0.007898330688476562,-0.005121491849422455,-0.010066688060760498
1761311635927628000,3.0746279296875,0.005372047424316406,-0.007237419486045837,-0.012621819972991943
1761311635946243300,3.093243408203125,0.000415802001953125,-0.00011625885963439941,-0.012407302856445312
1761311635964856800,3.11185693359375,-0.004260063171386719,-0.00008414685726165771,-0.012300878763198853
1761311635983472000,3.13047216796875,0.0052280426025390625,0.0048294514417648315,-0.005113273859024048
1761311636002086000,3.1490859375,0.00039386749267578125,0.011453613638877869,-0.009894520044326782
1761311636020701000,3.167700927734375,-0.006634712219238281,0.004175037145614624,-0.005218684673309326
1761311636039314700,3.186314697265625,0.0006532669067382812,0.0017110928893089294,-0.012373268604278564
1761311636057930000,3.204929931640625,-0.006381988525390625,-0.012379087507724762,-0.0030017495155334473
1761311636076543500,3.22354345703125,0.0032129287719726562,-0.007233224809169769,-0.012466102838516235
1761311636095158800,3.24215869140625,-0.00159454345703125,-0.0022952109575271606,-0.009965658187866211
1761311636113772500,3.2607724609375,0.0007038116455078125,0.004846520721912384,-0.012326925992965698
1761311636132387600,3.2793876953125,0.0030813217163085938,0.0095377117395401,-0.01221814751625061
1761311636151001300,3.29800146484375,0.0030260086059570312,0.013897813856601715,-0.00515100359916687
1761311636169616600,3.31661669921875,0.0028543472290039062,0.0018306151032447815,-0.010049223899841309
1761311636188230100,3.335230224609375,-0.0018606185913085938,-0.00985342264175415,-0.010036945343017578
1761311636206845400,3.353845458984375,0.002838134765625,-0.011773690581321716,-0.009986788034439087
1761311636225459200,3.372459228515625,0.0027532577514648438,-0.006592884659767151,-0.012386143207550049
1761311636244074200,3.39107421875,0.0027093887329101562,-0.003975287079811096,-0.009982556104660034
1761311636262688000,3.40968798828125,0.0049457550048828125,0.010194830596446991,-0.014737188816070557
1761311636281303000,3.428302978515625,-0.004546165466308594,0.012244164943695068,-0.0193130224943161
1761311636299916800,3.446916748046875,0.0049114227294921875,0.011883430182933807,-0.007246524095535278
1761311636318532000,3.465531982421875,-0.004580497741699219,0.004482723772525787,-0.007344990968704224
1761311636337145600,3.4841455078125,0.0050373077392578125,-0.0026041120290756226,-0.014462113380432129
1761311636355761000,3.502760986328125,0.009471893310546875,-0.00958472490310669,-0.007376253604888916
1761311636374374700,3.521374755859375,0.009167671203613281,-0.004459641873836517,-0.007586240768432617
1761311636392989700,3.53998974609375,0.0018510818481445312,0.005015671253204346,-0.012263655662536621
1761311636411603500,3.558603515625,-0.0005168914794921875,0.014198318123817444,-0.0005640983581542969
1761311636430218800,3.57721875,-0.007437705993652344,0.00904882699251175,-0.012597590684890747
1761311636448832300,3.595832275390625,-0.0048656463623046875,0.00405295193195343,-0.012573182582855225
1761311636467447600,3.614447509765625,-0.00006961822509765625,-0.0029235929250717163,-0.0007300376892089844
1761311636486061300,3.633061279296875,0.002376556396484375,-0.009687647223472595,-0.015066146850585938
1761311636504676400,3.65167626953125,0.004580497741699219,-0.004612617194652557,-0.005517363548278809
1761311636523290000,3.6702900390625,0.0020418167114257812,-0.0021840929985046387,-0.010230720043182373
1761311636541905400,3.688905517578125,0.0043010711669921875,0.009555958211421967,-0.015017330646514893
1761311636560519000,3.707518798828125,-0.007487297058105469,0.016236737370491028,-0.00546380877494812
1761311636579134200,3.72613427734375,-0.00016880035400390625,0.0133604034781456,-0.005565345287322998
1761311636597747700,3.744747802734375,0.006787300109863281,0.005943290889263153,-0.017300084233283997
1761311636616363000,3.763363037109375,0.00433349609375,-0.003466598689556122,-0.01001003384590149
1761311636634976800,3.781976806640625,-0.00278472900390625,-0.010398566722869873,-0.01939515769481659
1761311636653591800,3.800591796875,-0.005080223083496094,-0.005313754081726074,-0.007366657257080078
1761311636672205600,3.81920556640625,-0.000156402587890625,-0.005149081349372864,-0.00975850224494934
1761311636690820900,3.83782080078125,0.0044078826904296875,0.006666392087936401,-0.01672475039958954
1761311636709434400,3.856434326171875,0.006667137145996094,0.006475754082202911,-0.004871845245361328
1761311636728049700,3.875049560546875,0.0018634796142578125,0.003940194845199585,-0.009779304265975952
1761311636746663400,3.893663330078125,0.0040493011474609375,-0.0031414851546287537,-0.005164593458175659
1761311636765278500,3.912278564453125,0.003964424133300781,-0.005269378423690796,-0.010078579187393188
1761311636783892200,3.930892333984375,0.0038080215454101562,-0.005217015743255615,-0.010192424058914185
1761311636802507300,3.94950732421875,0.0036153793334960938,-0.00024756044149398804,-0.010288238525390625
1761311636821121000,3.96812109375,-0.00344085693359375,0.006774500012397766,-0.015032410621643066
1761311636839736000,3.986736083984375,0.008372306823730469,0.00204554945230484,-0.014856427907943726
1761311636858349800,4.005349853515625,0.012734413146972656,0.008992329239845276,-0.009978294372558594
1761311636876965000,4.023965087890625,-0.006396293640136719,0.008703738451004028,-0.012308299541473389
1761311636895578600,4.04257861328125,0.0008106231689453125,0.0036657601594924927,-0.0076090991497039795
1761311636914194000,4.06119384765625,-0.0037984848022460938,-0.0009854212403297424,-0.00995376706123352
1761311636932807700,4.0798076171875,-0.0037031173706054688,-0.007811538875102997,-0.019340351223945618
1761311636951422700,4.098422607421875,0.005768775939941406,-0.005277305841445923,-0.007425516843795776
1761311636970036500,4.117036376953125,-0.0037488937377929688,0.001987054944038391,-0.014636576175689697
1761311636988651500,4.135651611328125,-0.0013027191162109375,0.009027957916259766,-0.014512449502944946
1761311637007265300,4.154265380859375,0.0034580230712890625,0.0017918497323989868,-0.007330268621444702
1761311637025880300,4.17288037109375,-0.0013933181762695312,0.011252254247665405,-0.0191735178232193
1761311637044494000,4.191494140625,-0.0013790130615234375,-0.005490876734256744,-0.004892408847808838
1761311637063109400,4.210109375,-0.008228302001953125,-0.009947314858436584,-0.00983208417892456
1761311637081723000,4.228722900390625,0.0036287307739257812,-0.0002641603350639343,-0.009789645671844482
1761311637100338200,4.247338134765625,-0.010529518127441406,-0.0003056451678276062,-0.016905024647712708
1761311637118952000,4.265951904296875,-0.0030317306518554688,-0.00014518201351165771,-0.007252126932144165
1761311637137567000,4.28456689453125,-0.0029201507568359375,0.0045192912220954895,-0.009876847267150879
1761311637156180700,4.3031806640625,-0.0004968643188476562,0.011288076639175415,-0.01233583688735962
1761311637174795800,4.321795654296875,-0.0050983428955078125,0.0015891790390014648,-0.012320131063461304
1761311637193409500,4.340409423828125,-0.0049190521240234375,-0.0031013041734695435,-0.017014220356941223
1761311637212024800,4.35902490234375,-0.0024290084838867188,-0.0006668418645858765,-0.012215346097946167
1761311637230638300,4.377638427734375,-0.009366035461425781,-0.0029844194650650024,-0.014391928911209106
1761311637249253600,4.396253662109375,-0.004380226135253906,-0.00048317015171051025,-0.011963218450546265
1761311637267867100,4.4148671875,-0.008935928344726562,0.00897931307554245,-0.009573638439178467
1761311637286482400,4.433482421875,0.0007038116455078125,0.011067889630794525,-0.011893481016159058
1761311637305096200,4.45209619140625,0.0007266998291015625,0.003725610673427582,-0.014136582612991333
1761311637323711200,4.470711181640625,-0.003997802734375,-0.003389716148376465,-0.011676579713821411
1761311637342325000,4.489324951171875,-0.0062084197998046875,-0.007954888045787811,-0.018746092915534973
1761311637360940000,4.50793994140625,-0.003719329833984375,-0.01918649673461914,-0.00912514328956604
1761311637379553800,4.5265537109375,-0.003509521484375,-0.009063631296157837,-0.0068311989307403564
1761311637398168800,4.5451689453125,-0.0033445358276367188,0.0005505308508872986,-0.01632086932659149
1761311637416782600,4.563782470703125,0.008349418640136719,0.00528910756111145,-0.009079664945602417
1761311637435398000,4.58239794921875,0.005805015563964844,0.009758710861206055,-0.016068264842033386
1761311637454011400,4.601011474609375,0.0033054351806640625,0.0047952234745025635,-0.008888989686965942
1761311637472626700,4.619626708984375,-0.008486747741699219,-0.0024496465921401978,-0.011270701885223389
1761311637491240200,4.638240234375,-0.00588226318359375,0.0024650990962982178,-0.013707011938095093
1761311637509855500,4.65685546875,0.0037393569946289062,-0.0022391751408576965,-0.01129305362701416
1761311637528469200,4.67546923828125,0.0012302398681640625,0.0002388209104537964,-0.008926928043365479
1761311637547084300,4.694084228515625,-0.005747795104980469,-0.002163700759410858,-0.018157973885536194
1761311637565698000,4.712697998046875,0.0060272216796875,0.009669259190559387,-0.008516669273376465
1761311637584313000,4.73131298828125,-0.001110076904296875,0.011656515300273895,-0.010949879884719849
1761311637602926800,4.7499267578125,-0.003459930419921875,0.0066160112619400024,-0.015577927231788635
1761311637621542000,4.7685419921875,-0.0032558441162109375,0.001801513135433197,-0.008472681045532227
1761311637640155600,4.78715576171875,-0.007770538330078125,-0.005234532058238983,-0.0015297532081604004
1761311637658770700,4.805770751953125,-0.005228996276855469,-0.007252581417560577,-0.011154979467391968
1761311637677384400,4.824384521484375,-0.005089759826660156,-0.009375117719173431,-0.011091738939285278
1761311637695999700,4.842999755859375,0.0022268295288085938,0.004916064441204071,-0.013345062732696533
1761311637714613200,4.86161328125,-0.0048999786376953125,0.007178150117397308,-0.008651107549667358
1761311637742535000,4.889534912109375,0.0001068115234375,0.004157520830631256,-0.013576596975326538
1761311637761150200,4.908150146484375,0.0025072097778320312,0.0018456801772117615,-0.011205285787582397
1761311637779763700,4.926763671875,-0.006863594055175781,0.006430014967918396,-0.01815594732761383
1761311637798379000,4.94537890625,-0.00431060791015625,-0.007703885436058044,-0.008688807487487793
1761311637816992500,4.963992431640625,-0.008828163146972656,-0.00974871963262558,-0.0017386972904205322
1761311637835607800,4.98260791015625,-0.0062103271484375,-0.00011288374662399292,-0.00913664698600769
1761311637854221600,5.0012216796875,-0.01062774658203125,-0.00007650256156921387,-0.011471271514892578
1761311637872836600,5.019836669921875,-0.00567626953125,0.006944246590137482,-0.018532678484916687
1761311637891450400,5.038450439453125,-0.0077953338623046875,0.009063780307769775,0.002827882766723633
1761311637910065700,5.057065673828125,0.0018453598022460938,-0.00048657506704330444,-0.006869673728942871
1761311637928679200,5.07567919921875,-0.00527191162109375,0.002064920961856842,-0.009263068437576294
1761311637947294500,5.09429443359375,-0.007443428039550781,-0.005012683570384979,-0.009277641773223877
1761311637965908000,5.112907958984375,-0.002521514892578125,-0.0048212409019470215,-0.0092926025390625
1761311637984523300,5.131523193359375,0.002201080322265625,0.002529039978981018,-0.011678367853164673
1761311638003136800,5.15013671875,-0.0048847198486328125,0.004774942994117737,-0.013984262943267822
1761311638021752000,5.168751953125,0.002346038818359375,0.004742451012134552,-0.009095519781112671
1761311638040365600,5.187365478515625,-0.0023546218872070312,0.002246960997581482,-0.016084447503089905
1761311638058980900,5.20598095703125,-0.009326934814453125,-0.00022286176681518555,-0.013709008693695068
1761311638077594600,5.2245947265625,-0.0066547393798828125,0.0019678473472595215,-0.01824711263179779
1761311638096209700,5.243209716796875,-0.00418853759765625,-0.002887256443500519,-0.008720993995666504
1761311638114823400,5.261823486328125,0.000705718994140625,-0.00276067852973938,-0.015832170844078064
1761311638133438500,5.2804384765625,-0.008606910705566406,0.006795160472393036,-0.010977476835250854
1761311638152052200,5.29905224609375,-0.0012903213500976562,0.006563931703567505,-0.006321966648101807
1761311638170667300,5.317667236328125,-0.0059032440185546875,-0.00299941748380661,-0.011269062757492065
1761311638189281000,5.336281005859375,-0.0011091232299804688,0.006452575325965881,-0.006548523902893066
1761311638207896300,5.354896240234375,-0.0033407211303710938,0.008639805018901825,-0.011400401592254639
1761311638226509800,5.373509765625,-0.010325431823730469,-0.007801264524459839,-0.008990943431854248
1761311638245125000,5.392125,-0.0029144287109375,-0.005140863358974457,-0.02062937617301941
1761311638263738600,5.410738525390625,-0.0028867721557617188,-0.002718985080718994,-0.006356149911880493
1761311638282354000,5.42935400390625,-0.007416725158691406,0.011506617069244385,-0.006356388330459595
1761311638300967400,5.447967529296875,-0.009440422058105469,0.0063533782958984375,-0.011081159114837646
1761311638319582700,5.466582763671875,0.00021648406982421875,0.010861776769161224,-0.008681297302246094
1761311638338196500,5.485196533203125,-0.013830184936523438,-0.001103729009628296,-0.013345301151275635
1761311638356811500,5.5038115234375,-0.008692741394042969,0.001339256763458252,-0.010965734720230103
1761311638375425300,5.52242529296875,-0.010788917541503906,0.001383453607559204,-0.0039955973625183105
1761311638394040300,5.541040283203125,-0.0034780502319335938,-0.005655944347381592,-0.01126241683959961
1761311638412654000,5.559654052734375,-0.00559234619140625,0.0015291497111320496,-0.008934974670410156
1761311638431269000,5.57826904296875,-0.0006504058837890625,0.008511960506439209,-0.01600019633769989
1761311638449883000,5.5968828125,-0.0006961822509765625,0.010631084442138672,-0.008879244327545166
1761311638468498200,5.615498291015625,0.0016870498657226562,0.01035153865814209,-0.01356080174446106
1761311638487111700,5.634111572265625,-0.005307197570800781,0.0031093060970306396,-0.017929181456565857
1761311638505727000,5.65272705078125,-0.012189865112304688,-0.0037793293595314026,-0.010696619749069214
1761311638524340500,5.671340576171875,-0.0071048736572265625,-0.005922578275203705,-0.010830670595169067
1761311638542955800,5.689955810546875,-0.011532783508300781,-0.005660831928253174,-0.013068020343780518
1761311638561569300,5.7085693359375,-0.0017652511596679688,0.006139196455478668,-0.017570361495018005
1761311638580184600,5.7271845703125,-0.0063304901123046875,0.003708787262439728,-0.010287672281265259
1761311638598798300,5.74579833984375,0.0008707046508789062,0.003726571798324585,-0.007913917303085327
1761311638617413400,5.764413330078125,-0.008408546447753906,-0.00096169114112854,-0.01746208965778351
1761311638636027100,5.783027099609375,-0.005810737609863281,-0.008014827966690063,-0.007718026638031006
1761311638654642400,5.801642333984375,-0.005650520324707031,-0.007641777396202087,-0.012491852045059204
1761311638673256000,5.820255859375,-0.0077686309814453125,-0.005061157047748566,-0.010061830282211304
1761311638691871200,5.838871337890625,-0.00749969482421875,0.00452849268913269,-0.010333538055419922
1761311638710484700,5.857484619140625,0.006724357604980469,0.009017199277877808,-0.014997735619544983
1761311638729100000,5.87610009765625,-0.014482498168945312,0.013461574912071228,-0.017161443829536438
1761311638747713500,5.894713623046875,-0.006970405578613281,0.008435823023319244,-0.01230129599571228
1761311638766328800,5.913328857421875,0.00260162353515625,-0.005803734064102173,-0.019034117460250854
1761311638784942600,5.931942626953125,-0.0022230148315429688,-0.010304875671863556,-0.006995052099227905
1761311638803557600,5.9505576171875,-0.011440277099609375,-0.009893923997879028,-0.016517236828804016
1761311638822171400,5.96917138671875,0.0029582977294921875,-0.00015535205602645874,-0.009514778852462769
1761311638840786700,5.98778662109375,0.01216888427734375,0.011517539620399475,-0.014128491282463074
1761311638859400200,6.006400146484375,-0.0021924972534179688,0.006400212645530701,-0.016413643956184387
1761311638878015500,6.025015380859375,-0.009095191955566406,-0.0007094815373420715,-0.009224534034729004
1761311638896629000,6.04362890625,-0.008745193481445312,0.008661247789859772,-0.009350776672363281
1761311638915244300,6.062244384765625,-0.010838508605957031,0.0038451775908470154,-0.011827051639556885
1761311638933857800,6.08085791015625,-0.008156776428222656,-0.007960490882396698,-0.011732935905456543
1761311638952473000,6.09947314453125,-0.0032863616943359375,-0.007668256759643555,-0.018782585859298706
1761311638971086800,6.1180869140625,-0.0030918121337890625,0.004401452839374542,-0.00918307900428772
1761311638989702000,6.136701904296875,-0.00992584228515625,0.011118292808532715,-0.006900191307067871
1761311639008315600,6.155315673828125,-0.009665489196777344,0.008410528302192688,-0.009363293647766113
1761311639026931000,6.173930908203125,-0.002349853515625,0.012776397168636322,-0.007169932126998901
1761311639045544400,6.19254443359375,-0.00457763671875,0.0031575188040733337,-0.007403731346130371
1761311639064159700,6.21115966796875,-0.006735801696777344,0.0007707327604293823,-0.012055426836013794
1761311639082773200,6.229773193359375,-0.0019121170043945312,-0.0063199326395988464,-0.014331504702568054
1761311639101388500,6.248388427734375,-0.006312370300292969,-0.008394889533519745,-0.011973440647125244
1761311639120002300,6.267002197265625,-0.008525848388671875,-0.003456391394138336,-0.00960010290145874
1761311639138617300,6.285617431640625,0.0011034011840820312,0.013089857995510101,-0.007382750511169434
1761311639157231000,6.304231201171875,-0.0035562515258789062,0.012738995254039764,-0.00973626971244812
1761311639175846400,6.322846435546875,-0.008100509643554688,0.005514778196811676,-0.012106060981750488
1761311639194460000,6.3414599609375,-0.000919342041015625,-0.001672498881816864,-0.009656965732574463
1761311639213075200,6.3600751953125,-0.010179519653320312,-0.010999992489814758,-0.009675204753875732
1761311639231688700,6.378688720703125,-0.007557868957519531,-0.005742624402046204,-0.007435053586959839
1761311639250304000,6.397303955078125,-0.0025882720947265625,-0.005506083369255066,-0.012329161167144775
1761311639268917500,6.41591748046875,-0.004772186279296875,0.0041630566120147705,-0.009927451610565186
1761311639287532800,6.43453271484375,-0.00699615478515625,0.010945618152618408,-0.005242973566055298
1761311639306146600,6.453146484375,-0.002086639404296875,0.012929320335388184,-0.005429208278656006
1761311639324761900,6.471761962890625,0.00030612945556640625,0.010272949934005737,-0.010373115539550781
1761311639343375400,6.490375244140625,-0.0019292831420898438,-0.0016495808959007263,-0.005830824375152588
1761311639361990700,6.50899072265625,-0.0018949508666992188,-0.01098071038722992,-0.015273675322532654
1761311639380604200,6.527604248046875,-0.0017824172973632812,-0.003656841814517975,-0.012791603803634644
1761311639399219500,6.546219482421875,-0.006422996520996094,-0.008189119398593903,-0.010509371757507324
1761311639417833200,6.564833251953125,0.0008602142333984375,0.0014917105436325073,-0.010443955659866333
1761311639436448500,6.583448486328125,-0.010816574096679688,0.00614466518163681,-0.012718826532363892
1761311639455062000,6.60206201171875,-0.008177757263183594,0.00369986891746521,-0.010155260562896729
1761311639473677300,6.62067724609375,-0.017157554626464844,0.008106708526611328,-0.010234922170639038
1761311639492290800,6.639290771484375,-0.009522438049316406,-0.0037790536880493164,-0.017148062586784363
1761311639510906000,6.657906005859375,0.00002288818359375,-0.013052545487880707,-0.005249649286270142
1761311639529519900,6.676519775390625,-0.013859748840332031,-0.0033060014247894287,-0.010066449642181396
1761311639548135000,6.695135009765625,-0.018179893493652344,-0.003221943974494934,-0.012462973594665527
1761311639566748700,6.713748779296875,-0.010584831237792969,0.0015148743987083435,-0.019371896982192993
1761311639585364000,6.732364013671875,-0.012462615966796875,0.006113104522228241,-0.002730756998062134
1761311639613284900,6.760284912109375,0.0020160675048828125,0.010562889277935028,-0.014681234955787659
1761311639631900000,6.77889990234375,-0.0050258636474609375,-0.003871828317642212,-0.00762706995010376
1761311639650513700,6.797513671875,-0.007244110107421875,-0.00828544795513153,-0.010026693344116211
1761311639669129000,6.81612890625,-0.009270668029785156,-0.003404863178730011,-0.012465566396713257
1761311639687742500,6.834742431640625,0.0027399063110351562,-0.007794655859470367,-0.012445032596588135
1761311639706357800,6.853357666015625,-0.008996963500976562,0.004204601049423218,-0.014708980917930603
1761311639724971500,6.871971435546875,-0.006371498107910156,0.00851953774690628,-0.014709338545799255
1761311639743586600,6.890586669921875,-0.0108184814453125,0.005996212363243103,-0.012301087379455566
1761311639762200300,6.909200439453125,-0.010569572448730469,0.01275741308927536,-0.009901046752929688
1761311639780815600,6.927815673828125,-0.0007925033569335938,0.000769302248954773,-0.007571429014205933
1761311639799429000,6.94642919921875,-0.0031909942626953125,-0.001467190682888031,-0.014704868197441101
1761311639818044400,6.96504443359375,-0.0053157806396484375,-0.0060553178191185,-0.012146443128585815
1761311639836658200,6.983658203125,-0.007485389709472656,0.005710005760192871,-0.009749174118041992
1761311639855273200,7.002273193359375,0.002185821533203125,0.00563078373670578,-0.012140929698944092
1761311639873887000,7.020886962890625,-0.011844635009765625,-0.0038189738988876343,-0.012023299932479858
1761311639892502300,7.039502197265625,-0.0022640228271484375,0.008127838373184204,-0.005018144845962524
1761311639911116000,7.058115966796875,-0.0092010498046875,0.0008291080594062805,-0.014701709151268005
1761311639929731000,7.07673095703125,-0.006453514099121094,0.0007920712232589722,-0.012252986431121826
1761311639948344800,7.0953447265625,-0.006229400634765625,-0.0014914348721504211,-0.01920744776725769
1761311639966960000,7.113960205078125,-0.006053924560546875,0.0008490681648254395,-0.004846394062042236
1761311639994881800,7.1418818359375,-0.0059757232666015625,0.0031528547406196594,-0.014297649264335632
1761311640013495300,7.160495361328125,-0.010358810424804688,-0.00399702787399292,-0.011885881423950195
1761311640032110600,7.179110595703125,-0.005419731140136719,0.0030411481857299805,-0.01642744243144989
1761311640050724400,7.197724365234375,-0.005194664001464844,0.0030671581625938416,-0.009182065725326538
1761311640069339600,7.216339599609375,0.0020093917846679688,0.005409657955169678,-0.0022315382957458496
1761311640087953200,7.234953125,-0.0073871612548828125,-0.0017585381865501404,-0.014171764254570007
1761311640106568400,7.253568359375,-0.014199256896972656,0.0006485357880592346,-0.006906449794769287
1761311640125182200,7.27218212890625,-0.0019502639770507812,-0.0016582831740379333,-0.009329646825790405
1761311640143797500,7.290797607421875,-0.004267692565917969,0.0006911754608154297,-0.011847168207168579
1761311640162411000,7.309410888671875,0.007576942443847656,0.005391255021095276,-0.009476661682128906
1761311640181026300,7.3280263671875,-0.006747245788574219,0.0028763338923454285,-0.007375448942184448
1761311640199640000,7.34664013671875,-0.0041217803955078125,0.0050918906927108765,-0.00982290506362915
1761311640218255400,7.36525537109375,-0.0064105987548828125,-0.001973189413547516,-0.009819239377975464
1761311640236868900,7.383868896484375,-0.0037975311279296875,-0.008900254964828491,-0.009816110134124756
1761311640255484200,7.402484130859375,0.00811004638671875,-0.006370581686496735,-0.012103468179702759
1761311640274098000,7.421097900390625,-0.0107879638671875,0.0007587447762489319,-0.014417722821235657
1761311640292713200,7.439713134765625,-0.005828857421875,0.0009145066142082214,-0.016702726483345032
1761311640311326700,7.45832666015625,-0.0009593963623046875,0.005513705313205719,-0.011841624975204468
1761311640329942000,7.47694189453125,0.0013990402221679688,0.0006947964429855347,-0.014196708798408508
1761311640348555800,7.4955556640625,-0.001033782958984375,0.00307503342628479,-0.016403481364250183
1761311640367171000,7.514171142578125,-0.010249137878417969,0.0007079616189002991,-0.016293272376060486
1761311640385784600,7.53278466796875,-0.00531005859375,-0.0014844536781311035,-0.013832911849021912
1761311640404399900,7.55139990234375,-0.0074024200439453125,0.005634047091007233,-0.011341392993927002
1761311640423013600,7.570013671875,-0.00016689300537109375,0.005739152431488037,-0.011421144008636475
1761311640441629000,7.58862890625,-0.0025501251220703125,-0.0012760758399963379,-0.006561219692230225
1761311640460242400,7.607242431640625,0.0023298263549804688,0.001054905354976654,-0.013726875185966492
1761311640478857700,7.625857666015625,-0.011744499206542969,-0.0012483149766921997,-0.011255860328674316
1761311640497471500,7.644471435546875,0.00034427642822265625,-0.005857303738594055,-0.008851468563079834
1761311640516086800,7.663086669921875,-0.011345863342285156,-0.0034815818071365356,-0.008990287780761719
1761311640534700300,7.6817001953125,-0.011038780212402344,-0.010264798998832703,-0.013871625065803528
1761311640553315600,7.700315673828125,0.000949859619140625,0.004111558198928833,-0.01141086220741272
1761311640571929300,7.718929443359375,-0.006015777587890625,0.00647137314081192,-0.01617296040058136
1761311640590544600,7.737544677734375,-0.003414154052734375,0.0015801042318344116,-0.004321068525314331
1761311640609158400,7.756158447265625,-0.003330230712890625,-0.0031829923391342163,-0.011498719453811646
1761311640627773400,7.7747734375,-0.0007772445678710938,-0.0030297189950942993,-0.011627525091171265
1761311640646387200,7.79338720703125,-0.005524635314941406,-0.0003945976495742798,-0.011823803186416626
1761311640665002500,7.81200244140625,-0.0076084136962890625,0.0019814670085906982,-0.007155925035476685
1761311640683616300,7.8306162109375,-0.00028324127197265625,-0.000405728816986084,-0.007311463356018066
1761311640702231600,7.8492314453125,-0.005049705505371094,0.006552509963512421,-0.012074857950210571
1761311640720845000,7.867844970703125,-0.00487518310546875,0.0064246878027915955,-0.016705378890037537
1761311640739460600,7.886460693359375,-0.0046253204345703125,0.00390857458114624,-0.007285863161087036
1761311640758074000,7.90507421875,-0.0045013427734375,-0.003158681094646454,-0.01681371033191681
1761311640776689400,7.923689453125,-0.011364936828613281,-0.003020279109477997,-0.011981308460235596
1761311640795303200,7.94230322265625,-0.006348609924316406,-0.005166560411453247,-0.014291360974311829
1761311640813918500,7.96091845703125,-0.0014200210571289062,-0.0003168657422065735,-0.011856794357299805
1761311640832532200,7.9795322265625,-0.010779380798339844,-0.00012271106243133545,-0.005030184984207153
1761311640851147300,7.998147216796875,-0.008062362670898438,-0.000030428171157836914,-0.009814620018005371
1761311640869761000,8.016760986328125,-0.0053539276123046875,0.0023742839694023132,-0.019166141748428345
1761311640888376300,8.035376220703125,-0.0028476715087890625,0.004532776772975922,-0.00971958041191101
1761311640906990000,8.053989990234374,-0.005057334899902344,-0.00019653141498565674,-0.007648259401321411
1761311640934912500,8.08191259765625,-0.0070705413818359375,0.006825685501098633,-0.007529765367507935
1761311640953526300,8.1005263671875,-0.01620769500732422,0.009098708629608154,-0.009956270456314087
1761311640981448000,8.128447998046875,-0.003818511962890625,0.004225410521030426,-0.014856889843940735
1761311641000063200,8.147063232421875,-0.006037712097167969,-0.005296133458614349,-0.012371987104415894
1761311641018677000,8.165677001953124,-0.00119781494140625,-0.009661316871643066,-0.012433886528015137
1761311641037292300,8.184292236328124,-0.0011491775512695312,-0.006997406482696533,-0.01239737868309021
1761311641055906000,8.202906005859376,-0.0011014938354492188,0.00028977543115615845,-0.005261123180389404
1761311641074521300,8.221521240234376,-0.00333404541015625,0.007337547838687897,-0.012431710958480835
1761311641093134800,8.240134765625,-0.003292083740234375,0.014018155634403229,-0.012435883283615112
1761311641111750400,8.25875048828125,-0.0007791519165039062,0.00431099534034729,-0.010085344314575195
1761311641130364000,8.277364013671875,-0.005489349365234375,0.003972828388214111,-0.014852240681648254
1761311641148979200,8.295979248046875,-0.0052947998046875,0.003856085240840912,-0.007824301719665527
1761311641167593000,8.314593017578124,-0.009779930114746094,-0.012601442635059357,-0.01266595721244812
1761311641186208300,8.333208251953126,-0.004696846008300781,-0.002812609076499939,-0.024333104491233826
1761311641204822000,8.351822021484375,-0.004570960998535156,-0.000443384051322937,-0.01464526355266571
1761311641223437300,8.370437255859375,0.002651214599609375,-0.0027348771691322327,-0.007552444934844971
1761311641242051000,8.389051025390625,0.0049285888671875,0.011394068598747253,-0.012363344430923462
1761311641260666400,8.407666259765625,0.0023870468139648438,0.011064961552619934,-0.012574315071105957
1761311641279279900,8.42627978515625,-0.0023927688598632812,-0.0007703900337219238,-0.010047107934951782
1761311641297895200,8.444895263671874,0.0024471282958984375,-0.0006944835186004639,-0.010241478681564331
1761311641316509000,8.463509033203126,-0.00927734375,-0.003026634454727173,-0.012553572654724121
1761311641344431600,8.491431640625,-0.008845329284667969,0.006481602787971497,-0.012407630681991577
1761311641363045400,8.51004541015625,-0.00850677490234375,0.006182171404361725,-0.012278884649276733
1761311641381660700,8.52866064453125,-0.0012683868408203125,0.010718733072280884,-0.007753580808639526
1761311641400274200,8.547274169921875,-0.010557174682617188,-0.0011977329850196838,-0.017157182097434998
1761311641418889500,8.565889404296875,-0.0031747817993164062,0.0012285634875297546,-0.012257963418960571
1761311641437503200,8.584503173828125,-0.0077304840087890625,0.003518998622894287,-0.012228190898895264
1761311641456118500,8.603118408203125,-0.012169837951660156,-0.0059016793966293335,-0.019373834133148193
1761311641474732300,8.621732177734375,-0.011758804321289062,0.0012557804584503174,-0.019014328718185425
1761311641493347600,8.64034765625,-0.0066928863525390625,0.0013009533286094666,-0.009501755237579346
1761311641511961300,8.65896142578125,-0.0017919540405273438,-0.0010259822010993958,-0.016547545790672302
1761311641530576600,8.67757666015625,0.0006313323974609375,0.0037260204553604126,-0.01180163025856018
1761311641549190400,8.6961904296875,-0.001697540283203125,0.010729871690273285,-0.021069437265396118
1761311641567805700,8.7148056640625,0.007704734802246094,-0.0012465491890907288,-0.009040296077728271
1761311641586419500,8.73341943359375,0.00047779083251953125,0.005793347954750061,-0.004463553428649902
1761311641605034800,8.75203466796875,-0.004197120666503906,-0.0014844685792922974,-0.00939929485321045
1761311641623648500,8.7706484375,-0.006526947021484375,-0.003662198781967163,-0.013928696513175964
1761311641642263800,8.789263916015624,-0.010890960693359375,0.001121237874031067,-0.0091361403465271
1761311641660877600,8.807877685546876,0.0011339187622070312,0.0035100728273391724,-0.013934239745140076
1761311641679492900,8.826492919921876,-0.003444671630859375,0.0035190582275390625,-0.011510699987411499
1761311641698106600,8.845106689453125,-0.003398895263671875,0.003547079861164093,-0.011695772409439087
1761311641716722000,8.863721923828125,0.0060596466064453125,0.003556296229362488,-0.01168447732925415
1761311641735335700,8.882335693359375,0.008261680603027344,-0.0012347996234893799,-0.011634796857833862
1761311641753951000,8.900950927734375,-0.008365631103515625,0.0035217031836509705,-0.016277775168418884
1761311641772564700,8.919564697265624,-0.012750625610351562,0.0010826140642166138,-0.011431246995925903
1761311641791180000,8.938179931640626,-0.00753021240234375,-0.003378167748451233,-0.011499881744384766
1761311641809793800,8.956793701171875,-0.005076408386230469,0.0014641433954238892,-0.013848260045051575
1761311641828409000,8.9754091796875,-0.007132530212402344,0.006134338676929474,-0.004538297653198242
1761311641847022800,8.99402294921875,0.004726409912109375,-0.001002192497253418,-0.007119119167327881
1761311641865638100,9.01263818359375,0.002223968505859375,0.0037325918674468994,-0.004945039749145508
1761311641884252000,9.031251953125,-0.002506256103515625,-0.0033453479409217834,-0.0027788877487182617
1761311641902867200,9.0498671875,-0.0047283172607421875,0.001408308744430542,-0.014888063073158264
1761311641921481000,9.06848095703125,-0.006951332092285156,-0.0009236261248588562,-0.014841392636299133
1761311641940096300,9.08709619140625,-0.0042781829833984375,0.0037514343857765198,-0.017136350274086
1761311641958710000,9.1057099609375,-0.006443977355957031,-0.0008557438850402832,-0.00990721583366394
1761311641977325300,9.1243251953125,-0.008615493774414062,0.008599549531936646,-0.00520777702331543
1761311641995939000,9.14293896484375,0.005646705627441406,0.0013080090284347534,-0.010064512491226196
1761311642014554400,9.161554443359375,0.0031957626342773438,0.0013520121574401855,-0.017240777611732483
1761311642033168100,9.180168212890624,-0.00627899169921875,-0.007888108491897583,-0.014731153845787048
1761311642051783700,9.19878369140625,0.0009641647338867188,0.008955687284469604,-0.012298047542572021
1761311642070397400,9.2173974609375,-0.0014896392822265625,0.0015341266989707947,-0.019384533166885376
1761311642089012700,9.2360126953125,-0.008450508117675781,-0.0033207833766937256,-0.007498115301132202
1761311642107626500,9.25462646484375,0.0012140274047851562,-0.0009027868509292603,-0.012318342924118042
1761311642126241800,9.27324169921875,0.005817413330078125,0.0015559121966362,-0.012358486652374268
1761311642144855600,9.29185546875,-0.006020545959472656,0.006168350577354431,-0.016940966248512268
1761311642163470800,9.310470947265625,0.003566741943359375,-0.0009736716747283936,-0.016771718859672546
1761311642182084600,9.329084716796874,0.0011453628540039062,-0.00564931333065033,-0.014333203434944153
1761311642200700000,9.347699951171874,0.0033540725708007812,0.001593276858329773,-0.016644492745399475
1761311642219313700,9.366313720703126,-0.008359909057617188,-0.0008440911769866943,-0.02111583948135376
1761311642237929000,9.384928955078125,-0.0010499954223632812,-0.005375884473323822,-0.009139329195022583
1761311642256542700,9.403542724609375,0.00135040283203125,0.001871153712272644,-0.011637717485427856
1761311642275158300,9.422158203125,-0.0033168792724609375,0.0019506961107254028,-0.009312808513641357
1761311642293772000,9.44077197265625,-0.0008792877197265625,0.00888785719871521,-0.0164596289396286
1761311642312387300,9.45938720703125,-0.0032358169555664062,0.0015498995780944824,-0.016291186213493347
1761311642331001000,9.4780009765625,-0.00312042236328125,0.0037497282028198242,-0.018443286418914795
1761311642349616400,9.496616455078126,0.0017032623291015625,0.010626845061779022,-0.008886963129043579
1761311642368230100,9.515230224609375,-0.0030527114868164062,-0.00360696017742157,-0.023109540343284607
1761311642386845400,9.533845458984375,-0.000583648681640625,-0.00823628157377243,-0.011099934577941895
1761311642405459200,9.552459228515625,-0.0029506683349609375,-0.005594320595264435,-0.018091827630996704
1761311642424074500,9.571074462890625,-0.005199432373046875,-0.0031161829829216003,-0.010775864124298096
1761311642442688500,9.5896884765625,0.0020055770874023438,-0.0029013529419898987,-0.010795742273330688
1761311642461303800,9.6083037109375,-0.007348060607910156,0.008879333734512329,-0.008649677038192749
1761311642479917600,9.62691748046875,-0.004742622375488281,0.003950558602809906,-0.011093556880950928
1761311642498532900,9.645532958984376,-0.009243965148925781,0.013150021433830261,-0.008763819932937622
1761311642517146600,9.664146728515625,0.002727508544921875,0.00807863473892212,-0.006549805402755737
1761311642535762000,9.682761962890625,0.0026445388793945312,-0.006281130015850067,-0.0066145360469818115
1761311642554375700,9.701375732421875,0.000133514404296875,-0.0011999979615211487,-0.011479884386062622
1761311642572991200,9.7199912109375,-0.0021352767944335938,-0.0035605356097221375,-0.016177579760551453
1761311642591605000,9.73860498046875,-0.004405975341796875,-0.0034118369221687317,-0.013812914490699768
1761311642610220300,9.75722021484375,0.0003814697265625,0.013055838644504547,-0.018495500087738037
1761311642628834000,9.775833984375,-0.004332542419433594,0.0009472817182540894,-0.013456478714942932
1761311642647449300,9.794449462890626,-0.00414276123046875,0.0009498819708824158,-0.011017650365829468
1761311642666063400,9.8130634765625,-0.0016832351684570312,0.0031956806778907776,-0.011130869388580322
1761311642684678700,9.8316787109375,-0.0039310455322265625,-0.010925687849521637,-0.006484895944595337
1761311642703292400,9.85029248046875,-0.008419990539550781,-0.0011709332466125488,-0.013646200299263
1761311642721907700,9.86890771484375,-0.005888938903808594,-0.0011554211378097534,-0.013791009783744812
1761311642740521500,9.887521484375,0.0012989044189453125,0.0036385878920555115,-0.011434972286224365
1761311642759137000,9.906136962890624,0.0013055801391601562,0.0010838285088539124,-0.006724178791046143
1761311642777750800,9.924750732421876,-0.0010042190551757812,0.003301456570625305,-0.011547118425369263
1761311642796366000,9.943365966796875,0.0037097930908203125,0.00568842887878418,-0.004571974277496338
1761311642814979800,9.961979736328125,-0.001033782958984375,0.0008065924048423767,-0.009464651346206665
1761311642833595100,9.98059521484375,-0.00330352783203125,0.0008685663342475891,-0.014252230525016785
1761311642852209200,9.999209228515625,-0.0078125,-0.0013870000839233398,-0.01893576979637146
1761311642870824400,10.017824462890625,-0.002910614013671875,0.0010048076510429382,-0.01647992432117462
1761311642889438200,10.036438232421874,0.001827239990234375,0.008042342960834503,-0.00706636905670166
1761311642908053500,10.055053466796876,-0.0028944015502929688,0.0007299631834030151,-0.016586408019065857
1761311642926667500,10.07366748046875,0.004199028015136719,0.000763528048992157,-0.009461522102355957
1761311642945282800,10.09228271484375,-0.005230903625488281,-0.008630581200122833,-0.01650799810886383
1761311642963896600,10.110896484375,0.004292488098144531,-0.003565192222595215,-0.007054746150970459
1761311642982511900,10.129511962890625,-0.000507354736328125,-0.003360152244567871,-0.01433129608631134
1761311643010433800,10.157433837890625,-0.002780914306640625,0.010739453136920929,-0.009713202714920044
1761311643029047600,10.176047607421875,-0.0027151107788085938,0.005755141377449036,-0.009956032037734985
1761311643047663000,10.1946630859375,-0.0002231597900390625,0.0055581554770469666,-0.019341319799423218
1761311643066276900,10.21327685546875,-0.0002002716064453125,0.005257315933704376,-0.01692812144756317
1761311643084892200,10.23189208984375,0.0021343231201171875,0.005038991570472717,-0.002831578254699707
1761311643103506000,10.250505859375,-0.004870414733886719,-0.002079196274280548,-0.017176195979118347
1761311643122121500,10.26912158203125,-0.0024232864379882812,0.0002658665180206299,-0.009937375783920288
1761311643140735200,10.2877353515625,0.0023412704467773438,-0.006750188767910004,-0.007756561040878296
1761311643159350500,10.3063505859375,-0.004673957824707031,-0.004217378795146942,-0.01492290198802948
1761311643177964300,10.32496435546875,0.004825592041015625,-0.004102587699890137,-0.009946286678314209
1761311643196579800,10.343579833984375,0.004673957824707031,-0.0037863627076148987,-0.01700003445148468
1761311643215193600,10.362193603515625,-0.002536773681640625,0.0010568350553512573,-0.009813636541366577
1761311643233809200,10.38080908203125,-0.00004673004150390625,0.007944554090499878,-0.01225137710571289
1761311643252423000,10.3994228515625,0.0069904327392578125,0.014801308512687683,-0.00988420844078064
1761311643271038200,10.4180380859375,-0.00021457672119140625,0.0120614692568779,-0.017145738005638123
1761311643289652000,10.43665185546875,0.0021200180053710938,0.00016874074935913086,-0.012316793203353882
1761311643308267500,10.455267578125,-0.0002574920654296875,-0.01846259832382202,-0.012324988842010498
1761311643326881300,10.47388134765625,0.009100914001464844,-0.03165341168642044,-0.014702990651130676
1761311643345496600,10.49249658203125,-0.00284576416015625,-0.032945211976766586,-0.016813024878501892
1761311643364110600,10.511110595703125,-0.007372856140136719,0.0008226260542869568,-0.01435793936252594
1761311643382726000,10.529725830078124,-0.0024900436401367188,0.028886467218399048,-0.0026064515113830566
1761311643401339600,10.548339599609376,-0.00004673004150390625,0.04914689064025879,0.0018664002418518066
1761311643419955200,10.566955078125,-0.007096290588378906,0.047437094151973724,-0.02428583800792694
1761311643438569000,10.58556884765625,-0.0020627975463867188,0.0061867088079452515,-0.014669492840766907
1761311643457184300,10.604184326171875,-0.015913009643554688,-0.03583529219031334,-0.009946256875991821
1761311643475798300,10.62279833984375,-0.008433341979980469,-0.05560983717441559,-0.014583274722099304
1761311643494413600,10.64141357421875,-0.00112152099609375,-0.03963036090135574,-0.0051378607749938965
1761311643513027300,10.66002734375,0.005908966064453125,0.001272939145565033,-0.021689116954803467
1761311643531643000,10.678642822265624,0.0010137557983398438,0.03387041389942169,-0.014246717095375061
1761311643550256600,10.697256591796876,-0.0059490203857421875,0.04669537395238876,-0.009725570678710938
1761311643568872000,10.715871826171876,-0.0034275054931640625,0.035752564668655396,-0.019079625606536865
1761311643587486000,10.73448583984375,0.0013666152954101562,0.001934058964252472,-0.004887223243713379
1761311643606101200,10.753101318359375,-0.008007049560546875,-0.035245444625616074,-0.012179762125015259
1761311643624715000,10.771715087890625,-0.0030612945556640625,-0.04329376295208931,-0.016931191086769104
1761311643643330600,10.79033056640625,0.004036903381347656,-0.018388070166110992,-0.009794741868972778
1761311643661944300,10.8089443359375,0.00858306884765625,0.007991448044776917,-0.007665961980819702
1761311643680559900,10.827559814453124,0.00363922119140625,0.042757391929626465,-0.007694065570831299
1761311643699173600,10.846173583984376,0.010514259338378906,0.03898163139820099,-0.01956239342689514
1761311643717789000,10.864788818359376,-0.001438140869140625,0.023638136684894562,-0.01917359232902527
1761311643736403000,10.88340283203125,-0.0037746429443359375,-0.012038707733154297,-0.014340683817863464
1761311643755018200,10.902018310546875,-0.008307456970214844,-0.03483489528298378,-0.014297887682914734
1761311643773632000,10.920632080078125,0.0037517547607421875,-0.04060174524784088,-0.01676015555858612
1761311643792247600,10.93924755859375,-0.0011081695556640625,-0.008926190435886383,-0.014298990368843079
1761311643810861300,10.957861328125,0.0012922286987304688,0.01702875643968582,-0.011847525835037231
1761311643829476900,10.976476806640624,0.0012178421020507812,0.030332446098327637,-0.0071070194244384766
1761311643848090600,10.995090576171876,-0.005833625793457031,0.03644416481256485,-0.014381781220436096
1761311643866706200,11.0137060546875,0.0037488937377929688,0.007177084684371948,-0.014453426003456116
1761311643885320000,11.03231982421875,0.008288383483886719,-0.011940844357013702,-0.011291146278381348
1761311643903935500,11.050935546875,-0.0013284683227539062,-0.028080590069293976,-0.017669737339019775
1761311643922549200,11.06954931640625,0.010460853576660156,-0.027065783739089966,-0.010565459728240967
1761311643941164500,11.08816455078125,0.00534820556640625,-0.014254443347454071,-0.008679419755935669
1761311643959778600,11.106778564453125,-0.008777618408203125,0.011949174106121063,-0.011585891246795654
1761311643978393900,11.125393798828124,-0.0014829635620117188,0.03263439983129501,-0.01665063202381134
1761311644006315000,11.15331494140625,0.0009307861328125,0.019270040094852448,-0.01193496584892273
