time,seconds_elapsed,z,y,x
1761311633116845300,0.26384521484375,0.0024433890357613564,-0.0011453386396169662,-0.0007635590736754239
1761311633135459000,0.282458984375,0.0018325417768210173,-0.0017561858985573053,0.0005344913806766272
1761311633154074400,0.301074462890625,0.0018325417768210173,-0.0017561858985573053,-0.00015271181473508477
1761311633172688000,0.31968798828125,0.0018325417768210173,-0.0017561858985573053,-0.00015271181473508477
1761311633191303200,0.33830322265625,0.0018325417768210173,-0.0017561858985573053,0.0005344913806766272
1761311633209917000,0.3569169921875,0.0024433890357613564,-0.0017561858985573053,-0.00015271181473508477
1761311633228532200,0.3755322265625,0.0018325417768210173,-0.0023670331574976444,-0.0007635590736754239
1761311633247145700,0.394145751953125,0.0018325417768210173,-0.0029778804164379835,-0.00015271181473508477
1761311633265761000,0.412760986328125,0.0018325417768210173,-0.0011453386396169662,-0.00015271181473508477
1761311633284374800,0.431374755859375,0.0012216945178806782,-0.0011453386396169662,-0.0007635590736754239
1761311633302990000,0.449989990234375,0.0018325417768210173,-0.0023670331574976444,0.0005344913806766272
1761311633321603600,0.468603515625,0.0012216945178806782,-0.0011453386396169662,-0.0007635590736754239
1761311633340219000,0.487218994140625,0.0018325417768210173,-0.0017561858985573053,-0.00015271181473508477
1761311633358832600,0.50583251953125,0.0012216945178806782,-0.0017561858985573053,-0.00015271181473508477
1761311633377448000,0.524447998046875,0.0018325417768210173,-0.0029778804164379835,-0.0007635590736754239
1761311633396061400,0.5430615234375,0.0018325417768210173,-0.0017561858985573053,-0.00015271181473508477
1761311633414676700,0.5616767578125,0.0018325417768210173,-0.0017561858985573053,-0.00015271181473508477
1761311633433290500,0.58029052734375,0.0024433890357613564,-0.0011453386396169662,-0.00015271181473508477
1761311633451905800,0.59890576171875,0.0024433890357613564,-0.0017561858985573053,-0.00015271181473508477
1761311633470519300,0.617519287109375,0.0024433890357613564,-0.0023670331574976444,0.0005344913806766272
1761311633489134600,0.636134521484375,0.0024433890357613564,-0.0017561858985573053,0.0005344913806766272
1761311633507748400,0.654748291015625,0.0018325417768210173,-0.0017561858985573053,-0.0007635590736754239
1761311633526363600,0.67336376953125,0.0030542362947016954,-0.0017561858985573053,-0.00015271181473508477
1761311633544977200,0.69197705078125,0.0018325417768210173,-0.0023670331574976444,-0.0007635590736754239
1761311633563592400,0.710592529296875,0.0024433890357613564,-0.0017561858985573053,-0.00015271181473508477
1761311633582206200,0.729206298828125,0.0018325417768210173,-0.0017561858985573053,-0.00015271181473508477
1761311633600821500,0.747821533203125,0.0018325417768210173,-0.0023670331574976444,-0.00015271181473508477
1761311633619435300,0.766435302734375,0.0024433890357613564,-0.0029778804164379835,-0.00015271181473508477
1761311633638050300,0.78505029296875,0.0030542362947016954,-0.0011453386396169662,-0.00015271181473508477
1761311633656664000,0.8036640625,0.0012216945178806782,-0.0017561858985573053,-0.00015271181473508477
1761311633675279400,0.822279296875,0.0024433890357613564,-0.0023670331574976444,-0.0007635590736754239
1761311633693893000,0.84089306640625,0.0024433890357613564,-0.0023670331574976444,-0.00015271181473508477
1761311633712508200,0.859508056640625,0.0018325417768210173,-0.0017561858985573053,-0.0007635590736754239
1761311633731122000,0.878121826171875,0.0012216945178806782,-0.0023670331574976444,-0.0007635590736754239
1761311633749737200,0.8967373046875,0.0024433890357613564,-0.0023670331574976444,-0.00015271181473508477
1761311633768351000,0.91535107421875,0.0018325417768210173,-0.0023670331574976444,-0.00015271181473508477
1761311633786966000,0.933966064453125,0.0018325417768210173,-0.0017561858985573053,-0.00015271181473508477
1761311633805579800,0.952579833984375,0.0018325417768210173,-0.0017561858985573053,-0.0007635590736754239
1761311633824195000,0.971195068359375,0.0012216945178806782,-0.0011453386396169662,-0.00015271181473508477
1761311633842808800,0.989808837890625,0.0024433890357613564,-0.0011453386396169662,-0.00015271181473508477
1761311633861423900,1.008423828125,0.0012216945178806782,-0.0023670331574976444,-0.0007635590736754239
1761311633880037600,1.02703759765625,0.0024433890357613564,-0.0017561858985573053,-0.0007635590736754239
1761311633898653000,1.04565283203125,0.0018325417768210173,-0.0023670331574976444,-0.0007635590736754239
1761311633917266700,1.0642666015625,0.0024433890357613564,-0.0023670331574976444,-0.00015271181473508477
1761311633935881700,1.0828818359375,0.0012216945178806782,-0.0023670331574976444,-0.00015271181473508477
1761311633954495500,1.10149560546875,0.0012216945178806782,-0.0017561858985573053,-0.00015271181473508477
1761311633973110800,1.12011083984375,0.0018325417768210173,-0.0023670331574976444,-0.0007635590736754239
1761311633991724500,1.138724609375,0.0012216945178806782,-0.0023670331574976444,-0.00015271181473508477
1761311634010339800,1.15733984375,0.0024433890357613564,-0.0017561858985573053,-0.00015271181473508477
1761311634028953300,1.175953369140625,0.0024433890357613564,-0.0023670331574976444,-0.0007635590736754239
1761311634047568600,1.194568603515625,0.0018325417768210173,-0.0011453386396169662,-0.0007635590736754239
1761311634066182400,1.213182373046875,0.0024433890357613564,-0.0011453386396169662,-0.00015271181473508477
1761311634084797700,1.231797607421875,0.0018325417768210173,-0.0017561858985573053,-0.00015271181473508477
1761311634103411200,1.2504111328125,0.0018325417768210173,-0.0017561858985573053,-0.0007635590736754239
1761311634122026500,1.269026611328125,0.0018325417768210173,-0.0017561858985573053,-0.0007635590736754239
1761311634140640300,1.28764013671875,0.0024433890357613564,-0.0017561858985573053,0.0005344913806766272
1761311634159255600,1.306255615234375,0.0024433890357613564,-0.0017561858985573053,-0.0007635590736754239
1761311634177869000,1.324869140625,0.0024433890357613564,-0.0023670331574976444,0.0005344913806766272
1761311634196484400,1.343484375,0.0018325417768210173,-0.0023670331574976444,-0.00015271181473508477
1761311634215098000,1.36209814453125,0.0024433890357613564,-0.0017561858985573053,-0.0007635590736754239
1761311634233713400,1.38071337890625,0.0012216945178806782,-0.0017561858985573053,-0.0007635590736754239
1761311634252327000,1.399326904296875,0.0024433890357613564,-0.0029778804164379835,-0.0007635590736754239
1761311634270942200,1.417942138671875,0.0018325417768210173,-0.0023670331574976444,-0.0007635590736754239
1761311634289556000,1.436555908203125,0.0018325417768210173,-0.0011453386396169662,0.0005344913806766272
1761311634308171300,1.455171142578125,0.0024433890357613564,-0.0023670331574976444,-0.00015271181473508477
1761311634326784800,1.47378466796875,0.0018325417768210173,-0.0023670331574976444,-0.00015271181473508477
1761311634345400000,1.492400146484375,0.0018325417768210173,-0.0023670331574976444,-0.00015271181473508477
1761311634364013800,1.511013916015625,0.0018325417768210173,-0.0023670331574976444,-0.0007635590736754239
1761311634382629000,1.529629150390625,0.0018325417768210173,-0.0029778804164379835,-0.0007635590736754239
1761311634401242600,1.54824267578125,0.0018325417768210173,-0.0017561858985573053,-0.00015271181473508477
1761311634419858000,1.56685791015625,0.0018325417768210173,-0.0017561858985573053,-0.00015271181473508477
1761311634438471700,1.5854716796875,0.0018325417768210173,-0.0011453386396169662,-0.00015271181473508477
1761311634457087000,1.6040869140625,0.0018325417768210173,-0.0023670331574976444,-0.00015271181473508477
1761311634475700500,1.622700439453125,0.0012216945178806782,-0.0023670331574976444,-0.00015271181473508477
1761311634494315800,1.641315673828125,0.0024433890357613564,-0.0023670331574976444,-0.00015271181473508477
1761311634512929500,1.659929443359375,0.0018325417768210173,-0.0023670331574976444,-0.00015271181473508477
1761311634531544800,1.678544921875,0.0024433890357613564,-0.0011453386396169662,-0.00015271181473508477
1761311634550158300,1.697158447265625,0.0018325417768210173,-0.0023670331574976444,-0.00015271181473508477
1761311634568773600,1.715773681640625,0.0018325417768210173,-0.0023670331574976444,-0.00015271181473508477
1761311634587387400,1.734387451171875,0.0012216945178806782,-0.0017561858985573053,-0.0007635590736754239
1761311634606002700,1.753002685546875,0.0024433890357613564,-0.0023670331574976444,-0.001374406274408102
1761311634624616200,1.7716162109375,0.0024433890357613564,-0.0023670331574976444,-0.00015271181473508477
1761311634643231500,1.7902314453125,0.0018325417768210173,-0.0017561858985573053,0.0005344913806766272
1761311634661845200,1.80884521484375,0.0024433890357613564,-0.0029778804164379835,-0.00015271181473508477
1761311634680460300,1.827460205078125,0.0018325417768210173,-0.0023670331574976444,-0.00015271181473508477
1761311634699074000,1.846073974609375,0.0018325417768210173,-0.0017561858985573053,-0.00015271181473508477
1761311634717689300,1.864689453125,0.0018325417768210173,-0.0017561858985573053,-0.0007635590736754239
1761311634736303000,1.88330322265625,0.0024433890357613564,-0.0029778804164379835,-0.0007635590736754239
1761311634754918100,1.901918212890625,0.0012216945178806782,-0.0017561858985573053,-0.00015271181473508477
1761311634773532000,1.920531982421875,0.0024433890357613564,-0.0017561858985573053,0.0005344913806766272
1761311634792147200,1.939147216796875,0.0012216945178806782,-0.0017561858985573053,-0.00015271181473508477
1761311634810761000,1.957760986328125,0.0018325417768210173,-0.0023670331574976444,0.0005344913806766272
1761311634829376000,1.9763759765625,0.0018325417768210173,-0.0011453386396169662,-0.0007635590736754239
1761311634847989800,1.99498974609375,0.0012216945178806782,-0.0017561858985573053,-0.00015271181473508477
1761311634866605000,2.01360498046875,0.0024433890357613564,-0.0017561858985573053,-0.00015271181473508477
1761311634885218600,2.032218505859375,0.0018325417768210173,-0.0017561858985573053,-0.00015271181473508477
1761311634903833900,2.050833740234375,0.0018325417768210173,-0.0011453386396169662,-0.00015271181473508477
1761311634922447600,2.069447509765625,0.0024433890357613564,-0.0023670331574976444,-0.00015271181473508477
1761311634941063000,2.08806298828125,0.0018325417768210173,-0.0017561858985573053,-0.00015271181473508477
1761311634959676400,2.106676513671875,0.0024433890357613564,-0.0017561858985573053,-0.00015271181473508477
1761311634978291700,2.125291748046875,0.0018325417768210173,-0.0017561858985573053,-0.00015271181473508477
1761311634996905500,2.143905517578125,0.0024433890357613564,-0.0017561858985573053,-0.00015271181473508477
1761311635015520800,2.162520751953125,0.0024433890357613564,-0.0023670331574976444,-0.00015271181473508477
1761311635034134300,2.18113427734375,0.0018325417768210173,-0.0023670331574976444,-0.0007635590736754239
1761311635052749600,2.19974951171875,0.0018325417768210173,-0.0023670331574976444,-0.00015271181473508477
1761311635071363300,2.21836328125,0.0018325417768210173,-0.0023670331574976444,-0.00015271181473508477
1761311635089978400,2.236978271484375,0.0018325417768210173,-0.0023670331574976444,-0.00015271181473508477
1761311635108592000,2.255592041015625,0.0024433890357613564,-0.0011453386396169662,-0.0007635590736754239
1761311635127207400,2.27420751953125,0.0024433890357613564,-0.0029778804164379835,-0.0007635590736754239
1761311635145821200,2.2928212890625,0.0018325417768210173,-0.0023670331574976444,-0.00015271181473508477
1761311635164436200,2.311436279296875,0.0012216945178806782,-0.0017561858985573053,-0.00015271181473508477
1761311635183050000,2.330050048828125,0.0012216945178806782,-0.0023670331574976444,-0.0007635590736754239
1761311635201665300,2.348665283203125,0.0018325417768210173,-0.0017561858985573053,-0.0007635590736754239
1761311635220278800,2.36727880859375,0.0018325417768210173,-0.0017561858985573053,-0.0007635590736754239
1761311635238894000,2.38589404296875,0.0018325417768210173,-0.0023670331574976444,-0.00015271181473508477
1761311635257507800,2.4045078125,0.0018325417768210173,-0.0029778804164379835,-0.00015271181473508477
1761311635276123100,2.423123046875,0.0018325417768210173,-0.0017561858985573053,-0.00015271181473508477
1761311635294736600,2.441736572265625,0.0012216945178806782,-0.0023670331574976444,-0.00015271181473508477
1761311635313352000,2.46035205078125,0.0024433890357613564,-0.0017561858985573053,0.0005344913806766272
1761311635331965700,2.478965576171875,0.0024433890357613564,-0.0017561858985573053,-0.00015271181473508477
1761311635350580700,2.497580810546875,0.0018325417768210173,-0.0017561858985573053,-0.0007635590736754239
1761311635369194500,2.516194580078125,0.0018325417768210173,-0.0017561858985573053,0.0005344913806766272
1761311635387809800,2.534809814453125,0.0012216945178806782,-0.0017561858985573053,-0.00015271181473508477
1761311635406423600,2.553423583984375,0.0018325417768210173,-0.0017561858985573053,-0.00015271181473508477
1761311635425038600,2.57203857421875,0.0012216945178806782,-0.0017561858985573053,0.0005344913806766272
1761311635443652400,2.59065234375,0.0018325417768210173,-0.0017561858985573053,-0.00015271181473508477
1761311635462267600,2.609267578125,0.0024433890357613564,-0.0029778804164379835,-0.00015271181473508477
1761311635480881200,2.627881103515625,0.0018325417768210173,-0.0023670331574976444,-0.0007635590736754239
1761311635499496400,2.646496337890625,0.0024433890357613564,-0.0017561858985573053,-0.00015271181473508477
1761311635518110200,2.665110107421875,0.0018325417768210173,-0.0023670331574976444,-0.00015271181473508477
1761311635536725200,2.683725341796875,0.0018325417768210173,-0.0023670331574976444,-0.00015271181473508477
1761311635555339000,2.702339111328125,0.0012216945178806782,-0.0029778804164379835,-0.00015271181473508477
1761311635573954300,2.720954345703125,0.0018325417768210173,-0.0017561858985573053,-0.0007635590736754239
1761311635592568000,2.739568115234375,0.0018325417768210173,-0.0017561858985573053,-0.00015271181473508477
1761311635611183000,2.75818310546875,0.0018325417768210173,-0.0017561858985573053,0.0005344913806766272
1761311635629796900,2.776796875,0.0018325417768210173,-0.0023670331574976444,-0.00015271181473508477
1761311635648412200,2.795412109375,0.0018325417768210173,-0.0023670331574976444,-0.0007635590736754239
1761311635667025700,2.814025634765625,0.0012216945178806782,-0.0011453386396169662,-0.00015271181473508477
1761311635685641000,2.832640869140625,0.0018325417768210173,-0.0011453386396169662,-0.00015271181473508477
1761311635704254700,2.851254638671875,0.0018325417768210173,-0.0023670331574976444,-0.0007635590736754239
1761311635722869800,2.869869873046875,0.0024433890357613564,-0.0017561858985573053,-0.00015271181473508477
1761311635741483500,2.8884833984375,0.0018325417768210173,-0.0011453386396169662,0.0005344913806766272
1761311635760098800,2.907098876953125,0.0018325417768210173,-0.0017561858985573053,-0.0007635590736754239
1761311635778712300,2.92571240234375,0.0018325417768210173,-0.0023670331574976444,-0.0007635590736754239
1761311635797327600,2.94432763671875,0.0012216945178806782,-0.0017561858985573053,-0.0007635590736754239
1761311635815941400,2.96294140625,0.0018325417768210173,-0.0017561858985573053,-0.0007635590736754239
1761311635834556400,2.981556396484375,0.0012216945178806782,-0.0023670331574976444,-0.00015271181473508477
1761311635853170200,3.000170166015625,0.0018325417768210173,-0.0023670331574976444,0.0005344913806766272
1761311635871785500,3.018785400390625,0.0024433890357613564,-0.0017561858985573053,-0.00015271181473508477
1761311635890399200,3.037399169921875,0.0018325417768210173,-0.0011453386396169662,-0.0007635590736754239
1761311635909014300,3.05601416015625,0.0018325417768210173,-0.0017561858985573053,-0.00015271181473508477
1761311635927628000,3.0746279296875,0.0018325417768210173,-0.0023670331574976444,-0.00015271181473508477
1761311635946243300,3.093243408203125,0.0024433890357613564,-0.0011453386396169662,-0.00015271181473508477
1761311635964856800,3.11185693359375,0.0018325417768210173,-0.0011453386396169662,-0.00015271181473508477
1761311635983472000,3.13047216796875,0.0018325417768210173,-0.0017561858985573053,-0.00015271181473508477
1761311636002086000,3.1490859375,0.0012216945178806782,-0.0017561858985573053,0.0005344913806766272
1761311636020701000,3.167700927734375,0.0012216945178806782,-0.0017561858985573053,-0.0007635590736754239
1761311636039314700,3.186314697265625,0.0018325417768210173,-0.0011453386396169662,-0.00015271181473508477
1761311636057930000,3.204929931640625,0.0018325417768210173,-0.0017561858985573053,0.0005344913806766272
1761311636076543500,3.22354345703125,0.0018325417768210173,-0.0011453386396169662,-0.00015271181473508477
1761311636095158800,3.24215869140625,0.0018325417768210173,-0.0017561858985573053,-0.00015271181473508477
1761311636113772500,3.2607724609375,0.0012216945178806782,-0.0023670331574976444,-0.00015271181473508477
1761311636132387600,3.2793876953125,0.0024433890357613564,-0.0023670331574976444,-0.001374406274408102
1761311636151001300,3.29800146484375,0.0018325417768210173,-0.0017561858985573053,-0.00015271181473508477
1761311636169616600,3.31661669921875,0.0018325417768210173,-0.0017561858985573053,-0.00015271181473508477
1761311636188230100,3.335230224609375,0.0018325417768210173,-0.0011453386396169662,-0.00015271181473508477
1761311636206845400,3.353845458984375,0.0018325417768210173,-0.0017561858985573053,-0.00015271181473508477
1761311636225459200,3.372459228515625,0.0018325417768210173,-0.0017561858985573053,-0.00015271181473508477
1761311636244074200,3.39107421875,0.0018325417768210173,-0.0017561858985573053,-0.00015271181473508477
1761311636262688000,3.40968798828125,0.0024433890357613564,-0.0017561858985573053,-0.00015271181473508477
1761311636281303000,3.428302978515625,0.0018325417768210173,-0.0029778804164379835,-0.0007635590736754239
1761311636299916800,3.446916748046875,0.0018325417768210173,-0.0011453386396169662,-0.00015271181473508477
1761311636318532000,3.465531982421875,0.0018325417768210173,-0.0023670331574976444,-0.00015271181473508477
1761311636337145600,3.4841455078125,0.0018325417768210173,-0.0017561858985573053,-0.00015271181473508477
1761311636355761000,3.502760986328125,0.0018325417768210173,-0.0023670331574976444,0.0005344913806766272
1761311636374374700,3.521374755859375,0.0012216945178806782,-0.0017561858985573053,-0.0007635590736754239
1761311636392989700,3.53998974609375,0.0018325417768210173,-0.0023670331574976444,0.0005344913806766272
1761311636411603500,3.558603515625,0.0012216945178806782,-0.0017561858985573053,0.0005344913806766272
1761311636430218800,3.57721875,0.0006108472589403391,-0.0017561858985573053,-0.00015271181473508477
1761311636448832300,3.595832275390625,0.0018325417768210173,-0.0023670331574976444,0.0005344913806766272
1761311636467447600,3.614447509765625,0.0018325417768210173,-0.0011453386396169662,-0.001374406274408102
1761311636486061300,3.633061279296875,0.0018325417768210173,-0.0023670331574976444,-0.0007635590736754239
1761311636504676400,3.65167626953125,0.0018325417768210173,-0.0005344913806766272,-0.0007635590736754239
1761311636523290000,3.6702900390625,0.0024433890357613564,-0.0011453386396169662,0.0005344913806766272
1761311636541905400,3.688905517578125,0.0024433890357613564,-0.0023670331574976444,0.0005344913806766272
1761311636560519000,3.707518798828125,0.0012216945178806782,-0.0017561858985573053,-0.00015271181473508477
1761311636579134200,3.72613427734375,0.0024433890357613564,-0.0017561858985573053,0.0005344913806766272
1761311636597747700,3.744747802734375,0.0018325417768210173,-0.0011453386396169662,-0.0007635590736754239
1761311636616363000,3.763363037109375,0.0018325417768210173,-0.0017561858985573053,-0.0007635590736754239
1761311636634976800,3.781976806640625,0.0024433890357613564,-0.0023670331574976444,0.0005344913806766272
1761311636653591800,3.800591796875,0.0024433890357613564,-0.0011453386396169662,-0.00015271181473508477
1761311636672205600,3.81920556640625,0.0012216945178806782,-0.0017561858985573053,-0.00015271181473508477
1761311636690820900,3.83782080078125,0.0024433890357613564,-0.0011453386396169662,-0.00015271181473508477
1761311636709434400,3.856434326171875,0.0018325417768210173,-0.0023670331574976444,-0.00015271181473508477
1761311636728049700,3.875049560546875,0.0024433890357613564,-0.0011453386396169662,-0.00015271181473508477
1761311636746663400,3.893663330078125,0.0024433890357613564,-0.0023670331574976444,-0.00015271181473508477
1761311636765278500,3.912278564453125,0.0012216945178806782,-0.0023670331574976444,-0.00015271181473508477
1761311636783892200,3.930892333984375,0.0018325417768210173,-0.0023670331574976444,0.0005344913806766272
1761311636802507300,3.94950732421875,0.0024433890357613564,-0.0023670331574976444,-0.0007635590736754239
1761311636821121000,3.96812109375,0.0018325417768210173,-0.0017561858985573053,-0.00015271181473508477
1761311636839736000,3.986736083984375,0.0018325417768210173,-0.0017561858985573053,-0.0007635590736754239
1761311636858349800,4.005349853515625,0.0018325417768210173,-0.0017561858985573053,0.0005344913806766272
1761311636876965000,4.023965087890625,0.0024433890357613564,-0.0017561858985573053,-0.0007635590736754239
1761311636895578600,4.04257861328125,0.0018325417768210173,-0.0023670331574976444,0.0005344913806766272
1761311636914194000,4.06119384765625,0.0018325417768210173,-0.0017561858985573053,-0.0007635590736754239
1761311636932807700,4.0798076171875,0.0024433890357613564,-0.0023670331574976444,-0.00015271181473508477
1761311636951422700,4.098422607421875,0.0024433890357613564,-0.0023670331574976444,0.0005344913806766272
1761311636970036500,4.117036376953125,0.0024433890357613564,-0.0023670331574976444,-0.0007635590736754239
1761311636988651500,4.135651611328125,0.0012216945178806782,-0.0017561858985573053,-0.00015271181473508477
1761311637007265300,4.154265380859375,0.0024433890357613564,-0.0017561858985573053,-0.0007635590736754239
1761311637025880300,4.17288037109375,0.0018325417768210173,-0.0023670331574976444,-0.0007635590736754239
1761311637044494000,4.191494140625,0.0018325417768210173,-0.0017561858985573053,-0.00015271181473508477
1761311637063109400,4.210109375,0.0018325417768210173,-0.0023670331574976444,-0.00015271181473508477
1761311637081723000,4.228722900390625,0.0024433890357613564,-0.0017561858985573053,0.0005344913806766272
1761311637100338200,4.247338134765625,0.0012216945178806782,-0.0023670331574976444,-0.00015271181473508477
1761311637118952000,4.265951904296875,0.0018325417768210173,-0.0023670331574976444,-0.00015271181473508477
1761311637137567000,4.28456689453125,0.0018325417768210173,-0.0023670331574976444,-0.00015271181473508477
1761311637156180700,4.3031806640625,0.0012216945178806782,-0.0023670331574976444,-0.00015271181473508477
1761311637174795800,4.321795654296875,0.0018325417768210173,-0.0023670331574976444,-0.00015271181473508477
1761311637193409500,4.340409423828125,0.0018325417768210173,-0.0023670331574976444,-0.00015271181473508477
1761311637212024800,4.35902490234375,0.0030542362947016954,-0.0023670331574976444,-0.00015271181473508477
1761311637230638300,4.377638427734375,0.0024433890357613564,-0.0011453386396169662,0.0005344913806766272
1761311637249253600,4.396253662109375,0.0024433890357613564,-0.0023670331574976444,-0.00015271181473508477
1761311637267867100,4.4148671875,0.0018325417768210173,-0.0017561858985573053,-0.00015271181473508477
1761311637286482400,4.433482421875,0.0018325417768210173,-0.0017561858985573053,-0.00015271181473508477
1761311637305096200,4.45209619140625,0.0024433890357613564,-0.0017561858985573053,-0.00015271181473508477
1761311637323711200,4.470711181640625,0.0018325417768210173,-0.0023670331574976444,-0.00015271181473508477
1761311637342325000,4.489324951171875,0.0018325417768210173,-0.0023670331574976444,-0.00015271181473508477
1761311637360940000,4.50793994140625,0.0024433890357613564,-0.0017561858985573053,-0.001374406274408102
1761311637379553800,4.5265537109375,0.0018325417768210173,-0.0023670331574976444,-0.00015271181473508477
1761311637398168800,4.5451689453125,0.0024433890357613564,-0.0023670331574976444,-0.00015271181473508477
1761311637416782600,4.563782470703125,0.0024433890357613564,-0.0017561858985573053,-0.00015271181473508477
1761311637435398000,4.58239794921875,0.0018325417768210173,-0.0011453386396169662,0.0005344913806766272
1761311637454011400,4.601011474609375,0.0018325417768210173,-0.0017561858985573053,-0.00015271181473508477
1761311637472626700,4.619626708984375,0.0024433890357613564,-0.0017561858985573053,-0.00015271181473508477
1761311637491240200,4.638240234375,0.0024433890357613564,-0.0017561858985573053,-0.00015271181473508477
1761311637509855500,4.65685546875,0.0018325417768210173,-0.0029778804164379835,-0.0007635590736754239
1761311637528469200,4.67546923828125,0.0018325417768210173,-0.0017561858985573053,-0.00015271181473508477
1761311637547084300,4.694084228515625,0.0024433890357613564,-0.0017561858985573053,0.0005344913806766272
1761311637565698000,4.712697998046875,0.0018325417768210173,-0.0017561858985573053,-0.00015271181473508477
1761311637584313000,4.73131298828125,0.0018325417768210173,-0.0017561858985573053,-0.00015271181473508477
1761311637602926800,4.7499267578125,0.0018325417768210173,-0.0017561858985573053,-0.00015271181473508477
1761311637621542000,4.7685419921875,0.0030542362947016954,-0.0023670331574976444,-0.00015271181473508477
1761311637640155600,4.78715576171875,0.0018325417768210173,-0.0017561858985573053,-0.00015271181473508477
1761311637658770700,4.805770751953125,0.0018325417768210173,-0.0023670331574976444,-0.00015271181473508477
1761311637677384400,4.824384521484375,0.0018325417768210173,-0.0017561858985573053,-0.00015271181473508477
1761311637695999700,4.842999755859375,0.0018325417768210173,-0.0017561858985573053,0.0005344913806766272
1761311637714613200,4.86161328125,0.0024433890357613564,-0.0023670331574976444,-0.00015271181473508477
1761311637742535000,4.889534912109375,0.0018325417768210173,-0.0023670331574976444,0.0005344913806766272
1761311637761150200,4.908150146484375,0.0024433890357613564,-0.0023670331574976444,-0.0007635590736754239
1761311637779763700,4.926763671875,0.0018325417768210173,-0.0017561858985573053,-0.00015271181473508477
1761311637798379000,4.94537890625,0.0024433890357613564,-0.0023670331574976444,-0.00015271181473508477
1761311637816992500,4.963992431640625,0.0024433890357613564,-0.0017561858985573053,-0.00015271181473508477
1761311637835607800,4.98260791015625,0.0018325417768210173,-0.0023670331574976444,0.0005344913806766272
1761311637854221600,5.0012216796875,0.0024433890357613564,-0.0017561858985573053,-0.00015271181473508477
1761311637872836600,5.019836669921875,0.0024433890357613564,-0.0023670331574976444,-0.00015271181473508477
1761311637891450400,5.038450439453125,0.0030542362947016954,-0.0017561858985573053,-0.00015271181473508477
1761311637910065700,5.057065673828125,0.0018325417768210173,-0.0011453386396169662,-0.00015271181473508477
1761311637928679200,5.07567919921875,0.0018325417768210173,-0.0017561858985573053,-0.0007635590736754239
1761311637947294500,5.09429443359375,0.0018325417768210173,-0.0017561858985573053,-0.00015271181473508477
1761311637965908000,5.112907958984375,0.0024433890357613564,-0.0017561858985573053,-0.0007635590736754239
1761311637984523300,5.131523193359375,0.0030542362947016954,-0.0023670331574976444,-0.00015271181473508477
1761311638003136800,5.15013671875,0.0018325417768210173,-0.0023670331574976444,0.0005344913806766272
1761311638021752000,5.168751953125,0.0018325417768210173,-0.0017561858985573053,-0.00015271181473508477
1761311638040365600,5.187365478515625,0.0024433890357613564,-0.0017561858985573053,-0.00015271181473508477
1761311638058980900,5.20598095703125,0.0018325417768210173,-0.0023670331574976444,0.0011453386396169662
1761311638077594600,5.2245947265625,0.0030542362947016954,-0.0017561858985573053,0.0005344913806766272
1761311638096209700,5.243209716796875,0.0012216945178806782,-0.0023670331574976444,-0.00015271181473508477
1761311638114823400,5.261823486328125,0.0018325417768210173,-0.0017561858985573053,-0.00015271181473508477
1761311638133438500,5.2804384765625,0.0024433890357613564,-0.0023670331574976444,-0.0007635590736754239
1761311638152052200,5.29905224609375,0.0024433890357613564,-0.0017561858985573053,-0.00015271181473508477
1761311638170667300,5.317667236328125,0.0024433890357613564,-0.0023670331574976444,-0.00015271181473508477
1761311638189281000,5.336281005859375,0.0018325417768210173,-0.0017561858985573053,0.0005344913806766272
1761311638207896300,5.354896240234375,0.0018325417768210173,-0.0017561858985573053,-0.0007635590736754239
1761311638226509800,5.373509765625,0.0024433890357613564,-0.0017561858985573053,-0.0007635590736754239
1761311638245125000,5.392125,0.0024433890357613564,-0.0017561858985573053,-0.00015271181473508477
1761311638263738600,5.410738525390625,0.0018325417768210173,-0.0023670331574976444,-0.00015271181473508477
1761311638282354000,5.42935400390625,0.0024433890357613564,-0.0005344913806766272,-0.00015271181473508477
1761311638300967400,5.447967529296875,0.0018325417768210173,-0.0017561858985573053,-0.00015271181473508477
1761311638319582700,5.466582763671875,0.0024433890357613564,-0.0011453386396169662,-0.0007635590736754239
1761311638338196500,5.485196533203125,0.0018325417768210173,-0.0017561858985573053,-0.00015271181473508477
1761311638356811500,5.5038115234375,0.0018325417768210173,-0.0023670331574976444,0.0005344913806766272
1761311638375425300,5.52242529296875,0.0024433890357613564,-0.0017561858985573053,-0.0007635590736754239
1761311638394040300,5.541040283203125,0.0018325417768210173,-0.0017561858985573053,-0.00015271181473508477
1761311638412654000,5.559654052734375,0.0018325417768210173,-0.0017561858985573053,-0.00015271181473508477
1761311638431269000,5.57826904296875,0.0024433890357613564,-0.0017561858985573053,-0.0007635590736754239
1761311638449883000,5.5968828125,0.0018325417768210173,-0.0023670331574976444,-0.0007635590736754239
1761311638468498200,5.615498291015625,0.0024433890357613564,-0.0017561858985573053,-0.00015271181473508477
1761311638487111700,5.634111572265625,0.0018325417768210173,-0.0017561858985573053,-0.0007635590736754239
1761311638505727000,5.65272705078125,0.0024433890357613564,-0.0011453386396169662,-0.0007635590736754239
1761311638524340500,5.671340576171875,0.0018325417768210173,-0.0029778804164379835,-0.00015271181473508477
1761311638542955800,5.689955810546875,0.0012216945178806782,-0.0017561858985573053,-0.00015271181473508477
1761311638561569300,5.7085693359375,0.0024433890357613564,-0.0011453386396169662,0.0005344913806766272
1761311638580184600,5.7271845703125,0.0018325417768210173,-0.0017561858985573053,-0.00015271181473508477
1761311638598798300,5.74579833984375,0.0018325417768210173,-0.0017561858985573053,-0.0007635590736754239
1761311638617413400,5.764413330078125,0.0024433890357613564,-0.0023670331574976444,-0.0007635590736754239
1761311638636027100,5.783027099609375,0.0024433890357613564,-0.0011453386396169662,-0.00015271181473508477
1761311638654642400,5.801642333984375,0.0018325417768210173,-0.0017561858985573053,-0.00015271181473508477
1761311638673256000,5.820255859375,0.0018325417768210173,-0.0023670331574976444,0.0005344913806766272
1761311638691871200,5.838871337890625,0.0018325417768210173,-0.0029778804164379835,-0.0007635590736754239
1761311638710484700,5.857484619140625,0.0024433890357613564,-0.0017561858985573053,-0.0007635590736754239
1761311638729100000,5.87610009765625,0.0030542362947016954,-0.0011453386396169662,-0.00015271181473508477
1761311638747713500,5.894713623046875,0.0024433890357613564,-0.0017561858985573053,-0.0007635590736754239
1761311638766328800,5.913328857421875,0.0024433890357613564,-0.0011453386396169662,-0.00015271181473508477
1761311638784942600,5.931942626953125,0.0018325417768210173,-0.0023670331574976444,-0.00015271181473508477
1761311638803557600,5.9505576171875,0.0024433890357613564,-0.0017561858985573053,-0.00015271181473508477
1761311638822171400,5.96917138671875,0.0024433890357613564,-0.0029778804164379835,-0.00015271181473508477
1761311638840786700,5.98778662109375,0.0018325417768210173,-0.0023670331574976444,0.0005344913806766272
1761311638859400200,6.006400146484375,0.0012216945178806782,-0.0017561858985573053,-0.00015271181473508477
1761311638878015500,6.025015380859375,0.0024433890357613564,-0.0023670331574976444,-0.00015271181473508477
1761311638896629000,6.04362890625,0.0024433890357613564,-0.0017561858985573053,-0.00015271181473508477
1761311638915244300,6.062244384765625,0.0012216945178806782,-0.0023670331574976444,-0.00015271181473508477
1761311638933857800,6.08085791015625,0.0018325417768210173,-0.0017561858985573053,-0.00015271181473508477
1761311638952473000,6.09947314453125,0.0018325417768210173,-0.0017561858985573053,-0.0007635590736754239
1761311638971086800,6.1180869140625,0.0012216945178806782,-0.0017561858985573053,-0.00015271181473508477
1761311638989702000,6.136701904296875,0.0018325417768210173,-0.0017561858985573053,0.0005344913806766272
1761311639008315600,6.155315673828125,0.0018325417768210173,-0.0023670331574976444,-0.00015271181473508477
1761311639026931000,6.173930908203125,0.0018325417768210173,-0.0023670331574976444,-0.00015271181473508477
1761311639045544400,6.19254443359375,0.0018325417768210173,-0.0023670331574976444,-0.0007635590736754239
1761311639064159700,6.21115966796875,0.0024433890357613564,-0.0017561858985573053,-0.00015271181473508477
1761311639082773200,6.229773193359375,0.0018325417768210173,-0.0017561858985573053,0.0005344913806766272
1761311639101388500,6.248388427734375,0.0024433890357613564,-0.0017561858985573053,-0.00015271181473508477
1761311639120002300,6.267002197265625,0.0018325417768210173,-0.0023670331574976444,-0.00015271181473508477
1761311639138617300,6.285617431640625,0.0024433890357613564,-0.0017561858985573053,-0.00015271181473508477
1761311639157231000,6.304231201171875,0.0024433890357613564,-0.0017561858985573053,-0.0007635590736754239
1761311639175846400,6.322846435546875,0.0018325417768210173,-0.0023670331574976444,-0.0007635590736754239
1761311639194460000,6.3414599609375,0.0030542362947016954,-0.0011453386396169662,-0.00015271181473508477
1761311639213075200,6.3600751953125,0.0024433890357613564,-0.0017561858985573053,-0.00015271181473508477
1761311639231688700,6.378688720703125,0.0030542362947016954,-0.0029778804164379835,-0.0007635590736754239
1761311639250304000,6.397303955078125,0.0018325417768210173,-0.0023670331574976444,-0.00015271181473508477
1761311639268917500,6.41591748046875,0.0024433890357613564,-0.0017561858985573053,-0.00015271181473508477
1761311639287532800,6.43453271484375,0.0024433890357613564,-0.0017561858985573053,0.0005344913806766272
1761311639306146600,6.453146484375,0.0018325417768210173,-0.0017561858985573053,-0.0007635590736754239
1761311639324761900,6.471761962890625,0.0024433890357613564,-0.0017561858985573053,-0.00015271181473508477
1761311639343375400,6.490375244140625,0.0018325417768210173,-0.0017561858985573053,-0.00015271181473508477
1761311639361990700,6.50899072265625,0.0024433890357613564,-0.0017561858985573053,-0.00015271181473508477
1761311639380604200,6.527604248046875,0.0024433890357613564,-0.0023670331574976444,0.0005344913806766272
1761311639399219500,6.546219482421875,0.0024433890357613564,-0.0023670331574976444,0.0005344913806766272
1761311639417833200,6.564833251953125,0.0024433890357613564,-0.0017561858985573053,-0.00015271181473508477
1761311639436448500,6.583448486328125,0.0030542362947016954,-0.0011453386396169662,0.0005344913806766272
1761311639455062000,6.60206201171875,0.0030542362947016954,-0.0011453386396169662,-0.00015271181473508477
1761311639473677300,6.62067724609375,0.0024433890357613564,-0.0017561858985573053,-0.00015271181473508477
1761311639492290800,6.639290771484375,0.0030542362947016954,-0.0017561858985573053,-0.00015271181473508477
1761311639510906000,6.657906005859375,0.0024433890357613564,-0.0017561858985573053,-0.00015271181473508477
1761311639529519900,6.676519775390625,0.0024433890357613564,-0.0017561858985573053,0.0005344913806766272
1761311639548135000,6.695135009765625,0.0018325417768210173,-0.0017561858985573053,-0.00015271181473508477
1761311639566748700,6.713748779296875,0.0024433890357613564,-0.0017561858985573053,0.0005344913806766272
1761311639585364000,6.732364013671875,0.0030542362947016954,-0.0017561858985573053,-0.00015271181473508477
1761311639613284900,6.760284912109375,0.0024433890357613564,-0.0017561858985573053,-0.0007635590736754239
1761311639631900000,6.77889990234375,0.0024433890357613564,-0.0017561858985573053,0.0005344913806766272
1761311639650513700,6.797513671875,0.0024433890357613564,-0.0017561858985573053,-0.0007635590736754239
1761311639669129000,6.81612890625,0.0024433890357613564,-0.0023670331574976444,0.0005344913806766272
1761311639687742500,6.834742431640625,0.0030542362947016954,-0.0017561858985573053,-0.0007635590736754239
1761311639706357800,6.853357666015625,0.0024433890357613564,-0.0017561858985573053,-0.0007635590736754239
1761311639724971500,6.871971435546875,0.0018325417768210173,-0.0029778804164379835,0.0011453386396169662
1761311639743586600,6.890586669921875,0.0030542362947016954,-0.0023670331574976444,-0.00015271181473508477
1761311639762200300,6.909200439453125,0.0018325417768210173,-0.0023670331574976444,0.0005344913806766272
1761311639780815600,6.927815673828125,0.0024433890357613564,-0.0017561858985573053,-0.0007635590736754239
1761311639799429000,6.94642919921875,0.0024433890357613564,-0.0017561858985573053,-0.0007635590736754239
1761311639818044400,6.96504443359375,0.0024433890357613564,-0.0017561858985573053,-0.00015271181473508477
1761311639836658200,6.983658203125,0.0018325417768210173,-0.0011453386396169662,-0.00015271181473508477
1761311639855273200,7.002273193359375,0.0018325417768210173,-0.0017561858985573053,-0.00015271181473508477
1761311639873887000,7.020886962890625,0.0030542362947016954,-0.0023670331574976444,-0.00015271181473508477
1761311639892502300,7.039502197265625,0.0030542362947016954,-0.0017561858985573053,-0.00015271181473508477
1761311639911116000,7.058115966796875,0.0024433890357613564,-0.0029778804164379835,-0.00015271181473508477
1761311639929731000,7.07673095703125,0.0018325417768210173,-0.0023670331574976444,-0.00015271181473508477
1761311639948344800,7.0953447265625,0.0024433890357613564,-0.0011453386396169662,-0.00015271181473508477
1761311639966960000,7.113960205078125,0.0024433890357613564,-0.0017561858985573053,-0.00015271181473508477
1761311639994881800,7.1418818359375,0.0024433890357613564,-0.0017561858985573053,-0.00015271181473508477
1761311640013495300,7.160495361328125,0.0024433890357613564,-0.0017561858985573053,-0.00015271181473508477
1761311640032110600,7.179110595703125,0.0024433890357613564,-0.0011453386396169662,0.0005344913806766272
1761311640050724400,7.197724365234375,0.0018325417768210173,-0.0017561858985573053,-0.00015271181473508477
1761311640069339600,7.216339599609375,0.0024433890357613564,-0.0017561858985573053,-0.0007635590736754239
1761311640087953200,7.234953125,0.0030542362947016954,-0.0017561858985573053,-0.00015271181473508477
1761311640106568400,7.253568359375,0.0030542362947016954,-0.0011453386396169662,-0.00015271181473508477
1761311640125182200,7.27218212890625,0.0018325417768210173,-0.0023670331574976444,-0.00015271181473508477
1761311640143797500,7.290797607421875,0.0030542362947016954,-0.0023670331574976444,0.0005344913806766272
1761311640162411000,7.309410888671875,0.0018325417768210173,-0.0017561858985573053,0.0005344913806766272
1761311640181026300,7.3280263671875,0.0030542362947016954,-0.0029778804164379835,0.0005344913806766272
1761311640199640000,7.34664013671875,0.0030542362947016954,-0.0017561858985573053,-0.0007635590736754239
1761311640218255400,7.36525537109375,0.0024433890357613564,-0.0017561858985573053,-0.00015271181473508477
1761311640236868900,7.383868896484375,0.0024433890357613564,-0.0023670331574976444,-0.00015271181473508477
1761311640255484200,7.402484130859375,0.0024433890357613564,-0.0017561858985573053,0.0005344913806766272
1761311640274098000,7.421097900390625,0.0018325417768210173,-0.0023670331574976444,0.0005344913806766272
1761311640292713200,7.439713134765625,0.0018325417768210173,-0.0023670331574976444,-0.0007635590736754239
1761311640311326700,7.45832666015625,0.0024433890357613564,-0.0017561858985573053,0.0011453386396169662
1761311640329942000,7.47694189453125,0.0024433890357613564,-0.0023670331574976444,-0.00015271181473508477
1761311640348555800,7.4955556640625,0.0024433890357613564,-0.0023670331574976444,-0.0007635590736754239
1761311640367171000,7.514171142578125,0.0030542362947016954,-0.0023670331574976444,-0.00015271181473508477
1761311640385784600,7.53278466796875,0.0030542362947016954,-0.0023670331574976444,-0.0007635590736754239
1761311640404399900,7.55139990234375,0.0018325417768210173,-0.0017561858985573053,-0.0007635590736754239
1761311640423013600,7.570013671875,0.0024433890357613564,-0.0023670331574976444,-0.001374406274408102
1761311640441629000,7.58862890625,0.0024433890357613564,-0.0011453386396169662,-0.0007635590736754239
1761311640460242400,7.607242431640625,0.0018325417768210173,-0.0017561858985573053,0.0005344913806766272
1761311640478857700,7.625857666015625,0.0024433890357613564,-0.0023670331574976444,-0.00015271181473508477
1761311640497471500,7.644471435546875,0.0030542362947016954,-0.0017561858985573053,0.0005344913806766272
1761311640516086800,7.663086669921875,0.0024433890357613564,-0.0023670331574976444,0.0005344913806766272
1761311640534700300,7.6817001953125,0.0018325417768210173,-0.0023670331574976444,-0.00015271181473508477
1761311640553315600,7.700315673828125,0.0018325417768210173,-0.0023670331574976444,-0.00015271181473508477
1761311640571929300,7.718929443359375,0.0018325417768210173,-0.0023670331574976444,-0.0007635590736754239
1761311640590544600,7.737544677734375,0.0024433890357613564,-0.0017561858985573053,-0.00015271181473508477
1761311640609158400,7.756158447265625,0.0018325417768210173,-0.0023670331574976444,0.0005344913806766272
1761311640627773400,7.7747734375,0.0024433890357613564,-0.0017561858985573053,-0.00015271181473508477
1761311640646387200,7.79338720703125,0.0018325417768210173,-0.0029778804164379835,-0.0007635590736754239
1761311640665002500,7.81200244140625,0.0024433890357613564,-0.0023670331574976444,-0.00015271181473508477
1761311640683616300,7.8306162109375,0.0024433890357613564,-0.0023670331574976444,-0.00015271181473508477
1761311640702231600,7.8492314453125,0.0024433890357613564,-0.0017561858985573053,-0.00015271181473508477
1761311640720845000,7.867844970703125,0.0030542362947016954,-0.0017561858985573053,-0.00015271181473508477
1761311640739460600,7.886460693359375,0.0024433890357613564,-0.0023670331574976444,-0.0007635590736754239
1761311640758074000,7.90507421875,0.0018325417768210173,-0.0023670331574976444,-0.0007635590736754239
1761311640776689400,7.923689453125,0.0030542362947016954,-0.0023670331574976444,-0.00015271181473508477
1761311640795303200,7.94230322265625,0.0024433890357613564,-0.0023670331574976444,-0.00015271181473508477
1761311640813918500,7.96091845703125,0.0024433890357613564,-0.0023670331574976444,-0.0007635590736754239
1761311640832532200,7.9795322265625,0.0024433890357613564,-0.0023670331574976444,-0.0007635590736754239
1761311640851147300,7.998147216796875,0.0024433890357613564,-0.0017561858985573053,-0.0007635590736754239
1761311640869761000,8.016760986328125,0.0024433890357613564,-0.0023670331574976444,-0.00015271181473508477
1761311640888376300,8.035376220703125,0.0024433890357613564,-0.0023670331574976444,0.0005344913806766272
1761311640906990000,8.053989990234374,0.0030542362947016954,-0.0023670331574976444,-0.0007635590736754239
1761311640925605400,8.07260546875,0.0012216945178806782,-0.0017561858985573053,0.0005344913806766272
1761311640953526300,8.1005263671875,0.0024433890357613564,-0.0017561858985573053,-0.0007635590736754239
1761311640981448000,8.128447998046875,0.0024433890357613564,-0.0029778804164379835,-0.00015271181473508477
1761311641000063200,8.147063232421875,0.0030542362947016954,-0.0017561858985573053,-0.0007635590736754239
1761311641018677000,8.165677001953124,0.0024433890357613564,-0.0023670331574976444,-0.0007635590736754239
1761311641037292300,8.184292236328124,0.0018325417768210173,-0.0017561858985573053,-0.00015271181473508477
1761311641055906000,8.202906005859376,0.0024433890357613564,-0.0017561858985573053,-0.00015271181473508477
1761311641074521300,8.221521240234376,0.0030542362947016954,-0.0017561858985573053,-0.00015271181473508477
1761311641093134800,8.240134765625,0.0024433890357613564,-0.0017561858985573053,0.0005344913806766272
1761311641111750400,8.25875048828125,0.0024433890357613564,-0.0017561858985573053,0.0005344913806766272
1761311641130364000,8.277364013671875,0.0024433890357613564,-0.0023670331574976444,0.0005344913806766272
1761311641148979200,8.295979248046875,0.0018325417768210173,-0.0029778804164379835,0.0005344913806766272
1761311641167593000,8.314593017578124,0.0024433890357613564,-0.0023670331574976444,0.0005344913806766272
1761311641186208300,8.333208251953126,0.0024433890357613564,-0.0029778804164379835,-0.00015271181473508477
1761311641204822000,8.351822021484375,0.0024433890357613564,-0.0023670331574976444,0.0005344913806766272
1761311641223437300,8.370437255859375,0.0024433890357613564,-0.0017561858985573053,-0.00015271181473508477
1761311641242051000,8.389051025390625,0.0024433890357613564,-0.0023670331574976444,-0.00015271181473508477
1761311641260666400,8.407666259765625,0.0024433890357613564,-0.0029778804164379835,-0.0007635590736754239
1761311641279279900,8.42627978515625,0.0030542362947016954,-0.0017561858985573053,-0.0007635590736754239
1761311641297895200,8.444895263671874,0.0024433890357613564,-0.0029778804164379835,-0.0007635590736754239
1761311641316509000,8.463509033203126,0.0024433890357613564,-0.0017561858985573053,0.0005344913806766272
1761311641344431600,8.491431640625,0.0024433890357613564,-0.0023670331574976444,-0.00015271181473508477
1761311641363045400,8.51004541015625,0.0030542362947016954,-0.0017561858985573053,-0.00015271181473508477
1761311641381660700,8.52866064453125,0.0024433890357613564,-0.0029778804164379835,-0.00015271181473508477
1761311641400274200,8.547274169921875,0.0030542362947016954,-0.0017561858985573053,-0.0007635590736754239
1761311641418889500,8.565889404296875,0.0024433890357613564,-0.0023670331574976444,-0.00015271181473508477
1761311641437503200,8.584503173828125,0.0030542362947016954,-0.0017561858985573053,0.0005344913806766272
1761311641456118500,8.603118408203125,0.0024433890357613564,-0.0029778804164379835,-0.00015271181473508477
1761311641474732300,8.621732177734375,0.0024433890357613564,-0.0011453386396169662,0.0005344913806766272
1761311641493347600,8.64034765625,0.0018325417768210173,-0.0023670331574976444,-0.0007635590736754239
1761311641511961300,8.65896142578125,0.0024433890357613564,-0.0023670331574976444,-0.00015271181473508477
1761311641530576600,8.67757666015625,0.0024433890357613564,-0.0023670331574976444,-0.0007635590736754239
1761311641549190400,8.6961904296875,0.0024433890357613564,-0.0011453386396169662,-0.0007635590736754239
1761311641567805700,8.7148056640625,0.0024433890357613564,-0.0017561858985573053,0.0005344913806766272
1761311641586419500,8.73341943359375,0.0024433890357613564,-0.0023670331574976444,0.0005344913806766272
1761311641605034800,8.75203466796875,0.0024433890357613564,-0.0017561858985573053,-0.00015271181473508477
1761311641623648500,8.7706484375,0.0024433890357613564,-0.0011453386396169662,-0.0007635590736754239
1761311641642263800,8.789263916015624,0.0024433890357613564,-0.0023670331574976444,-0.00015271181473508477
1761311641660877600,8.807877685546876,0.0024433890357613564,-0.0023670331574976444,-0.00015271181473508477
1761311641679492900,8.826492919921876,0.0024433890357613564,-0.0023670331574976444,-0.00015271181473508477
1761311641698106600,8.845106689453125,0.0030542362947016954,-0.0029778804164379835,-0.0007635590736754239
1761311641716722000,8.863721923828125,0.0024433890357613564,-0.0017561858985573053,-0.00015271181473508477
1761311641735335700,8.882335693359375,0.0024433890357613564,-0.0017561858985573053,-0.0007635590736754239
1761311641753951000,8.900950927734375,0.0018325417768210173,-0.0011453386396169662,-0.00015271181473508477
1761311641772564700,8.919564697265624,0.0024433890357613564,-0.0023670331574976444,0.0005344913806766272
1761311641791180000,8.938179931640626,0.0024433890357613564,-0.0023670331574976444,-0.00015271181473508477
1761311641809793800,8.956793701171875,0.0018325417768210173,-0.0017561858985573053,-0.0007635590736754239
1761311641828409000,8.9754091796875,0.0030542362947016954,-0.0023670331574976444,-0.00015271181473508477
1761311641847022800,8.99402294921875,0.0024433890357613564,-0.0023670331574976444,-0.0007635590736754239
1761311641865638100,9.01263818359375,0.0024433890357613564,-0.0023670331574976444,-0.00015271181473508477
1761311641884252000,9.031251953125,0.0018325417768210173,-0.0023670331574976444,-0.00015271181473508477
1761311641902867200,9.0498671875,0.0018325417768210173,-0.0023670331574976444,0.0005344913806766272
1761311641921481000,9.06848095703125,0.0018325417768210173,-0.0023670331574976444,-0.00015271181473508477
1761311641940096300,9.08709619140625,0.0018325417768210173,-0.0029778804164379835,0.0005344913806766272
1761311641958710000,9.1057099609375,0.0030542362947016954,-0.0017561858985573053,-0.001374406274408102
1761311641977325300,9.1243251953125,0.0024433890357613564,-0.0017561858985573053,-0.00015271181473508477
1761311641995939000,9.14293896484375,0.0024433890357613564,-0.0017561858985573053,0.0005344913806766272
1761311642014554400,9.161554443359375,0.0024433890357613564,-0.0023670331574976444,-0.00015271181473508477
1761311642033168100,9.180168212890624,0.0024433890357613564,-0.0017561858985573053,-0.0007635590736754239
1761311642051783700,9.19878369140625,0.0024433890357613564,-0.0029778804164379835,-0.0007635590736754239
1761311642070397400,9.2173974609375,0.0018325417768210173,-0.0023670331574976444,-0.00015271181473508477
1761311642089012700,9.2360126953125,0.0018325417768210173,-0.0029778804164379835,0.0011453386396169662
1761311642107626500,9.25462646484375,0.0024433890357613564,-0.0017561858985573053,-0.00015271181473508477
1761311642126241800,9.27324169921875,0.0030542362947016954,-0.0023670331574976444,-0.00015271181473508477
1761311642144855600,9.29185546875,0.0024433890357613564,-0.0023670331574976444,-0.00015271181473508477
1761311642163470800,9.310470947265625,0.0018325417768210173,-0.0023670331574976444,-0.0007635590736754239
1761311642182084600,9.329084716796874,0.0024433890357613564,-0.0023670331574976444,0.0005344913806766272
1761311642200700000,9.347699951171874,0.0024433890357613564,-0.0023670331574976444,-0.00015271181473508477
1761311642219313700,9.366313720703126,0.0024433890357613564,-0.0023670331574976444,-0.00015271181473508477
1761311642237929000,9.384928955078125,0.0018325417768210173,-0.0017561858985573053,-0.00015271181473508477
1761311642256542700,9.403542724609375,0.0018325417768210173,-0.0029778804164379835,-0.0007635590736754239
1761311642275158300,9.422158203125,0.0018325417768210173,-0.0017561858985573053,-0.0007635590736754239
1761311642293772000,9.44077197265625,0.0030542362947016954,-0.0023670331574976444,0.0005344913806766272
1761311642312387300,9.45938720703125,0.0024433890357613564,-0.0017561858985573053,-0.00015271181473508477
1761311642331001000,9.4780009765625,0.0018325417768210173,-0.0023670331574976444,0.0005344913806766272
1761311642349616400,9.496616455078126,0.0024433890357613564,-0.0023670331574976444,-0.00015271181473508477
1761311642368230100,9.515230224609375,0.0018325417768210173,-0.0023670331574976444,-0.00015271181473508477
1761311642386845400,9.533845458984375,0.0024433890357613564,-0.0029778804164379835,0.0005344913806766272
1761311642405459200,9.552459228515625,0.0024433890357613564,-0.0017561858985573053,-0.00015271181473508477
1761311642424074500,9.571074462890625,0.0030542362947016954,-0.0017561858985573053,0.0005344913806766272
1761311642442688500,9.5896884765625,0.0024433890357613564,-0.0023670331574976444,-0.0007635590736754239
1761311642461303800,9.6083037109375,0.0024433890357613564,-0.0029778804164379835,0.0005344913806766272
1761311642479917600,9.62691748046875,0.0024433890357613564,-0.0017561858985573053,-0.00015271181473508477
1761311642498532900,9.645532958984376,0.0018325417768210173,-0.0023670331574976444,-0.00015271181473508477
1761311642517146600,9.664146728515625,0.0024433890357613564,-0.0017561858985573053,-0.00015271181473508477
1761311642535762000,9.682761962890625,0.0024433890357613564,-0.0017561858985573053,-0.00015271181473508477
1761311642554375700,9.701375732421875,0.0018325417768210173,-0.0023670331574976444,-0.0007635590736754239
1761311642572991200,9.7199912109375,0.0024433890357613564,-0.0029778804164379835,-0.00015271181473508477
1761311642591605000,9.73860498046875,0.0024433890357613564,-0.0023670331574976444,-0.00015271181473508477
1761311642610220300,9.75722021484375,0.0024433890357613564,-0.0023670331574976444,-0.00015271181473508477
1761311642628834000,9.775833984375,0.0024433890357613564,-0.0017561858985573053,-0.00015271181473508477
1761311642647449300,9.794449462890626,0.0030542362947016954,-0.0017561858985573053,-0.00015271181473508477
1761311642666063400,9.8130634765625,0.0024433890357613564,-0.0017561858985573053,-0.00015271181473508477
1761311642684678700,9.8316787109375,0.0018325417768210173,-0.0023670331574976444,-0.00015271181473508477
1761311642703292400,9.85029248046875,0.0030542362947016954,-0.0023670331574976444,0.0005344913806766272
1761311642721907700,9.86890771484375,0.0024433890357613564,-0.0029778804164379835,0.0005344913806766272
1761311642740521500,9.887521484375,0.0024433890357613564,-0.0023670331574976444,-0.0007635590736754239
1761311642759137000,9.906136962890624,0.0024433890357613564,-0.0023670331574976444,0.0011453386396169662
1761311642777750800,9.924750732421876,0.0018325417768210173,-0.0023670331574976444,-0.00015271181473508477
1761311642796366000,9.943365966796875,0.0024433890357613564,-0.0017561858985573053,-0.00015271181473508477
1761311642814979800,9.961979736328125,0.0018325417768210173,-0.0017561858985573053,0.0005344913806766272
1761311642833595100,9.98059521484375,0.0024433890357613564,-0.0023670331574976444,-0.00015271181473508477
1761311642852209200,9.999209228515625,0.0024433890357613564,-0.0023670331574976444,-0.0007635590736754239
1761311642870824400,10.017824462890625,0.0018325417768210173,-0.0023670331574976444,-0.00015271181473508477
1761311642889438200,10.036438232421874,0.0018325417768210173,-0.0023670331574976444,-0.0007635590736754239
1761311642908053500,10.055053466796876,0.0024433890357613564,-0.0023670331574976444,0.0005344913806766272
1761311642926667500,10.07366748046875,0.0030542362947016954,-0.0023670331574976444,-0.00015271181473508477
1761311642945282800,10.09228271484375,0.0018325417768210173,-0.0017561858985573053,-0.00015271181473508477
1761311642963896600,10.110896484375,0.0024433890357613564,-0.0023670331574976444,-0.00015271181473508477
1761311642982511900,10.129511962890625,0.0024433890357613564,-0.0029778804164379835,-0.00015271181473508477
1761311643010433800,10.157433837890625,0.0018325417768210173,-0.0023670331574976444,-0.00015271181473508477
1761311643029047600,10.176047607421875,0.0024433890357613564,-0.0023670331574976444,0.0005344913806766272
1761311643047663000,10.1946630859375,0.0024433890357613564,-0.0023670331574976444,-0.00015271181473508477
1761311643066276900,10.21327685546875,0.0024433890357613564,-0.0029778804164379835,0.0005344913806766272
1761311643084892200,10.23189208984375,0.0024433890357613564,-0.0023670331574976444,-0.00015271181473508477
1761311643103506000,10.250505859375,0.0024433890357613564,-0.0023670331574976444,-0.00015271181473508477
1761311643122121500,10.26912158203125,0.0024433890357613564,-0.0023670331574976444,0.0005344913806766272
1761311643140735200,10.2877353515625,0.0024433890357613564,-0.0029778804164379835,0.0005344913806766272
1761311643159350500,10.3063505859375,0.0024433890357613564,-0.0017561858985573053,-0.00015271181473508477
1761311643177964300,10.32496435546875,0.0018325417768210173,-0.0011453386396169662,0.0005344913806766272
1761311643196579800,10.343579833984375,0.0018325417768210173,-0.0017561858985573053,-0.0007635590736754239
1761311643215193600,10.362193603515625,0.0024433890357613564,-0.0017561858985573053,-0.0007635590736754239
1761311643233809200,10.38080908203125,0.0024433890357613564,-0.0029778804164379835,-0.00015271181473508477
1761311643252423000,10.3994228515625,0.0024433890357613564,-0.0023670331574976444,0.0005344913806766272
1761311643271038200,10.4180380859375,0.0024433890357613564,-0.0029778804164379835,-0.0007635590736754239
1761311643289652000,10.43665185546875,0.0024433890357613564,-0.0023670331574976444,-0.001374406274408102
1761311643308267500,10.455267578125,0.0024433890357613564,-0.0017561858985573053,-0.00015271181473508477
1761311643326881300,10.47388134765625,0.0024433890357613564,-0.0023670331574976444,-0.00015271181473508477
1761311643345496600,10.49249658203125,0.0024433890357613564,-0.0017561858985573053,0.0005344913806766272
1761311643364110600,10.511110595703125,0.0030542362947016954,-0.0023670331574976444,-0.00015271181473508477
1761311643382726000,10.529725830078124,0.0030542362947016954,-0.0017561858985573053,-0.00015271181473508477
1761311643401339600,10.548339599609376,0.0024433890357613564,-0.0023670331574976444,-0.001374406274408102
1761311643419955200,10.566955078125,0.0024433890357613564,-0.0017561858985573053,-0.00015271181473508477
1761311643438569000,10.58556884765625,0.0024433890357613564,-0.0023670331574976444,-0.0007635590736754239
1761311643457184300,10.604184326171875,0.0024433890357613564,-0.0023670331574976444,-0.00015271181473508477
1761311643475798300,10.62279833984375,0.0024433890357613564,-0.0017561858985573053,-0.00015271181473508477
1761311643494413600,10.64141357421875,0.0024433890357613564,-0.0017561858985573053,0.0005344913806766272
1761311643513027300,10.66002734375,0.0030542362947016954,-0.0011453386396169662,0.0005344913806766272
1761311643531643000,10.678642822265624,0.0024433890357613564,-0.0023670331574976444,-0.00015271181473508477
1761311643550256600,10.697256591796876,0.0024433890357613564,-0.0029778804164379835,-0.00015271181473508477
1761311643568872000,10.715871826171876,0.0024433890357613564,-0.0023670331574976444,0.0005344913806766272
1761311643587486000,10.73448583984375,0.0024433890357613564,-0.0023670331574976444,-0.0007635590736754239
1761311643606101200,10.753101318359375,0.0024433890357613564,-0.0023670331574976444,-0.001374406274408102
1761311643624715000,10.771715087890625,0.0018325417768210173,-0.0023670331574976444,-0.00015271181473508477
1761311643643330600,10.79033056640625,0.0024433890357613564,-0.0023670331574976444,-0.0007635590736754239
1761311643661944300,10.8089443359375,0.0024433890357613564,-0.0029778804164379835,-0.00015271181473508477
1761311643680559900,10.827559814453124,0.0024433890357613564,-0.0023670331574976444,-0.00015271181473508477
1761311643699173600,10.846173583984376,0.0024433890357613564,-0.0023670331574976444,-0.00015271181473508477
1761311643717789000,10.864788818359376,0.0018325417768210173,-0.0023670331574976444,-0.00015271181473508477
1761311643736403000,10.88340283203125,0.0024433890357613564,-0.0023670331574976444,-0.0007635590736754239
1761311643755018200,10.902018310546875,0.0030542362947016954,-0.0023670331574976444,-0.00015271181473508477
1761311643773632000,10.920632080078125,0.0024433890357613564,-0.0029778804164379835,-0.0007635590736754239
1761311643792247600,10.93924755859375,0.0030542362947016954,-0.0023670331574976444,0.0005344913806766272
1761311643810861300,10.957861328125,0.0018325417768210173,-0.0023670331574976444,0.0005344913806766272
1761311643829476900,10.976476806640624,0.0024433890357613564,-0.0017561858985573053,0.0005344913806766272
1761311643848090600,10.995090576171876,0.0030542362947016954,-0.0023670331574976444,-0.0007635590736754239
1761311643866706200,11.0137060546875,0.0024433890357613564,-0.0017561858985573053,-0.00015271181473508477
1761311643885320000,11.03231982421875,0.0024433890357613564,0.004963133949786425,0.0023670331574976444
1761311643903935500,11.050935546875,0.0024433890357613564,0.0019088976550847292,0.0011453386396169662
1761311643922549200,11.06954931640625,0.0024433890357613564,-0.004199574701488018,-0.0007635590736754239
1761311643941164500,11.08816455078125,0.0030542362947016954,-0.004199574701488018,-0.0007635590736754239
1761311643959778600,11.106778564453125,0.0024433890357613564,-0.0035887276753783226,-0.00015271181473508477
1761311643978393900,11.125393798828124,0.0024433890357613564,-0.004810422193259001,-0.00015271181473508477
1761311644006315000,11.15331494140625,0.0024433890357613564,-0.0029778804164379835,-0.0007635590736754239
