time,seconds_elapsed,z,y,x
1761369475763629600,0.230629638671875,0.015231132507324219,0.004361867904663086,-0.0019464865326881409
1761369475782239500,0.249239501953125,0.0042285919189453125,-0.0003966391086578369,0.005451470613479614
1761369475800850700,0.2678505859375,0.012119293212890625,0.0016466230154037476,0.005147501826286316
1761369475819460600,0.286460693359375,0.015055656433105469,0.0036743581295013428,0.007081866264343262
1761369475838072000,0.305072021484375,0.020143508911132812,0.001110181212425232,0.002462327480316162
1761369475856682000,0.323681884765625,0.004879951477050781,0.0010201334953308105,0.00294649600982666
1761369475875293400,0.34229345703125,0.008924484252929688,0.003240227699279785,0.0006866306066513062
1761369475893903000,0.360903076171875,0.010499954223632812,-0.001451939344406128,0.0034812986850738525
1761369475912514600,0.3795146484375,0.005282402038574219,0.0007473230361938477,0.008332833647727966
1761369475931124500,0.39812451171875,0.0117645263671875,0.0029708892107009888,0.00831131637096405
1761369475949736000,0.41673583984375,0.010848045349121094,0.0005267113447189331,-0.0008893236517906189
1761369475968345900,0.435345947265625,0.008009910583496094,-0.0041099488735198975,0.004110559821128845
1761369475986957300,0.453957275390625,0.01432037353515625,0.00054951012134552,0.008772134780883789
1761369476005567200,0.472567138671875,0.020399093627929688,0.002987295389175415,0.004219934344291687
1761369476024178400,0.491178466796875,0.012594223022460938,-0.0016908347606658936,0.004585988819599152
1761369476042788400,0.509788330078125,0.0050258636474609375,0.0005692392587661743,0.002423495054244995
1761369476061399800,0.52839990234375,0.013917922973632812,-0.001720815896987915,0.00955817848443985
1761369476080009700,0.547009765625,0.006430625915527344,0.007685407996177673,0.0073537081480026245
1761369476098621200,0.56562109375,0.01995563507080078,0.002741500735282898,0.01441953331232071
1761369476117231000,0.584231201171875,0.02158069610595703,0.004987999796867371,0.011887632310390472
1761369476135842300,0.60284228515625,0.011432647705078125,0.0002734661102294922,0.014068640768527985
1761369476154452200,0.6214521484375,0.01560211181640625,0.004980981349945068,0.007001772522926331
1761369476173063700,0.640063720703125,0.01750946044921875,0.01174202561378479,0.009608075022697449
1761369476191673600,0.658673583984375,0.005087852478027344,0.00894095003604889,-0.004244677722454071
1761369476210285000,0.67728515625,0.009654998779296875,-0.0006499141454696655,-0.001178145408630371
1761369476228895000,0.69589501953125,0.016431808471679688,0.003982335329055786,0.008656077086925507
1761369476247506200,0.714506103515625,0.015801429748535156,-0.0053179264068603516,0.011196672916412354
1761369476266116000,0.7331162109375,0.012919425964355469,-0.002847030758857727,0.006520576775074005
1761369476284727600,0.7517275390625,0.0032291412353515625,-0.0028047114610671997,0.0022281184792518616
1761369476303337500,0.77033740234375,0.019441604614257812,-0.007551997900009155,0.0025206804275512695
1761369476321949000,0.788948974609375,0.016396522521972656,-0.0026144981384277344,0.012306049466133118
1761369476340558800,0.807558837890625,0.018243789672851562,-0.007233917713165283,0.01249268651008606
1761369476359170300,0.82617041015625,0.017676353454589844,-0.00000813603401184082,0.0030684620141983032
1761369476377780000,0.844780029296875,0.0169677734375,0.0023814737796783447,0.008078992366790771
1761369476396391400,0.863391357421875,0.007100105285644531,0.0022984445095062256,0.008215442299842834
1761369476415001300,0.88200146484375,0.009175300598144531,-0.0000730752944946289,0.008402109146118164
1761369476433612800,0.90061279296875,0.015893936157226562,0.004506111145019531,0.010884180665016174
1761369476452222700,0.91922265625,0.0036287307739257812,0.009028851985931396,0.018118545413017273
1761369476470834200,0.937834228515625,0.008211135864257812,0.003987371921539307,0.013419114053249359
1761369476498750200,0.965750244140625,0.005597114562988281,-0.0008191913366317749,0.0065538957715034485
1761369476517359900,0.98435986328125,0.007720947265625,0.006234228610992432,0.004551805555820465
1761369476535971300,1.002971435546875,0.019191741943359375,-0.0032894015312194824,0.014195919036865234
1761369476554581200,1.021581298828125,0.018434524536132812,0.003782987594604492,0.014131292700767517
1761369476573192700,1.040192626953125,0.006163597106933594,0.003786519169807434,0.014124676585197449
1761369476591802600,1.058802734375,0.008227348327636719,-0.0031365007162094116,0.00709177553653717
1761369476610414000,1.0774140625,0.008028030395507812,0.0016158521175384521,0.016655154526233673
1761369476629024000,1.09602392578125,0.012388229370117188,0.006306082010269165,0.011918604373931885
1761369476647635500,1.114635498046875,0.014250755310058594,-0.003261163830757141,0.00481104850769043
1761369476666245000,1.1332451171875,0.006787300109863281,-0.01010221242904663,0.012111179530620575
1761369476684856800,1.15185693359375,0.011224746704101562,0.004407033324241638,0.019195720553398132
1761369476703466500,1.170466552734375,0.015554428100585938,-0.00511951744556427,0.014483749866485596
1761369476722078000,1.189077880859375,0.008008956909179688,0.009115859866142273,0.0099048912525177
1761369476740688000,1.20768798828125,0.012371063232421875,0.0064078569412231445,0.019336111843585968
1761369476759299300,1.22629931640625,0.012070655822753906,0.011072978377342224,0.005244031548500061
1761369476777909200,1.2449091796875,0.0068378448486328125,0.006072133779525757,0.0031605586409568787
1761369476796520700,1.263520751953125,0.0066070556640625,0.00579524040222168,0.010593883693218231
1761369476815130600,1.282130615234375,0.011092185974121094,0.0010872185230255127,0.015371449291706085
1761369476833742000,1.3007421875,0.003696441650390625,-0.001395300030708313,0.013024665415287018
1761369476852351700,1.319351806640625,0.0059986114501953125,-0.008353739976882935,0.015478357672691345
1761369476870963200,1.337963134765625,0.0010881423950195312,0.0012623369693756104,0.024805016815662384
1761369476889573000,1.356572998046875,0.005673408508300781,0.0060193538665771484,0.010382592678070068
1761369476908184600,1.3751845703125,0.012542724609375,0.0012640506029129028,0.010459862649440765
1761369476926794500,1.39379443359375,0.009650230407714844,-0.0034102797508239746,0.012831859290599823
1761369476945406000,1.412406005859375,0.00234222412109375,0.0013362467288970947,0.015205018222332
1761369476964015900,1.431015869140625,-0.00001621246337890625,0.003570765256881714,0.012823373079299927
1761369476982627300,1.44962744140625,0.009356498718261719,-0.0035673826932907104,0.010639265179634094
1761369477001237200,1.4682373046875,0.004254341125488281,0.003553450107574463,0.008298113942146301
1761369477019848700,1.4868486328125,0.013529777526855469,-0.0012863576412200928,0.015452250838279724
1761369477038458400,1.505458251953125,0.00844573974609375,-0.0012627094984054565,0.006117604672908783
1761369477057069800,1.52406982421875,0.001018524169921875,-0.008279681205749512,0.01582305133342743
1761369477075679700,1.5426796875,0.005724906921386719,0.006170734763145447,0.013577066361904144
1761369477094291200,1.561291259765625,0.0032138824462890625,0.006064698100090027,0.01127208024263382
1761369477112901000,1.579901123046875,0.0031023025512695312,0.0011340677738189697,0.015952013432979584
1761369477131512600,1.5985126953125,0.0030336380004882812,0.008154600858688354,0.020561888813972473
1761369477150122500,1.61712255859375,0.005204200744628906,-0.003732934594154358,0.013129614293575287
1761369477168734000,1.63573388671875,0.012049674987792969,-0.0035900920629501343,0.01310054212808609
1761369477187343600,1.654343505859375,0.006977081298828125,-0.003413379192352295,0.006048195064067841
1761369477205955000,1.672955078125,-0.004913330078125,-0.00332033634185791,0.00866129994392395
1761369477224565000,1.69156494140625,-0.0001277923583984375,0.001420333981513977,0.0020025819540023804
1761369477243176400,1.710176513671875,0.0022611618041992188,0.0014311671257019043,0.014135412871837616
1761369477261786400,1.728786376953125,0.009087562561035156,-0.0009901076555252075,0.004827864468097687
1761369477280397800,1.747397705078125,0.0017566680908203125,-0.0008442103862762451,0.007404923439025879
1761369477299007700,1.7660078125,0.00879669189453125,0.0038551688194274902,0.012328408658504486
1761369477317619200,1.784619140625,0.0015153884887695312,-0.0032375454902648926,0.007712535560131073
1761369477336228900,1.803228759765625,0.0014190673828125,-0.0006462782621383667,0.005601465702056885
1761369477354840600,1.821840576171875,-0.0032625198364257812,0.001707613468170166,0.010429717600345612
1761369477382755600,1.849755615234375,-0.007935523986816406,-0.0006023049354553223,0.017717324197292328
1761369477401367000,1.868366943359375,-0.0008106231689453125,-0.000714033842086792,0.012829408049583435
1761369477419977000,1.88697705078125,0.006312370300292969,-0.0005766004323959351,0.010510958731174469
1761369477438588400,1.90558837890625,-0.0009250640869140625,-0.0005785524845123291,0.01053038239479065
1761369477457198300,1.9241982421875,0.010714530944824219,-0.00048704445362091064,0.00832926481962204
1761369477475809800,1.942809814453125,-0.0036144256591796875,0.006532028317451477,0.01322224736213684
1761369477494419500,1.96141943359375,0.0011701583862304688,-0.003114566206932068,0.006128676235675812
1761369477513031000,1.980031005859375,0.0034818649291992188,-0.003048524260520935,0.013503417372703552
1761369477531640800,1.998640869140625,0.001041412353515625,-0.002912357449531555,0.008919097483158112
1761369477550252300,2.017252197265625,-0.0012731552124023438,-0.0051514506340026855,0.011399134993553162
1761369477568862200,2.0358623046875,0.0010786056518554688,0.004304960370063782,0.00447642058134079
1761369477587473700,2.0544736328125,0.008063316345214844,-0.000635877251625061,0.004865795373916626
1761369477606083600,2.07308349609375,0.0031223297119140625,0.006372570991516113,0.016834653913974762
1761369477624695000,2.091695068359375,0.005248069763183594,0.0038422197103500366,0.009769566357135773
1761369477643305000,2.110304931640625,-0.0018758773803710938,0.006087660789489746,0.007536880671977997
1761369477661916400,2.12891650390625,0.0052051544189453125,0.0035336166620254517,0.017010658979415894
1761369477680526000,2.147526123046875,0.004985809326171875,0.0034515857696533203,0.0146893709897995
1761369477699137500,2.166137451171875,0.009521484375,0.0010962486267089844,0.005436047911643982
1761369477717747500,2.18474755859375,-0.0024509429931640625,0.0010072290897369385,0.017329297959804535
1761369477736359000,2.20335888671875,-0.011635780334472656,0.001103416085243225,0.019514888525009155
1761369477754968800,2.22196875,-0.006628990173339844,-0.0035278499126434326,0.012439563870429993
1761369477773580300,2.240580322265625,-0.00414276123046875,-0.003416001796722412,0.0032761991024017334
1761369477792190200,2.259190185546875,0.0030517578125,-0.0010234415531158447,0.013020828366279602
1761369477810801700,2.2778017578125,-0.0040416717529296875,0.0014791041612625122,0.013144299387931824
1761369477829411600,2.29641162109375,-0.003993988037109375,-0.000850871205329895,0.00620221346616745
1761369477848022800,2.315022705078125,-0.0061817169189453125,-0.0009380877017974854,0.01814965158700943
1761369477866633000,2.333633056640625,0.0010023117065429688,-0.000887557864189148,0.01087459921836853
1761369477885244200,2.352244140625,-0.00601959228515625,0.0014606714248657227,0.006304852664470673
1761369477903854000,2.37085400390625,-0.001155853271484375,0.001470819115638733,0.018191009759902954
1761369477922465500,2.389465576171875,0.008214950561523438,0.00851866602897644,0.018089883029460907
1761369477941075500,2.408075439453125,0.0009126663208007812,-0.0010271966457366943,0.015677109360694885
1761369477959687000,2.42668701171875,0.0008754730224609375,0.0012621432542800903,0.015596091747283936
1761369477978296800,2.445296875,0.00323486328125,0.0012393295764923096,0.015595264732837677
1761369477996908300,2.463908203125,-0.00162506103515625,0.003572717308998108,0.024820156395435333
1761369478015518200,2.482518310546875,0.0077610015869140625,-0.003588452935218811,0.0222385972738266
1761369478034129700,2.501129638671875,-0.004150390625,0.001184806227684021,0.017146527767181396
1761369478052739600,2.519739501953125,0.0029659271240234375,-0.0035052895545959473,0.012371532618999481
1761369478071350800,2.538350830078125,-0.0017690658569335938,-0.008095160126686096,0.010203607380390167
1761369478089960700,2.556960693359375,-0.0064640045166015625,-0.003155127167701721,0.010302580893039703
1761369478108572200,2.575572265625,0.0031232833862304688,-0.005537882447242737,0.005811676383018494
1761369478127182000,2.59418212890625,0.0006990432739257812,-0.0029823482036590576,0.010694824159145355
1761369478145793500,2.61279345703125,0.0005512237548828125,0.004103660583496094,0.013266019523143768
1761369478164403500,2.631403564453125,0.005234718322753906,-0.0029264837503433228,0.015681885182857513
1761369478183015000,2.650014892578125,0.0027027130126953125,-0.0004566460847854614,0.01778145134449005
1761369478201624800,2.668624755859375,0.0003681182861328125,0.0019486844539642334,0.017691783607006073
1761369478220236300,2.687236328125,0.0026254653930664062,0.004328712821006775,0.008307084441184998
1761369478238846200,2.70584619140625,-0.0021343231201171875,-0.0004425644874572754,0.015327736735343933
1761369478257457700,2.724457763671875,0.0048389434814453125,0.008929282426834106,0.012799695134162903
1761369478276067600,2.743067626953125,0.002437591552734375,-0.0007245391607284546,0.0081290602684021
1761369478294678800,2.7616787109375,0.002391815185546875,0.006286844611167908,0.015287891030311584
1761369478313288700,2.780288818359375,-0.0024042129516601562,0.0015243887901306152,0.012982197105884552
1761369478331900200,2.798900146484375,0.0023775100708007812,-0.005514875054359436,0.019895046949386597
1761369478350510000,2.817510009765625,0.0022563934326171875,0.0015442520380020142,0.008233122527599335
1761369478369121500,2.83612158203125,0.0022144317626953125,0.006181269884109497,0.020224064588546753
1761369478387731500,2.8547314453125,-0.00022220611572265625,0.0013808757066726685,0.022386327385902405
1761369478406343000,2.873343017578125,0.0022144317626953125,0.0036148875951766968,0.015176914632320404
1761369478424952800,2.891952880859375,0.004487037658691406,-0.0056505948305130005,0.015190944075584412
1761369478443564300,2.910564208984375,0.0065708160400390625,0.001498401165008545,0.012645766139030457
1761369478462174200,2.92917431640625,-0.0053462982177734375,-0.00083160400390625,0.026829414069652557
1761369478480785700,2.94778564453125,-0.00286102294921875,0.006333112716674805,0.012355826795101166
1761369478499395600,2.9663955078125,-0.0003757476806640625,0.0036392509937286377,0.02168980985879898
1761369478518007000,2.985007080078125,-0.000370025634765625,0.003554999828338623,0.014503434300422668
1761369478536616700,3.00361669921875,-0.0051116943359375,0.005904644727706909,0.014578022062778473
1761369478555228200,3.022228271484375,-0.004870414733886719,-0.0035940855741500854,0.021580509841442108
1761369478573838000,3.040838134765625,-0.00004482269287109375,0.005961686372756958,0.011876091361045837
1761369478592449500,3.059449462890625,-0.00000858306884765625,0.00572773814201355,0.009628541767597198
1761369478611059500,3.0780595703125,0.0022649765014648438,-0.0038753896951675415,0.021367616951465607
1761369478629671000,3.0966708984375,0.0044994354248046875,0.0008856356143951416,0.014190971851348877
1761369478648280800,3.11528076171875,0.004305839538574219,-0.0014225542545318604,0.018754951655864716
1761369478666892300,3.133892333984375,0.0041599273681640625,-0.008395880460739136,0.009199865162372589
1761369478685502200,3.152502197265625,0.0017404556274414062,0.005963116884231567,0.007041819393634796
1761369478704113700,3.17111376953125,-0.005387306213378906,0.0011692792177200317,0.011996060609817505
1761369478722723600,3.1897236328125,-0.0028209686279296875,0.003465130925178528,0.014318577945232391
1761369478741335000,3.2083349609375,0.0019378662109375,-0.003750145435333252,0.014441587030887604
1761369478759945000,3.226945068359375,-0.0074710845947265625,-0.0012145042419433594,0.02137008309364319
1761369478778556400,3.245556396484375,-0.0025587081909179688,0.0010887682437896729,0.016453459858894348
1761369478797166300,3.264166259765625,-0.004833221435546875,-0.003580331802368164,0.01164449006319046
1761369478815777500,3.282777587890625,-0.0022878646850585938,0.00131949782371521,0.011736199259757996
1761369478834387700,3.3013876953125,0.0024137496948242188,0.0012947618961334229,0.014067403972148895
1761369478852999000,3.3199990234375,-0.004619598388671875,0.008420690894126892,0.014165520668029785
1761369478871608800,3.33860888671875,0.0025491714477539062,-0.008012011647224426,0.014134570956230164
1761369478890220300,3.35722021484375,-0.0023708343505859375,0.003980457782745361,0.014214158058166504
1761369478908830200,3.375830322265625,-0.009205818176269531,0.013238191604614258,0.007354326546192169
1761369478927441700,3.394441650390625,0.00278472900390625,-0.0010930001735687256,0.012310758233070374
1761369478946051600,3.413051513671875,-0.009046554565429688,-0.0008875280618667603,0.012346170842647552
1761369478964663000,3.4316630859375,-0.00177001953125,0.0015155225992202759,0.010003522038459778
1761369478983273000,3.45027294921875,-0.0016775131225585938,0.0037993043661117554,0.01954953372478485
1761369479001884400,3.468884521484375,0.0030794143676757812,-0.0009217411279678345,0.021693803369998932
1761369479020494300,3.487494384765625,0.00057220458984375,-0.0005733966827392578,0.0191628560423851
1761369479039105800,3.506105712890625,-0.00168609619140625,0.008708685636520386,0.009516790509223938
1761369479057715700,3.5247158203125,-0.006384849548339844,0.0015097707509994507,0.019001469016075134
1761369479076327200,3.5433271484375,-0.008456230163574219,0.0015108585357666016,0.01646256446838379
1761369479094937000,3.56193701171875,-0.008221626281738281,-0.0008721798658370972,0.00686345249414444
1761369479113548500,3.580548583984375,-0.007915496826171875,0.003844708204269409,0.00953005999326706
1761369479132158500,3.599158447265625,0.010977745056152344,0.0037520676851272583,0.014344081282615662
1761369479150769700,3.617769775390625,-0.0033979415893554688,-0.0008873790502548218,0.014257438480854034
1761369479169379800,3.6363798828125,-0.008002281188964844,0.0015847831964492798,0.02354612946510315
1761369479187991000,3.654990966796875,-0.007821083068847656,-0.0007072985172271729,0.013777755200862885
1761369479206601000,3.67360107421875,-0.0028209686279296875,0.008767291903495789,0.018413007259368896
1761369479225212400,3.69221240234375,-0.007443428039550781,0.0015280842781066895,0.013635344803333282
1761369479243822300,3.710822265625,0.011592864990234375,0.0013637691736221313,0.018351800739765167
1761369479262433800,3.729433837890625,-0.0075531005859375,0.003786742687225342,0.015850849449634552
1761369479281043700,3.748043701171875,-0.016686439514160156,0.001231864094734192,0.008794419467449188
1761369479299655200,3.7666552734375,0.0025348663330078125,0.0011941194534301758,0.013765916228294373
1761369479318265000,3.78526513671875,-0.011561393737792969,0.0011732131242752075,0.011415436863899231
1761369479336876500,3.80387646484375,-0.011144638061523438,0.00337354838848114,0.01848311722278595
1761369479355486500,3.822486572265625,-0.0037984848022460938,0.0008731484413146973,0.016069695353507996
1761369479374098000,3.841097900390625,-0.006072044372558594,-0.0014126002788543701,0.018368110060691833
1761369479392707800,3.859707763671875,-0.008228302001953125,-0.0014962255954742432,0.013494789600372314
1761369479411319300,3.8783193359375,-0.0009813308715820312,0.0056689828634262085,0.018308870494365692
1761369479429929200,3.89692919921875,-0.0009145736694335938,-0.0038530975580215454,0.013413727283477783
1761369479448540700,3.915540771484375,0.00150299072265625,-0.0036284327507019043,0.01582355797290802
1761369479467150600,3.934150634765625,-0.000946044921875,0.0034935325384140015,0.00879262387752533
1761369479485762000,3.952761962890625,0.0013942718505859375,0.0032798051834106445,0.018274478614330292
1761369479504372000,3.9713720703125,-0.005680084228515625,-0.0013605952262878418,0.006571769714355469
1761369479522983400,3.9899833984375,-0.005458831787109375,-0.001257568597793579,0.011444255709648132
1761369479541593300,4.00859326171875,-0.007598876953125,-0.001252889633178711,0.014014117419719696
1761369479560204800,4.027204833984375,0.0020236968994140625,0.0010837465524673462,0.011576935648918152
1761369479578814700,4.045814697265625,-0.012094497680664062,0.0033266544342041016,0.00937722623348236
1761369479597426200,4.06442626953125,0.0023851394653320312,-0.003654494881629944,0.00948777049779892
1761369479616036000,4.0830361328125,-0.00005435943603515625,-0.008261814713478088,0.02130165696144104
1761369479634647600,4.1016474609375,-0.007080078125,0.0037233084440231323,0.009307965636253357
1761369479653257500,4.120257568359375,-0.00222015380859375,0.005955532193183899,0.021067723631858826
1761369479671869000,4.138868896484375,0.0003223419189453125,0.0009572803974151611,0.013794243335723877
1761369479690478800,4.157478759765625,-0.009148597717285156,-0.0013318955898284912,0.009090632200241089
1761369479709090300,4.17609033203125,-0.00186920166015625,0.005771473050117493,0.009193100035190582
1761369479727700200,4.1947001953125,0.000579833984375,0.0009854882955551147,0.011799119412899017
1761369479746311700,4.213311767578125,0.0075397491455078125,-0.003696739673614502,0.011788390576839447
1761369479764921600,4.231921630859375,-0.0020923614501953125,0.0010599493980407715,0.007171615958213806
1761369479783533000,4.250532958984375,-0.011327743530273438,0.005580291152000427,0.014392957091331482
1761369479802143000,4.26914306640625,0.0077953338623046875,-0.00855417549610138,0.014393486082553864
1761369479820754400,4.28775439453125,0.0028209686279296875,-0.0035827606916427612,0.012132719159126282
1761369479839364400,4.3063642578125,0.0027227401733398438,0.0012081116437911987,0.012286342680454254
1761369479857975800,4.324975830078125,0.004863739013671875,0.010486140847206116,0.014733389019966125
1761369479876585700,4.343585693359375,-0.004638671875,-0.0014556795358657837,0.01918623596429825
1761369479895197200,4.362197265625,-0.00923919677734375,0.0009819865226745605,0.016736067831516266
1761369479913807000,4.38080712890625,-0.00183868408203125,-0.0013623982667922974,0.016697220504283905
1761369479932418600,4.39941845703125,0.0028486251831054688,0.0008679628372192383,0.014139130711555481
1761369479951028500,4.418028564453125,0.0028295516967773438,-0.0061817169189453125,0.014114968478679657
1761369479969640000,4.436639892578125,0.0027704238891601562,0.0010271817445755005,0.006989680230617523
1761369479988249900,4.455249755859375,-0.0021162033081054688,0.001138836145401001,0.009595155715942383
1761369480006861300,4.473861328125,0.002658843994140625,-0.001345321536064148,0.01903785765171051
1761369480025471200,4.49247119140625,0.009510993957519531,0.001073494553565979,0.011802636086940765
1761369480044082700,4.511082763671875,-0.0024662017822265625,0.0011279135942459106,0.01889549195766449
1761369480062692600,4.529692626953125,0.0023546218872070312,0.003574267029762268,0.007133059203624725
1761369480081304000,4.548303955078125,0.0023097991943359375,0.0013082325458526611,0.014191485941410065
1761369480099914000,4.5669140625,-0.002597808837890625,0.0011898279190063477,0.011868059635162354
1761369480118525400,4.585525390625,-0.0000457763671875,0.005932867527008057,0.009621597826480865
1761369480137135400,4.60413525390625,0.011526107788085938,0.001087084412574768,0.01433642953634262
1761369480155746800,4.622746826171875,0.006549835205078125,-0.0012436509132385254,0.009611807763576508
1761369480174356700,4.641356689453125,0.003935813903808594,0.005707055330276489,0.00968148559331894
1761369480192968200,4.65996826171875,0.0015239715576171875,0.0008119940757751465,0.014524601399898529
1761369480211578000,4.678578125,-0.0009241104125976562,0.0008822083473205566,0.005188554525375366
1761369480230189600,4.697189453125,0.0037298202514648438,-0.0014816522598266602,0.014868944883346558
1761369480248799500,4.715799560546875,-0.005618095397949219,0.000789940357208252,0.010185584425926208
1761369480267411000,4.734410888671875,0.0060977935791015625,-0.010831966996192932,0.01738884299993515
1761369480286020900,4.753020751953125,0.0036134719848632812,-0.010549083352088928,0.014974415302276611
1761369480304632300,4.77163232421875,0.0011749267578125,0.003865182399749756,0.005624562501907349
1761369480323242200,4.7902421875,-0.0012254714965820312,0.006128251552581787,0.015345193445682526
1761369480341853700,4.808853759765625,0.0035190582275390625,-0.0035429149866104126,0.01283101737499237
1761369480360463600,4.827463623046875,-0.0013113021850585938,-0.00572127103805542,0.012882106006145477
1761369480379075000,4.846074951171875,0.010497093200683594,0.001510709524154663,0.019899174571037292
1761369480397685000,4.86468505859375,0.003078460693359375,-0.0077085793018341064,0.012851379811763763
1761369480416296400,4.88329638671875,0.002971649169921875,0.001902759075164795,0.012832604348659515
1761369480434906400,4.90190625,0.0005521774291992188,-0.0028515607118606567,0.01292707771062851
1761369480453517800,4.920517822265625,0.0028028488159179688,-0.012037500739097595,0.01999853551387787
1761369480472127700,4.939127685546875,0.00035190582275390625,0.009370207786560059,0.008089274168014526
1761369480490739200,4.9577392578125,0.000335693359375,0.004316776990890503,0.012910589575767517
1761369480509349000,4.97634912109375,-0.001956939697265625,-0.007460311055183411,0.017589136958122253
1761369480527960600,4.994960693359375,0.007441520690917969,0.011576145887374878,0.017452098429203033
1761369480546570500,5.013570556640625,0.0024805068969726562,0.008819535374641418,0.0057199373841285706
1761369480565182000,5.032181884765625,0.000118255615234375,-0.0031612366437911987,0.01760568469762802
1761369480583791900,5.0507919921875,0.004818916320800781,-0.0053528547286987305,0.017428725957870483
1761369480602403300,5.0694033203125,0.004654884338378906,0.0019061863422393799,0.01729491353034973
1761369480621013200,5.08801318359375,0.009083747863769531,0.006547719240188599,0.01025465875864029
1761369480639624700,5.106624755859375,0.0018739700317382812,-0.003081604838371277,0.012673892080783844
1761369480658234600,5.125234619140625,0.004122734069824219,0.001654103398323059,0.010415308177471161
1761369480676846000,5.14384619140625,-0.005398750305175781,0.0063653141260147095,0.005840077996253967
1761369480695456000,5.1624560546875,-0.002834320068359375,-0.0008489489555358887,0.017908938229084015
1761369480714067500,5.1810673828125,0.004199981689453125,-0.005526900291442871,0.015461854636669159
1761369480732677400,5.199677490234375,0.018060684204101562,-0.0029390156269073486,0.013000637292861938
1761369480751288800,5.218288818359375,0.0034112930297851562,0.006493270397186279,0.022290512919425964
1761369480769898800,5.236898681640625,0.010354995727539062,0.003927439451217651,0.010547354817390442
1761369480788510200,5.25551025390625,0.0005502700805664062,-0.005427733063697815,0.017438091337680817
1761369480807120100,5.2741201171875,0.0029230117797851562,0.004054069519042969,0.01730598509311676
1761369480825731600,5.292731689453125,0.0005445480346679688,0.0038838088512420654,0.010169461369514465
1761369480844341500,5.311341552734375,0.0028018951416015625,-0.0010204017162322998,0.014867283403873444
1761369480862953000,5.329952880859375,0.005017280578613281,0.0013870447874069214,0.017323173582553864
1761369480881563000,5.34856298828125,0.0048847198486328125,-0.005664527416229248,0.014819115400314331
1761369480900174300,5.36717431640625,0.00008487701416015625,-0.0006387531757354736,0.012394733726978302
1761369480918784300,5.3857841796875,-0.002239227294921875,0.0017723143100738525,0.012483015656471252
1761369480937395700,5.404395751953125,0.0048542022705078125,-0.009919345378875732,0.012512646615505219
1761369480956005600,5.423005615234375,0.00696563720703125,0.004325881600379944,0.01250215619802475
1761369480974617000,5.4416171875,-0.00021457672119140625,0.006366893649101257,0.012642927467823029
1761369480993227000,5.46022705078125,0.006730079650878906,0.0016011446714401245,0.02203979343175888
1761369481011838500,5.47883837890625,-0.0028390884399414062,-0.0007322430610656738,0.01017279177904129
1761369481030448400,5.497448486328125,-0.007381439208984375,0.0016663074493408203,0.014924339950084686
1761369481049059800,5.516059814453125,0.009098052978515625,0.00635412335395813,0.012741461396217346
1761369481067669800,5.534669677734375,0.008912086486816406,-0.0010089576244354248,0.010464116930961609
1761369481086281200,5.55328125,-0.0007295608520507812,0.0014924854040145874,0.019971393048763275
1761369481104891400,5.571891357421875,0.013335227966308594,0.003888234496116638,0.01273026317358017
1761369481123502600,5.590502685546875,0.0011587142944335938,-0.0009285509586334229,0.01267331838607788
1761369481142112800,5.60911279296875,0.0058231353759765625,-0.0102338045835495,0.01979351043701172
1761369481160724200,5.62772412109375,0.005623817443847656,-0.005286887288093567,0.012709200382232666
1761369481179334100,5.646334228515625,-0.003907203674316406,-0.00034496188163757324,0.010353676974773407
1761369481197945300,5.6649453125,0.0032396316528320312,0.00894579291343689,0.017549581825733185
1761369481216555500,5.683555419921875,0.0006160736083984375,-0.0029444247484207153,0.012720033526420593
1761369481235167000,5.7021669921875,0.007771492004394531,0.0017618387937545776,0.01274506002664566
1761369481253777000,5.72077685546875,0.0005254745483398438,0.0018187612295150757,0.022104404866695404
1761369481272388400,5.739388427734375,0.005092620849609375,0.004123076796531677,0.014535397291183472
1761369481290998300,5.757998291015625,-0.0021038055419921875,0.003990396857261658,0.019126251339912415
1761369481309609700,5.776609619140625,0.01432037353515625,0.001672402024269104,0.014191880822181702
1761369481328219600,5.7952197265625,-0.004797935485839844,-0.002993568778038025,0.014369800686836243
1761369481346831000,5.8138310546875,-0.0024471282958984375,-0.0005429387092590332,0.014202915132045746
1761369481365441000,5.83244091796875,0.004651069641113281,-0.002805456519126892,0.0025009438395500183
1761369481384052500,5.851052490234375,-0.00009632110595703125,0.004351869225502014,0.009848006069660187
1761369481402662400,5.869662353515625,0.004492759704589844,0.0018012970685958862,0.00762832909822464
1761369481421273900,5.88827392578125,0.006732940673828125,0.0017771869897842407,0.012473240494728088
1761369481439883800,5.9068837890625,0.006580352783203125,-0.0005448311567306519,0.017244890332221985
1761369481458495200,5.9254951171875,0.008635520935058594,-0.0029721111059188843,0.014724873006343842
1761369481477105200,5.944105224609375,0.0037164688110351562,0.004096686840057373,0.012437984347343445
1761369481495716600,5.962716552734375,0.0011529922485351562,-0.0008051395416259766,0.012557335197925568
1761369481514326500,5.981326416015625,-0.0034437179565429688,-0.003050968050956726,0.01265811175107956
1761369481532938000,5.99993798828125,0.0060405731201171875,-0.0006000250577926636,0.010494440793991089
1761369481551548000,6.0185478515625,-0.003543853759765625,0.008777037262916565,0.01755157858133316
1761369481570159400,6.037159423828125,-0.0034723281860351562,0.003932297229766846,0.012799635529518127
1761369481588769300,6.055769287109375,0.008250236511230469,-0.0007545351982116699,0.010483458638191223
1761369481607380700,6.074380615234375,0.0010690689086914062,-0.0007658451795578003,0.008209660649299622
1761369481625990700,6.09299072265625,-0.0013256072998046875,-0.003130674362182617,0.010807424783706665
1761369481644602000,6.11160205078125,0.001148223876953125,0.0039044320583343506,0.017839588224887848
1761369481663212000,6.1302119140625,0.0080108642578125,-0.003269597887992859,0.010688714683055878
1761369481681823500,6.148823486328125,0.0007944107055664062,0.0016199946403503418,0.015521526336669922
1761369481700433400,6.167433349609375,-0.003909111022949219,0.0015470385551452637,0.022468291223049164
1761369481719044900,6.186044921875,0.000885009765625,0.0085945725440979,0.017483368515968323
1761369481737654800,6.20465478515625,0.003124237060546875,0.0036617815494537354,0.015066109597682953
1761369481756266200,6.223266357421875,0.010114669799804688,-0.005721956491470337,0.012765936553478241
1761369481774876200,6.241876220703125,0.0027914047241210938,-0.0009946376085281372,0.01744963228702545
1761369481793487600,6.260487548828125,0.0003414154052734375,-0.005589336156845093,0.01731644570827484
1761369481812097500,6.27909765625,0.0027189254760742188,-0.0007152259349822998,0.012382104992866516
1761369481830709000,6.297708984375,0.009492874145507812,0.003884255886077881,0.012323372066020966
1761369481849319000,6.31631884765625,0.004622459411621094,0.00138130784034729,0.017060965299606323
1761369481867930400,6.334930419921875,0.006779670715332031,-0.003196895122528076,0.009957447648048401
1761369481886540300,6.353540283203125,0.004157066345214844,-0.003055766224861145,0.01701679825782776
1761369481905151700,6.37215185546875,0.00872039794921875,-0.00521928071975708,0.014466330409049988
1761369481923761700,6.39076171875,0.0060749053955078125,-0.002593904733657837,0.012059852480888367
1761369481942373000,6.409373046875,0.001239776611328125,0.006637871265411377,0.01914375275373459
1761369481960983000,6.427983154296875,0.005900382995605469,0.001941680908203125,0.007317870855331421
1761369481979594500,6.446594482421875,0.010329246520996094,-0.0005365759134292603,0.0028102248907089233
1761369481998204400,6.465204345703125,0.005237579345703125,-0.0029262155294418335,0.019540272653102875
1761369482016815900,6.48381591796875,-0.011302947998046875,-0.009888172149658203,0.016976721584796906
1761369482035425800,6.50242578125,0.0030727386474609375,0.004505544900894165,0.012243770062923431
1761369482054037200,6.521037353515625,0.0029239654541015625,0.0021712034940719604,0.014708377420902252
1761369482072647200,6.539647216796875,0.00042629241943359375,-0.004849523305892944,0.01703556627035141
1761369482091258600,6.558258544921875,0.0004444122314453125,0.000054001808166503906,0.014618784189224243
1761369482109868500,6.57686865234375,0.0051326751708984375,-0.0022833794355392456,0.009887278079986572
1761369482128480000,6.59547998046875,-0.0020666122436523438,-0.0020553767681121826,0.01704511046409607
1761369482147090000,6.61408984375,-0.001926422119140625,-0.006661936640739441,0.01458873599767685
1761369482165701400,6.632701416015625,0.009744644165039062,0.0028048157691955566,0.01930733025074005
1761369482184311300,6.651311279296875,0.0024328231811523438,0.002770856022834778,0.00760931521654129
1761369482202922800,6.6699228515625,-0.0023622512817382812,0.0002654939889907837,0.01022803783416748
1761369482221532700,6.68853271484375,0.004696846008300781,-0.0020393431186676025,0.007806859910488129
1761369482240144100,6.70714404296875,-0.0023717880249023438,0.005124866962432861,0.017366036772727966
1761369482258754000,6.725754150390625,0.0022516250610351562,0.007477819919586182,0.005584336817264557
1761369482277365500,6.744365478515625,0.0022878646850585938,-0.0021286755800247192,0.0199243426322937
1761369482295975400,6.762975341796875,0.0020895004272460938,-0.0067092180252075195,0.01737283170223236
1761369482314587000,6.7815869140625,-0.00026035308837890625,0.002868473529815674,0.014851845800876617
1761369482333196800,6.80019677734375,-0.004886627197265625,0.0027533024549484253,0.010151058435440063
1761369482351808300,6.818808349609375,0.004570960998535156,-0.004319190979003906,0.007890410721302032
1761369482370418200,6.837418212890625,0.006730079650878906,-0.008881822228431702,0.01964797079563141
1761369482389029600,6.856029541015625,-0.00044345855712890625,0.005493640899658203,0.014881804585456848
1761369482407639600,6.8746396484375,0.0065097808837890625,0.0006789863109588623,0.007769934833049774
1761369482426251000,6.8932509765625,-0.0053615570068359375,0.0006760656833648682,0.014806561172008514
1761369482444861000,6.91186083984375,-0.005148887634277344,0.0006183832883834839,0.02183893322944641
1761369482463472400,6.930472412109375,-0.005101203918457031,0.0006181150674819946,0.014591142535209656
1761369482482082300,6.949082275390625,0.0067539215087890625,0.0030511468648910522,0.01692017912864685
1761369482500693800,6.96769384765625,-0.0004177093505859375,-0.0018333345651626587,0.009781241416931152
1761369482519303700,6.9863037109375,0.008928298950195312,-0.006328582763671875,0.014533504843711853
1761369482537915100,7.0049150390625,0.008667945861816406,0.005551502108573914,0.014381177723407745
1761369482556525000,7.023525146484375,-0.0056304931640625,0.007741078734397888,0.005066998302936554
1761369482575136500,7.042136474609375,0.0038499832153320312,-0.0064644962549209595,0.014605171978473663
1761369482593746400,7.060746337890625,0.0036773681640625,0.0008067190647125244,0.012348227202892303
1761369482612358000,7.07935791015625,0.0035905838012695312,0.0031138956546783447,0.0029277876019477844
1761369482630967800,7.0979677734375,0.0057811737060546875,0.0006740838289260864,0.01500752568244934
1761369482649579300,7.116579345703125,0.005584716796875,0.0006320923566818237,0.010262340307235718
1761369482668189200,7.135189208984375,-0.0039424896240234375,-0.003999844193458557,0.00102948397397995
1761369482686800600,7.153800537109375,-0.0014247894287109375,0.0032126009464263916,0.013111136853694916
1761369482705410600,7.17241064453125,0.001010894775390625,0.0007867515087127686,0.013083167374134064
1761369482724022000,7.19102197265625,-0.0014209747314453125,0.0007241368293762207,0.01785968244075775
1761369482742632000,7.2096318359375,0.0032472610473632812,-0.0014851540327072144,0.017706014215946198
1761369482761243400,7.228243408203125,-0.0038089752197265625,0.005566328763961792,0.01280316710472107
1761369482779853300,7.246853271484375,-0.00133514404296875,0.005496278405189514,0.015232771635055542
1761369482798464800,7.26546484375,0.000980377197265625,-0.00869821012020111,0.0105057954788208
1761369482817074700,7.28407470703125,-0.0013751983642578125,0.0011356770992279053,0.010618813335895538
1761369482835686100,7.30268603515625,-0.013025283813476562,0.003454655408859253,0.003688216209411621
1761369482854296000,7.321296142578125,-0.0032596588134765625,0.005540981888771057,0.013253286480903625
1761369482872907500,7.339907470703125,0.0016307830810546875,-0.004001125693321228,0.013219587504863739
1761369482891517400,7.358517333984375,0.003926277160644531,-0.008628830313682556,0.020243555307388306
1761369482910129000,7.37712890625,-0.00554656982421875,0.001067832112312317,0.012996740639209747
1761369482928738600,7.395738525390625,-0.0006589889526367188,0.005720600485801697,0.015349403023719788
1761369482947350000,7.41435009765625,-0.0006799697875976562,-0.00851285457611084,0.008224070072174072
1761369482965960000,7.4329599609375,-0.005370140075683594,-0.003504812717437744,0.013027764856815338
1761369482984571400,7.4515712890625,0.004141807556152344,0.005896836519241333,0.013001620769500732
1761369483003181600,7.470181640625,0.008666038513183594,0.0034772902727127075,0.015347085893154144
1761369483021792800,7.488792724609375,0.0037069320678710938,0.0010255128145217896,0.012858882546424866
1761369483040402700,7.507402587890625,-0.001129150390625,-0.001414477825164795,0.012909628450870514
1761369483059014100,7.52601416015625,-0.0010204315185546875,0.005807280540466309,0.019967593252658844
1761369483077624000,7.5446240234375,0.010622024536132812,0.00787004828453064,0.012745507061481476
1761369483096235500,7.563235595703125,0.010188102722167969,-0.0018039345741271973,0.02216104418039322
1761369483114845400,7.581845458984375,0.009846687316894531,-0.0016641616821289062,0.01486651599407196
1761369483133457000,7.600456787109375,-0.0044155120849609375,0.0006861090660095215,0.010315194725990295
1761369483152066800,7.61906689453125,0.00977325439453125,0.00760999321937561,0.015009701251983643
1761369483170678300,7.63767822265625,0.0069732666015625,0.00039321184158325195,0.010289095342159271
1761369483189288200,7.6562880859375,-0.0048370361328125,0.0027140527963638306,0.00797668844461441
1761369483207899600,7.674899658203125,0.002262115478515625,0.00038379430770874023,0.010471664369106293
1761369483226509600,7.693509521484375,-0.0024881362915039062,0.005099356174468994,0.01290084421634674
1761369483245121000,7.71212109375,0.0023336410522460938,-0.008986294269561768,0.010713949799537659
1761369483263731000,7.73073095703125,-0.00018215179443359375,-0.006355375051498413,0.013190917670726776
1761369483282342400,7.74934228515625,-0.0024585723876953125,0.0031576454639434814,0.018049009144306183
1761369483300952300,7.767952392578125,-0.00940704345703125,0.010112419724464417,0.008478246629238129
1761369483319563800,7.786563720703125,-0.01612377166748047,0.0004568248987197876,0.01092151552438736
1761369483338173700,7.805173583984375,0.005435943603515625,-0.004382073879241943,0.015594936907291412
1761369483356785200,7.82378515625,0.007607460021972656,0.005182221531867981,0.010760948061943054
1761369483375395000,7.84239501953125,0.0026826858520507812,0.009754166007041931,0.013149350881576538
1761369483394006500,7.861006591796875,0.0025501251220703125,0.004820093512535095,0.015396028757095337
1761369483412616400,7.879616455078125,-0.011429786682128906,-0.002344951033592224,0.01067940890789032
1761369483431227600,7.8982275390625,0.005261421203613281,-0.00205935537815094,0.017905190587043762
1761369483449837600,7.916837646484375,0.0004138946533203125,0.007341712713241577,0.013050653040409088
1761369483468449000,7.935448974609375,-0.0019979476928710938,-0.002315416932106018,0.017788954079151154
1761369483487059000,7.954058837890625,-0.0019378662109375,0.0072746723890304565,0.010637998580932617
1761369483505670400,7.97267041015625,0.0028285980224609375,0.004580587148666382,0.015432581305503845
1761369483524280300,7.9912802734375,-0.0042133331298828125,-0.004889011383056641,0.012900181114673615
1761369483542891800,8.009891845703125,-0.004197120666503906,-0.0047078728675842285,0.005909740924835205
1761369483561501700,8.028501708984376,0.0029964447021484375,0.0002066493034362793,0.015592552721500397
1761369483580113200,8.047113037109375,0.0004596710205078125,-0.0020413249731063843,0.008498474955558777
1761369483598723000,8.06572314453125,0.002834320068359375,0.0003428161144256592,0.015568919479846954
1761369483617334500,8.08433447265625,0.002696990966796875,-0.002138078212738037,0.010806232690811157
1761369483635944400,8.1029443359375,-0.00434112548828125,-0.0020258426666259766,0.013247914612293243
1761369483654556000,8.121555908203124,0.0027799606323242188,-0.0019412487745285034,0.020272210240364075
1761369483673165800,8.140165771484375,0.00499725341796875,0.0004009753465652466,0.008386485278606415
1761369483691777300,8.15877734375,0.004828453063964844,-0.006726786494255066,0.008607834577560425
1761369483710387200,8.17738720703125,-0.004635810852050781,0.0004823058843612671,0.01813863217830658
1761369483728998700,8.19599853515625,-0.0022554397583007812,0.0005947500467300415,0.015797220170497894
1761369483747608600,8.214608642578124,0.000087738037109375,0.0030030757188796997,0.013397738337516785
1761369483766220000,8.233219970703125,0.007178306579589844,0.0029769837856292725,0.015731245279312134
1761369483784830000,8.251829833984376,-0.00016498565673828125,-0.006400629878044128,0.00637248158454895
1761369483803441400,8.27044140625,0.0021867752075195312,-0.0037215352058410645,0.01837066560983658
1761369483822051000,8.289051025390625,0.011565208435058594,-0.0036743581295013428,0.011122949421405792
1761369483840662500,8.30766259765625,-0.0029878616333007812,-0.005888789892196655,0.01598091423511505
1761369483859272400,8.3262724609375,0.0041675567626953125,0.00829237699508667,0.018307477235794067
1761369483877884000,8.3448837890625,0.0017099380493164062,0.0009573698043823242,0.018258802592754364
1761369483896493800,8.363493896484375,0.013338088989257812,0.008007213473320007,0.015817269682884216
1761369483915105300,8.382105224609376,-0.0033502578735351562,-0.001727461814880371,0.011023908853530884
1761369483933715200,8.400715087890624,0.008251190185546875,0.003151997923851013,0.006394930183887482
1761369483952326700,8.41932666015625,-0.005915641784667969,-0.006366640329360962,0.011353306472301483
1761369483970936600,8.4379365234375,0.0036134719848632812,-0.006152927875518799,0.018383309245109558
1761369483989548000,8.456548095703125,-0.0058116912841796875,0.0010540932416915894,0.0136600062251091
1761369484008158000,8.475157958984376,-0.0009946823120117188,0.00339391827583313,0.011274389922618866
1761369484026769400,8.493769287109375,-0.0032835006713867188,-0.0013927221298217773,0.015920691192150116
1761369484045379300,8.51237939453125,0.0015287399291992188,-0.0012499243021011353,0.0065018609166145325
1761369484063990800,8.53099072265625,0.0060634613037109375,0.008014321327209473,0.018439888954162598
1761369484082600400,8.549600341796875,-0.0010080337524414062,0.0007845163345336914,0.020607657730579376
1761369484101212000,8.5682119140625,0.008279800415039062,-0.0015362352132797241,0.013384126126766205
1761369484119821800,8.58682177734375,-0.0013380050659179688,-0.0014502555131912231,0.011007644236087799
1761369484138433300,8.605433349609376,0.0010957717895507812,-0.0037943869829177856,0.018035605549812317
1761369484157043200,8.624043212890625,0.010394096374511719,-0.0013893544673919678,0.01778808981180191
1761369484175654700,8.642654541015625,0.005374908447265625,0.0009898096323013306,0.003614865243434906
1761369484194264600,8.6612646484375,0.000484466552734375,0.0010152161121368408,0.013238303363323212
1761369484212876000,8.6798759765625,0.00042438507080078125,-0.0012591928243637085,0.013190709054470062
1761369484231486000,8.69848583984375,0.00507354736328125,-0.0035359561443328857,0.008448831737041473
1761369484250097400,8.717097412109375,-0.009144783020019531,0.0013474822044372559,0.02032344788312912
1761369484268707300,8.735707275390626,-0.0040988922119140625,-0.003535255789756775,0.015440858900547028
1761369484287318800,8.75431884765625,0.0054111480712890625,0.001214146614074707,0.012966230511665344
1761369484305928700,8.7729287109375,0.002796173095703125,0.01286916434764862,0.005942530930042267
1761369484324540200,8.7915400390625,-0.006560325622558594,0.007739230990409851,0.01783524453639984
1761369484343149800,8.81014990234375,0.005305290222167969,0.000437811017036438,0.010653607547283173
1761369484361761300,8.82876123046875,-0.004214286804199219,0.005092322826385498,0.0038926824927330017
1761369484380371200,8.84737109375,0.0005102157592773438,-0.0021519213914871216,0.011319272220134735
1761369484398982700,8.865982666015626,0.0005292892456054688,-0.002101719379425049,0.018240779638290405
1761369484417592600,8.884592529296874,0.00286102294921875,0.002654552459716797,0.015769727528095245
1761369484436204000,8.9032041015625,0.014415740966796875,0.004939913749694824,0.006331384181976318
1761369484454814000,8.92181396484375,0.006949424743652344,0.0047170668840408325,0.015920892357826233
1761369484473425400,8.94042529296875,0.002124786376953125,-0.004884675145149231,0.018343620002269745
1761369484492035300,8.959035400390626,0.0019683837890625,0.002374902367591858,0.01821339875459671
1761369484510646800,8.977646728515625,-0.00042057037353515625,0.000016316771507263184,0.011238768696784973
1761369484529256700,8.996256591796875,0.0042552947998046875,0.00003406405448913574,0.013737879693508148
1761369484547868000,9.014867919921874,0.0017557144165039062,0.00014539062976837158,0.004218727350234985
1761369484566477800,9.033477783203125,0.0016918182373046875,0.004829615354537964,0.013878077268600464
1761369484585089300,9.05208935546875,-0.000644683837890625,0.000058963894844055176,0.01382496953010559
1761369484603699200,9.07069921875,0.003963470458984375,-0.004704594612121582,0.013829514384269714
1761369484622310700,9.089310546875,0.003943443298339844,0.0025091618299484253,0.018503129482269287
1761369484640920600,9.107920654296874,-0.0032939910888671875,0.0002170354127883911,0.011203378438949585
1761369484659532000,9.126531982421875,-0.000835418701171875,0.007305800914764404,0.02048397809267044
1761369484678142000,9.145141845703124,0.0015010833740234375,0.000005885958671569824,0.018005140125751495
1761369484696753400,9.16375341796875,0.0015239715576171875,0.000062599778175354,0.015557624399662018
1761369484715363300,9.18236328125,-0.00551605224609375,0.0024323612451553345,0.017820894718170166
1761369484733974500,9.200974609375,-0.014757156372070312,-0.002338126301765442,0.015378423035144806
1761369484752584400,9.21958447265625,-0.004856109619140625,0.00007146596908569336,0.017575062811374664
1761369484771196000,9.23819580078125,-0.00003337860107421875,-0.006840258836746216,0.010447829961776733
1761369484789805800,9.256805908203125,-0.0024309158325195312,0.0027568191289901733,0.012903638184070587
1761369484808417300,9.275417236328124,-0.01165771484375,0.00042547285556793213,0.019960954785346985
1761369484827027200,9.294027099609375,0.0026121139526367188,-0.006554096937179565,0.012753777205944061
1761369484845638700,9.312638671875,-0.016157150268554688,-0.0016892701387405396,0.008180402219295502
1761369484864248600,9.33124853515625,-0.0038585662841796875,0.0007782727479934692,0.0130963996052742
1761369484882860000,9.349860107421875,-0.00138092041015625,0.0030870437622070312,0.013107240200042725
1761369484901470000,9.368469970703124,-0.006049156188964844,0.0005948245525360107,0.010835058987140656
1761369484920081200,9.3870810546875,-0.0011882781982421875,0.0006498992443084717,0.015756458044052124
1761369484938691000,9.405691162109376,0.0059051513671875,0.00542721152305603,0.022639945149421692
1761369484957302500,9.424302490234375,-0.005986213684082031,0.0005969256162643433,0.008312404155731201
1761369484975912400,9.442912353515625,0.005782127380371094,0.0028546154499053955,0.015294000506401062
1761369484994524000,9.46152392578125,-0.003673553466796875,0.005094423890113831,0.01994265615940094
1761369485013133800,9.4801337890625,0.0011510848999023438,0.0002358853816986084,0.01499725878238678
1761369485031745300,9.498745361328124,0.0010709762573242188,0.007175564765930176,0.010340064764022827
1761369485050355200,9.517355224609375,-0.008227348327636719,0.01165001094341278,0.012639351189136505
1761369485068966700,9.535966552734376,0.0013370513916015625,0.004275470972061157,0.01031225174665451
1761369485087576300,9.554576416015625,-0.0034189224243164062,0.004152402281761169,0.01024366170167923
1761369485106187800,9.573187744140625,-0.005626678466796875,-0.0005815178155899048,0.019784383475780487
1761369485124797700,9.591797607421874,0.010835647583007812,-0.002954050898551941,0.008032701909542084
1761369485143409200,9.6104091796875,-0.0034961700439453125,-0.00519205629825592,0.012781158089637756
1761369485162019000,9.62901904296875,-0.005818367004394531,0.006556704640388489,0.015173293650150299
1761369485180630500,9.647630615234375,0.0014696121215820312,-0.007665172219276428,0.00590457022190094
1761369485199240400,9.666240478515626,0.00373077392578125,-0.002818480134010315,0.017957478761672974
1761369485217852000,9.684851806640625,-0.003459930419921875,-0.00035159289836883545,0.017767474055290222
1761369485236461800,9.7034619140625,0.0036716461181640625,0.004481777548789978,0.015287414193153381
1761369485255073000,9.722072998046874,-0.005755424499511719,-0.00035649538040161133,0.010590054094791412
1761369485273683000,9.740682861328125,0.006161689758300781,-0.002696588635444641,0.0036997050046920776
1761369485292294400,9.75929443359375,-0.0034618377685546875,0.002102002501487732,0.008731730282306671
1761369485310904300,9.777904296875,0.001277923583984375,0.004349499940872192,0.015850476920604706
1761369485329515800,9.796515869140626,0.0012302398681640625,-0.002876579761505127,0.015863507986068726
1761369485348125700,9.815125732421874,-0.003444671630859375,-0.002739936113357544,0.011036239564418793
1761369485366737200,9.833737060546875,0.003688812255859375,-0.0028202682733535767,0.013392060995101929
1761369485385347000,9.85234716796875,0.005916595458984375,0.0019444376230239868,0.011055588722229004
1761369485403958300,9.870958251953125,-0.001224517822265625,-0.005274251103401184,0.0180240198969841
1761369485422568400,9.889568359375,0.0010862350463867188,0.00203743577003479,0.02018701285123825
1761369485441179600,9.9081796875,-0.0036630630493164062,-0.0027187764644622803,0.02227843552827835
1761369485459789600,9.92678955078125,0.005789756774902344,-0.004870101809501648,0.010293334722518921
1761369485478401000,9.945401123046874,0.0032796859741210938,0.000018164515495300293,0.005571790039539337
1761369485497011000,9.964010986328125,-0.00157928466796875,-0.0023183673620224,0.0034626275300979614
1761369485515622400,9.982622314453126,0.005568504333496094,0.002486184239387512,0.00847676396369934
1761369485534232300,10.001232421875,0.0076541900634765625,-0.002282664179801941,0.008687064051628113
1761369485552843500,10.019843505859376,-0.006533622741699219,0.00018371641635894775,0.015785694122314453
1761369485571453400,10.038453369140624,0.0006227493286132812,0.0001793503761291504,0.018118783831596375
1761369485590065000,10.05706494140625,0.007578849792480469,-0.002161845564842224,0.013421878218650818
1761369485608674800,10.0756748046875,-0.0020923614501953125,0.00018796324729919434,0.01347893476486206
1761369485627286300,10.094286376953125,-0.00893402099609375,0.00014421343803405762,0.015825539827346802
1761369485645896200,10.112896240234376,-0.0016994476318359375,0.002496570348739624,0.01118769496679306
1761369485664507600,10.131507568359375,0.007729530334472656,-0.004589170217514038,0.01824381947517395
1761369485683117600,10.15011767578125,0.0027570724487304688,0.007345438003540039,0.013408452272415161
1761369485701728800,10.168728759765624,-0.004282951354980469,-0.0022345930337905884,0.020473778247833252
1761369485720338700,10.187338623046875,0.0052318572998046875,0.002486512064933777,0.008419103920459747
1761369485738950100,10.2059501953125,0.0073699951171875,0.00020270049571990967,0.027207456529140472
1761369485757560000,10.22456005859375,0.0024118423461914062,0.002546459436416626,0.01972859352827072
1761369485776171500,10.243171630859376,0.009309768676757812,0.00018189847469329834,0.012513585388660431
1761369485794781400,10.261781494140624,-0.002658843994140625,-0.004419177770614624,0.014987163245677948
1761369485813393000,10.280392822265625,0.004485130310058594,-0.0018999874591827393,0.021959930658340454
1761369485832002800,10.2990029296875,0.009000778198242188,0.0005346387624740601,0.01239749789237976
1761369485850614000,10.317614013671875,0.0016736984252929688,-0.001667708158493042,0.01702127605676651
1761369485869224000,10.336223876953126,0.003966331481933594,0.0006428062915802002,0.016958363354206085
1761369485887835400,10.35483544921875,-0.0055065155029296875,-0.004006057977676392,0.009818367660045624
1761369485906445300,10.3734453125,0.00632476806640625,0.0007981359958648682,0.01223105937242508
1761369485925056800,10.392056884765625,0.010741233825683594,-0.0016573220491409302,0.012268632650375366
1761369485943666700,10.410666748046875,-0.0082550048828125,0.0007313340902328491,0.016937844455242157
1761369485962278000,10.42927783203125,-0.007948875427246094,-0.0039597004652023315,0.016932636499404907
1761369485980887800,10.4478876953125,-0.0006284713745117188,0.003038644790649414,0.01675698161125183
1761369485999499300,10.466499267578126,0.00856781005859375,-0.0016568303108215332,0.01429382711648941
1761369486018109200,10.485109130859374,0.0060024261474609375,0.0030461251735687256,0.009668596088886261
1761369486036720600,10.503720703125,-0.0058917999267578125,-0.0017386376857757568,0.01444050669670105
1761369486055330600,10.52233056640625,-0.0009937286376953125,-0.0017579644918441772,0.02146371454000473
1761369486073942000,10.54094189453125,0.0036325454711914062,-0.0054380446672439575,0.026403330266475677
1761369486092552000,10.559552001953126,-0.0034475326538085938,0.003158256411552429,-0.0017014890909194946
1761369486111163100,10.5781630859375,0.0012655258178710938,-0.0029816031455993652,0.02245575189590454
1761369486129773000,10.59677294921875,-0.00107574462890625,-0.0012844949960708618,0.013760752975940704
1761369486148384500,10.615384521484375,0.0036039352416992188,0.0006354600191116333,0.018955931067466736
1761369486166994400,10.633994384765625,-0.0011949539184570312,0.007691279053688049,0.012322306632995605
1761369486185606000,10.65260595703125,0.0035619735717773438,0.013442367315292358,0.0037532374262809753
1761369486204215800,10.6712158203125,0.01291656494140625,-0.002599075436592102,-0.019820719957351685
1761369486222827000,10.689826904296876,-0.010961532592773438,-0.016857966780662537,0.06551086157560349
