time,seconds_elapsed,z,y,x
1761312000169609200,0.318609130859375,0.03176405653357506,-0.24120831489562988,0.3841465711593628
1761312000179130400,0.32813037109375,-0.020157959312200546,-0.1355317384004593,0.45561569929122925
1761312000188650000,0.33764990234375,-0.04153761267662048,-0.08727480471134186,0.4898231327533722
1761312000198168300,0.347168212890625,-0.013438640162348747,-0.10010259598493576,0.49532076716423035
1761312000207685400,0.356685302734375,0.04947862774133682,-0.15507884323596954,0.47882789373397827
1761312000217201400,0.366201416015625,0.1185043677687645,-0.2393757700920105,0.4476746916770935
1761312000226716200,0.375716064453125,0.17409147322177887,-0.31206658482551575,0.41041299700737
1761312000236230000,0.38522998046875,0.21990501880645752,-0.3193967640399933,0.3707079291343689
1761312000245742600,0.39474267578125,0.2626643180847168,-0.2686964273452759,0.32733777165412903
1761312000255254500,0.404254638671875,0.3151971995830536,-0.1880646049976349,0.29862794280052185
1761312000264765400,0.413765380859375,0.37506023049354553,-0.07261446863412857,0.2796916961669922
1761312000274275600,0.423275634765625,0.4159869849681854,0.05199837312102318,0.2656421959400177
1761312000283784700,0.43278466796875,0.43736663460731506,0.14790138602256775,0.24976016581058502
1761312000293293000,0.44229296875,0.4477510452270508,0.18455222249031067,0.23265644907951355
1761312000302801000,0.45180078125,0.4556920528411865,0.1546207070350647,0.2131093442440033
1761312000312307700,0.4613076171875,0.4605788290500641,0.06482616811990738,0.18317782878875732
1761312000321814000,0.47081396484375,0.4593571424484253,-0.08299887180328369,0.13980767130851746
1761312000331319800,0.48031982421875,0.4459185004234314,-0.255257785320282,0.09032903611660004
1761312000340824800,0.489824951171875,0.41293275356292725,-0.4207974076271057,0.03718532621860504
1761312000350329300,0.499329345703125,0.35978904366493225,-0.5619031190872192,-0.027029991149902344
1761312000359833300,0.508833251953125,0.3017585575580597,-0.6883485317230225,-0.10399674624204636
1761312000369336600,0.518336669921875,0.24556060135364532,-0.8031877875328064,-0.18707197904586792
1761312000378839600,0.527839599609375,0.1966928243637085,-0.8777111768722534,-0.26159533858299255
1761312000388342000,0.537342041015625,0.16431790590286255,-0.8777111768722534,-0.31168481707572937
1761312000397844200,0.54684423828125,0.1429382562637329,-0.8092962503433228,-0.32756683230400085
1761312000407345700,0.556345703125,0.12888877093791962,-0.6846834421157837,-0.3067980408668518
1761312000416846800,0.565846923828125,0.12400199472904205,-0.5160895586013794,-0.25121092796325684
1761312000426347800,0.57534765625,0.12888877093791962,-0.33650049567222595,-0.1760767251253128
1761312000435848200,0.58484814453125,0.13377554714679718,-0.17584764957427979,-0.09239064902067184
1761312000445348400,0.594348388671875,0.12705622613430023,-0.04756972938776016,-0.013591351918876171
1761312000464347400,0.613347412109375,0.07696675509214401,0.057496000081300735,0.10132429003715515
1761312000483315000,0.63231494140625,0.01038440316915512,-0.03352024406194687,0.12759071588516235
1761312000501928200,0.65092822265625,-0.03237490355968475,-0.1624090075492859,0.045737188309431076
1761312000520542700,0.669542724609375,-0.02993151545524597,-0.19539476931095123,-0.09666658192873001
1761312000539155700,0.68815576171875,0.022601349279284477,-0.226547971367836,-0.2701472043991089
1761312000557770500,0.7067705078125,0.04581354558467865,-0.23143476247787476,-0.43446511030197144
1761312000576383500,0.725383544921875,0.03665083646774292,-0.19783815741539001,-0.5364766120910645
1761312000594998300,0.743998291015625,0.01588202826678753,-0.13125580549240112,-0.571294903755188
1761312000613611300,0.762611328125,-0.0036650835536420345,-0.03596363216638565,-0.5267030596733093
1761312000632226000,0.78122607421875,0.014660334214568138,0.09597937762737274,-0.42163732647895813
1761312000650839000,0.799839111328125,0.06169557198882103,0.16928105056285858,-0.3171824514865875
1761312000669453600,0.81845361328125,0.11972606182098389,0.18577392399311066,-0.2029540091753006
1761312000688066800,0.83706689453125,0.17348061501979828,0.168670192360878,-0.06612421572208405
1761312000706681300,0.855681396484375,0.2363978922367096,0.07154548168182373,0.04818057641386986
1761312000725294600,0.874294677734375,0.2486148327589035,-0.0555107444524765,0.10315682739019394
1761312000743909000,0.8929091796875,0.20096874237060547,-0.06650599837303162,0.10315682739019394
1761312000762522400,0.9115224609375,0.1563768982887268,-0.05306735634803772,0.06100837141275406
1761312000781137000,0.930136962890625,0.1557660549879074,-0.06467345356941223,0.006032116711139679
1761312000799750100,0.948750244140625,0.13805148005485535,-0.06406260281801224,-0.04963133856654167
1761312000818364700,0.96736474609375,0.045202698558568954,-0.03840702027082443,-0.09972081333398819
1761312000836978000,0.98597802734375,-0.16187451779842377,0.017180079594254494,-0.15897299349308014
1761312000855592400,1.004592529296875,-0.38422292470932007,0.11674818396568298,-0.1656923145055771
1761312000874205700,1.023205810546875,-0.6474980711936951,0.3403182923793793,-0.0978882759809494
1761312000892820200,1.0418203125,-0.8441908955574036,0.6121453046798706,0.03779617324471474
1761312000911433500,1.06043359375,-0.869846522808075,0.7782957553863525,0.17157171666622162
1761312000930048000,1.079048095703125,-0.7262973785400391,0.901076078414917,0.2760266065597534
1761312000948661200,1.0976611328125,-0.5125008225440979,1.1386955976486206,0.3413872718811035
1761312000967275800,1.11627587890625,-0.37567105889320374,0.9902597665786743,0.3077906668186188
1761312000985889000,1.134888916015625,-0.42453885078430176,0.3128301501274109,0.11964970827102661
1761312001004503600,1.153503662109375,-0.47768256068229675,-0.4873797595500946,-0.11743538826704025
1761312001023116800,1.17211669921875,-0.37139514088630676,-0.8728243708610535,-0.20967331528663635
1761312001041731300,1.1907314453125,-0.2107423096895218,-0.8331193327903748,-0.14186927676200867
1761312001060344600,1.209344482421875,0.021379653364419937,-0.6455891728401184,0.05795413255691528
1761312001078959000,1.227958984375,0.2748812735080719,-0.3303920030593872,0.3316137194633484
1761312001097572400,1.246572265625,0.29687178134918213,-0.0958266630768776,0.5545729398727417
1761312001116187000,1.265186767578125,0.12094775587320328,-0.04634803533554077,0.7048413753509521
1761312001134800100,1.283800048828125,-0.16065283119678497,-0.061619218438863754,0.746379017829895
1761312001153414700,1.30241455078125,-0.4056025743484497,0.022677704691886902,0.7066739201545715
1761312001172028000,1.32102783203125,-0.49295374751091003,0.1814979910850525,0.5900021195411682
1761312001190642400,1.339642333984375,-0.4446968138217926,0.25235626101493835,0.40063944458961487
1761312001209255700,1.358255615234375,-0.31947311758995056,0.15828579664230347,0.17706935107707977
1761312001227870200,1.3768701171875,-0.19363857805728912,-0.02435753494501114,-0.015423892997205257
1761312001246483500,1.3954833984375,-0.1056765764951706,-0.12881241738796234,-0.10399674624204636
1761312001265098000,1.414097900390625,-0.031153209507465363,-0.11659546941518784,-0.05512896552681923
1761312001283711200,1.432711181640625,0.054365407675504684,-0.03718532621860504,0.0946049690246582
1761312001302325800,1.45132568359375,0.13927318155765533,0.06055023521184921,0.2638096511363983
1761312001320939000,1.46993896484375,0.1960819661617279,0.11247225105762482,0.406137079000473
1761312001339553500,1.488553466796875,0.1850867122411728,0.12224581092596054,0.49409908056259155
1761312001358166800,1.507166748046875,0.08857285231351852,0.062993623316288,0.5325824618339539
1761312001376781300,1.52578125,-0.08429691940546036,-0.043293800204992294,0.5325824618339539
1761312001395394600,1.54439453125,-0.30664533376693726,-0.0561215914785862,0.4763845205307007
1761312001414009000,1.563009033203125,-0.5173876285552979,-0.00908635277301073,0.3169533610343933
1761312001432622300,1.581622314453125,-0.601073682308197,0.043446511030197144,0.0946049690246582
1761312001451237000,1.600237060546875,-0.5479300022125244,0.06726955622434616,-0.12293300777673721
1761312001469850000,1.61885009765625,-0.3683409094810486,0.17294612526893616,-0.2848075330257416
1761312001488465000,1.63746484375,-0.056808795779943466,0.32932302355766296,-0.3972034156322479
1761312001507078000,1.656077880859375,0.32008397579193115,0.34276166558265686,-0.4631749391555786
1761312001525692700,1.674692626953125,0.6023717522621155,0.26640576124191284,-0.42041563987731934
1761312001544305700,1.6933056640625,0.7275954484939575,0.29389387369155884,-0.25121092796325684
1761312001562920400,1.71192041015625,0.7599703669548035,0.4722612798213959,-0.027029991149902344
1761312001581533400,1.730533447265625,0.8289960622787476,0.605426013469696,0.16729579865932465
1761312001600148200,1.749148193359375,0.6939988136291504,0.4985277056694031,0.1465269923210144
1761312001618761200,1.76776123046875,0.4471401870250702,-0.007253811229020357,-0.08689302206039429
1761312001637376000,1.7863759765625,0.16553960740566254,-0.597943127155304,-0.41919392347335815
1761312001655989000,1.804989013671875,-0.012827792204916477,-0.9131402969360352,-0.6598677635192871
1761312001674603800,1.823603759765625,-0.062306419014930725,-0.8856521844863892,-0.7301151752471924
1761312001693216800,1.842216796875,-0.013438640162348747,-0.5295282006263733,-0.6281036734580994
1761312001711831600,1.86083154296875,0.046424392610788345,0.0758214145898819,-0.435075968503952
1761312001730444500,1.879444580078125,0.09834641218185425,0.5327351689338684,-0.24998924136161804
1761312001749059300,1.898059326171875,0.11545012891292572,0.6891120672225952,-0.1363716572523117
1761312001767672300,1.91667236328125,0.08674030750989914,0.6432985067367554,-0.06612421572208405
1761312001786287000,1.935287109375,0.01954711228609085,0.6170321106910706,0.013973130844533443
1761312001804900400,1.953900390625,-0.04092676565051079,0.5370110869407654,0.053678203374147415
1761312001823515000,1.972514892578125,-0.06780404597520828,0.27862271666526794,-0.0050394898280501366
1761312001842128100,1.991128173828125,-0.07391251623630524,-0.10193513333797455,-0.14736689627170563
1761312001860742700,2.00974267578125,-0.033596597611904144,-0.39086589217185974,-0.28786176443099976
1761312001879356000,2.02835595703125,0.043981000781059265,-0.45744824409484863,-0.3434488773345947
1761312001897970700,2.046970703125,0.10262233763933182,-0.29618456959724426,-0.2915268540382385
1761312001916583700,2.065583740234375,0.1301104724407196,-0.04512634128332138,-0.15408621728420258
1761312001935198200,2.0841982421875,0.10750912129878998,0.12407834827899933,0.02435753494501114
1761312001953811500,2.1028115234375,0.03787253051996231,0.14606885612010956,0.16912832856178284
1761312001972426200,2.12142626953125,-0.0390942245721817,0.11125055700540543,0.2558686435222626
1761312001991039200,2.140039306640625,-0.1301104724407196,0.05688514932990074,0.2613662779331207
1761312002009654000,2.158654052734375,-0.24067382514476776,-0.045737188309431076,0.1740151196718216
1761312002028267000,2.17726708984375,-0.3054236173629761,-0.0555107444524765,0.054899897426366806
1761312002046881800,2.1958818359375,-0.2901524603366852,0.0293970238417387,-0.04169032722711563
1761312002065494800,2.214494873046875,-0.22051586210727692,0.1540098637342453,-0.06551336497068405
1761312002084109600,2.233109619140625,-0.1563768982887268,0.2560213506221771,-0.008704573847353458
1761312002102722600,2.25172265625,-0.1185043677687645,0.27801185846328735,0.09216158092021942
1761312002121337300,2.27033740234375,-0.10873081535100937,0.2725142240524292,0.2137201875448227
1761312002139950300,2.288950439453125,-0.130721315741539,0.2596864402294159,0.32122930884361267
1761312002158565000,2.307565185546875,-0.1588202863931656,0.22242476046085358,0.35177165269851685
1761312002177178400,2.326178466796875,-0.13438639044761658,0.194325789809227,0.29496288299560547
1761312002195793000,2.34479296875,-0.04886778071522713,0.21081866323947906,0.174625962972641
1761312002214406100,2.36340625,0.11300674080848694,0.3904077410697937,0.07994463294744492
1761312002233020700,2.382020751953125,0.31031039357185364,0.563277542591095,0.03474193811416626
1761312002251634000,2.400634033203125,0.3830012381076813,0.42339351773262024,-0.054518118500709534
1761312002270248700,2.419248779296875,0.24556060135364532,-0.026190076023340225,-0.26159533858299255
1761312002288861700,2.43786181640625,0.04031591862440109,-0.5014292597770691,-0.5047125220298767
1761312002307476500,2.4564765625,-0.03787253051996231,-0.5057051777839661,-0.6384881138801575
1761312002326089500,2.47508935546875,-0.0006108472589403391,-0.08360971510410309,-0.6122216582298279
1761312002344704300,2.493704345703125,0.13621893525123596,0.34276166558265686,-0.5303681492805481
1761312002363317200,2.512317138671875,0.3402419090270996,0.5938199162483215,-0.43018919229507446
1761312002381932000,2.53093212890625,0.5234960913658142,0.7220978140830994,-0.2933593988418579
1761312002400545000,2.549544921875,0.6231405735015869,0.8595384359359741,-0.12659808993339539
1761312002419159800,2.568159912109375,0.6225296854972839,0.9267316460609436,0.0029778804164379835
1761312002437772800,2.586772705078125,0.5326588153839111,1.012250304222107,0.03290939703583717
1761312002456387600,2.6053876953125,0.5320479869842529,1.113650918006897,-0.0032069480512291193
1761312002475000800,2.624000732421875,0.46851983666419983,1.1393065452575684,-0.14736689627170563
1761312002493615400,2.642615478515625,0.25533416867256165,0.9358943700790405,-0.3892624080181122
1761312002512228600,2.661228515625,0.009773556143045425,0.5168531537055969,-0.6696413159370422
1761312002530843400,2.679843505859375,-0.2363978922367096,0.139960378408432,-0.9097042679786682
1761312002549456400,2.698456298828125,-0.342074453830719,0.039170581847429276,-1.0605835914611816
1761312002568071000,2.71707080078125,-0.21379654109477997,0.04405735805630684,-1.1351069211959839
1761312002586684200,2.73568408203125,0.08368607610464096,0.07337802648544312,-1.1143381595611572
1761312002605299000,2.754298828125,0.46424391865730286,0.0165692325681448,-0.9805625677108765
1761312002623912000,2.772911865234375,0.7495859265327454,-0.0689493864774704,-0.7252284288406372
1761312002642526700,2.791526611328125,0.8002862930297852,-0.08055548369884491,-0.36360684037208557
1761312002661139700,2.8101396484375,0.6017609238624573,-0.012751436792314053,0.01885990984737873
1761312002679754500,2.82875439453125,0.3115321099758148,0.045889899134635925,0.357269287109375
1761312002698367500,2.847367431640625,0.07452336698770523,0.03978142887353897,0.5686224699020386
1761312002716982300,2.865982177734375,-0.05864133685827255,-0.0035887276753783226,0.597943127155304
1761312002735595500,2.884595458984375,-0.10384403169155121,-0.12270393967628479,0.48004958033561707
1761312002754210000,2.9032099609375,-0.02626643143594265,-0.2137201875448227,0.3151208162307739
1761312002772823300,2.9218232421875,0.16431790590286255,-0.16973918676376343,0.2015032321214676
1761312002791437800,2.940437744140625,0.3811686933040619,-0.07566870748996735,0.12453648447990417
1761312002810051000,2.959051025390625,0.5686988234519958,-0.004810422193259001,0.0823880210518837
1761312002828665600,2.97766552734375,0.6823927164077759,0.05993938818573952,0.10132429003715515
1761312002847278800,2.99627880859375,0.7453100085258484,0.052609220147132874,0.16729579865932465
1761312002865893600,3.0148935546875,0.7880693078041077,0.06482616811990738,0.2625879645347595
1761312002884506600,3.033506591796875,0.7703547477722168,0.1020878478884697,0.3694862425327301
1761312002903121400,3.052121337890625,0.6524612307548523,0.07643226534128189,0.4354577362537384
1761312002921734400,3.070734375,0.5088357925415039,0.019623467698693275,0.3847574293613434
1761312002940349200,3.08934912109375,0.4037700295448303,-0.09704835712909698,0.13736428320407867
1761312002958962200,3.107962158203125,0.34451785683631897,-0.43057096004486084,-0.2677038013935089
1761312002977577000,3.126576904296875,0.29626092314720154,-0.9430717825889587,-0.709346354007721
1761312002996190000,3.14518994140625,0.12278030067682266,-1.1886323690414429,-0.9097042679786682
1761312003014804700,3.1638046875,-0.1423274129629135,-1.0041565895080566,-0.7496622800827026
1761312003033418000,3.18241796875,-0.37139514088630676,-0.30046048760414124,-0.3593308925628662
1761312003052032500,3.201032470703125,-0.5320479869842529,0.35803285241127014,0.04756972938776016
1761312003070645800,3.219645751953125,-0.5057815313339233,0.5382328033447266,0.33588963747024536
1761312003089260300,3.23826025390625,-0.48806697130203247,0.325047105550766,0.4605024755001068
1761312003107873500,3.25687353515625,-0.4343124032020569,-0.0164165198802948,0.49287739396095276
1761312003126488000,3.275488037109375,-0.33535513281822205,-0.23143476247787476,0.5032618045806885
1761312003145101300,3.294101318359375,-0.26877278089523315,-0.31145575642585754,0.5136461853981018
1761312003163716000,3.312716064453125,-0.2632751762866974,-0.329781174659729,0.5118136405944824
1761312003182329000,3.3313291015625,-0.3439069986343384,-0.3175642192363739,0.5026509165763855
1761312003200943900,3.34994384765625,-0.44103172421455383,-0.22105035185813904,0.49532076716423035
1761312003219556900,3.368556884765625,-0.4960079789161682,-0.024968381971120834,0.4861580729484558
1761312003238171600,3.387171630859375,-0.5002838969230652,0.20104511082172394,0.45744824409484863
1761312003256784600,3.40578466796875,-0.46241137385368347,0.35803285241127014,0.41529977321624756
1761312003275399400,3.4243994140625,-0.3658975064754486,0.5467846393585205,0.4385119676589966
1761312003294012400,3.443012451171875,-0.24494975805282593,0.6750625967979431,0.48310381174087524
1761312003312627200,3.461627197265625,-0.18081079423427582,0.762413740158081,0.4910448491573334
1761312003331240200,3.480240234375,-0.1716480851173401,0.8277744054794312,0.41591063141822815
1761312003349855000,3.49885498046875,-0.1973036676645279,0.8253310322761536,0.2662530541419983
1761312003368468200,3.51746826171875,-0.21929416060447693,0.817389965057373,0.1086544543504715
1761312003387082800,3.536082763671875,-0.18630841374397278,0.8149465918540955,-0.014813045971095562
1761312003405696000,3.554696044921875,-0.12888877093791962,0.8277744054794312,-0.08383878320455551
1761312003424310500,3.573310546875,-0.0787992998957634,0.8357154130935669,-0.10949437320232391
1761312003442923800,3.591923828125,-0.06413896381855011,0.8564842343330383,-0.11987877637147903
1761312003461538300,3.610538330078125,-0.1050657257437706,0.803340494632721,-0.16996824741363525
1761312003480151600,3.629151611328125,0.03176405653357506,0.7086591720581055,-0.2982461750507355
1761312003498766300,3.647766357421875,0.28343313932418823,0.3513135313987732,-0.5242596864700317
1761312003517379300,3.66637939453125,0.3915531039237976,0.13018682599067688,-0.567018985748291
1761312003535994000,3.684994140625,0.4679090082645416,0.31954947113990784,-0.4240806996822357
1761312003554607000,3.703607177734375,0.5289937257766724,0.6903337836265564,-0.1766875684261322
1761312003573222000,3.722221923828125,0.6396334171295166,0.8815289735794067,0.019470756873488426
1761312003591835000,3.7408349609375,0.6158103942871094,0.7306496500968933,0.029855160042643547
1761312003610449700,3.75944970703125,0.4031592011451721,0.043446511030197144,-0.13942588865756989
1761312003629062700,3.778062744140625,-0.016492875292897224,-0.801355242729187,-0.29946786165237427
1761312003647677400,3.796677490234375,-0.5320479869842529,-1.125104308128357,-0.2976353168487549
1761312003666290400,3.81529052734375,-0.9541434049606323,-0.9455152153968811,-0.14553436636924744
1761312003684905200,3.8339052734375,-1.1331216096878052,-0.6101600527763367,0.0011453386396169662
1761312003703518200,3.852518310546875,-1.0304993391036987,-0.37864893674850464,0.08544225990772247
1761312003722133000,3.871133056640625,-0.7641699314117432,-0.26014456152915955,0.13736428320407867
1761312003740746000,3.88974609375,-0.5234960913658142,-0.15446799993515015,0.23265644907951355
1761312003759360800,3.90836083984375,-0.4416425824165344,-0.2375432252883911,0.3426089584827423
1761312003777974000,3.92697412109375,-0.4856235682964325,-0.3963635265827179,0.38964420557022095
1761312003796588500,3.945588623046875,-0.5845808386802673,-0.4391228258609772,0.3994177579879761
1761312003815201500,3.964201416015625,-0.7507312893867493,-0.48371466994285583,0.4507289230823517
1761312003833816300,3.98281640625,-0.971247136592865,-0.6712448000907898,0.5069268941879272
1761312003852429600,4.0014296875,-1.0066763162612915,-1.032866358757019,0.45378315448760986
1761312003871044000,4.020044189453125,-0.9309312105178833,-1.470920205116272,0.1611873209476471
1761312003889657300,4.0386572265625,-0.8478559851646423,-1.8129947185516357,-0.31229567527770996
1761312003908271900,4.05727197265625,-0.4471401870250702,-2.097038745880127,-0.669030487537384
1761312003926885000,4.075885009765625,-0.15210096538066864,-1.7598509788513184,-0.7478297352790833
1761312003945499600,4.094499755859375,-0.13682979345321655,-0.9565104246139526,-0.8052493929862976
1761312003964113000,4.11311279296875,-0.15271180868148804,-0.2253262847661972,-0.9213103652000427
1761312003982727400,4.1317275390625,-0.1948602795600891,-0.10560022294521332,-1.0208784341812134
1761312004001340700,4.150340576171875,-0.06047387793660164,-0.22227205336093903,-1.0123265981674194
1761312004019955200,4.168955078125,0.4202629029750824,-0.17645850777626038,-0.9744541049003601
1761312004038568400,4.187568359375,0.9646041989326477,0.1271325796842575,-0.8431219458580017
1761312004057183200,4.206183349609375,1.2126082181930542,0.4783697724342346,-0.6873558759689331
1761312004075796200,4.224796142578125,1.1319763660430908,0.642076849937439,-0.3990359604358673
1761312004094410800,4.24341064453125,0.9584956765174866,0.7001073360443115,0.015194825828075409
1761312004113024000,4.26202392578125,0.7825716733932495,0.5913764834403992,0.4067479074001312
1761312004131638800,4.280638671875,0.6500178575515747,0.3629196286201477,0.6584169864654541
1761312004150251800,4.299251708984375,0.6060368418693542,0.019623467698693275,0.695067822933197
1761312004168866600,4.317866455078125,0.5845808386802673,-0.49226653575897217,0.6132143139839172
1761312004187479600,4.3364794921875,0.5210527181625366,-0.8373952507972717,0.611992597579956
1761312004206094300,4.35509423828125,0.39949411153793335,-0.8832087516784668,0.6895701885223389
1761312004224707300,4.373707275390625,0.26877278089523315,-0.8972582817077637,0.7567633986473083
1761312004243321900,4.39232177734375,0.23151111602783203,-1.1855782270431519,0.7726454138755798
1761312004261935000,4.41093505859375,0.20402298867702484,-1.470920205116272,0.8441145420074463
1761312004280550000,4.4295498046875,0.04886778071522713,-1.3407334089279175,1.0218710899353027
1761312004299163000,4.448162841796875,-0.17653486132621765,-0.8575531840324402,1.184967279434204
1761312004317777700,4.466777587890625,-0.22479179501533508,-0.39208757877349854,1.1684744358062744
1761312004336390700,4.485390625,-0.14843589067459106,-0.38964420557022095,0.8942040205001831
1761312004355005200,4.504005126953125,-0.07513421028852463,-0.7989118695259094,0.41591063141822815
1761312004373618400,4.522618408203125,-0.16065283119678497,-1.0554677248001099,-0.05512896552681923
1761312004392233000,4.54123291015625,-0.3512371778488159,-0.7787538766860962,-0.40453359484672546
1761312004410846200,4.55984619140625,-0.4575245976448059,-0.25831204652786255,-0.7001836895942688
1761312004429460700,4.578460693359375,-0.4581354558467865,0.008017370477318764,-0.9701781868934631
1761312004448074000,4.597073974609375,-0.3695625960826874,0.03367295488715172,-1.1406044960021973
1761312004466688500,4.6156884765625,-0.20219044387340546,-0.05978667363524437,-1.0679137706756592
1761312004485301800,4.6343017578125,-0.09529217332601547,-0.15141376852989197,-0.6879667043685913
1761312004503916300,4.652916259765625,-0.130721315741539,-0.20333577692508698,-0.10766182839870453
1761312004522529500,4.671529541015625,-0.24250635504722595,-0.15630054473876953,0.48371466994285583
1761312004541144000,4.69014404296875,-0.3836120665073395,-0.015194825828075409,0.8783220052719116
1761312004559757300,4.70875732421875,-0.4587462842464447,0.07032378762960434,0.9956046938896179
1761312004578371800,4.727371826171875,-0.4459185004234314,0.03489464893937111,0.8856521844863892
1761312004596985000,4.745985107421875,-0.4037700295448303,-0.03290939703583717,0.6846834421157837
1761312004615599600,4.764599609375,-0.39888325333595276,-0.0561215914785862,0.5118136405944824
1761312004634212900,4.783212890625,-0.4349232614040375,-0.03168770298361778,0.3817031681537628
1761312004652827400,4.801827392578125,-0.4752391576766968,0.13018682599067688,0.3029038906097412
1761312004671440600,4.820440673828125,-0.4734066128730774,0.31771692633628845,0.2668638825416565
1761312004690055200,4.83905517578125,-0.42392799258232117,0.43499961495399475,0.2515927255153656
1761312004708668200,4.857668212890625,-0.3298575282096863,0.5406761765480042,0.24426254630088806
1761312004727283000,4.876282958984375,-0.2357870489358902,0.5443412661552429,0.2124984860420227
1761312004745896000,4.89489599609375,-0.19241689145565033,0.3879643678665161,0.16424155235290527
1761312004764510700,4.9135107421875,-0.183865025639534,0.21509459614753723,0.15691138803958893
1761312004783123700,4.932123779296875,-0.18936264514923096,0.19554747641086578,0.21860696375370026
1761312004801738500,4.950738525390625,-0.19119518995285034,0.32077115774154663,0.3200076222419739
1761312004820351500,4.9693515625,-0.1960819661617279,0.4252260625362396,0.39025503396987915
1761312004838966300,4.98796630859375,-0.2363978922367096,0.42461520433425903,0.37559470534324646
1761312004857579300,5.006579345703125,-0.28221142292022705,0.45210331678390503,0.29740625619888306
1761312004876194000,5.025194091796875,-0.2761029601097107,0.6671215891838074,0.22960221767425537
1761312004894807000,5.04380712890625,-0.2229592502117157,0.7001073360443115,0.07505785673856735
1761312004913421800,5.062421875,-0.20157960057258606,0.29022881388664246,-0.2304421216249466
1761312004932034800,5.081034912109375,-0.25411245226860046,-0.08360971510410309,-0.5340332388877869
1761312004950649300,5.0996494140625,-0.29687178134918213,0.023288551717996597,-0.6653653979301453
1761312004969262600,5.1182626953125,-0.23945212364196777,0.2725142240524292,-0.6592568755149841
1761312004987877000,5.136877197265625,-0.033596597611904144,0.3751365840435028,-0.6055023670196533
1761312005006490400,5.155490478515625,0.3304683566093445,0.38002336025238037,-0.5004366040229797
1761312005025105000,5.17410498046875,0.6494069695472717,0.3122192919254303,-0.2683146595954895
1761312005043718000,5.1927177734375,0.7532510161399841,0.25296711921691895,0.11048699915409088
1761312005062332700,5.211332763671875,0.6683432459831238,0.3000023663043976,0.49348822236061096
1761312005080945700,5.229945556640625,0.45202696323394775,0.27679017186164856,0.7158366441726685
1761312005099560400,5.248560546875,0.18630841374397278,0.16378341615200043,0.7201125621795654
1761312005118173400,5.26717333984375,-0.020157959312200546,-0.012751436792314053,0.5509078502655029
1761312005136788200,5.285788330078125,-0.12400199472904205,-0.21799612045288086,0.29679539799690247
1761312005155401200,5.304401123046875,-0.16492876410484314,-0.352993369102478,0.07078192383050919
1761312005174016000,5.32301611328125,-0.18997350335121155,-0.2815242409706116,-0.027029991149902344
1761312005192629000,5.34162890625,-0.1692046970129013,-0.08727480471134186,-0.0587940476834774
1761312005211243800,5.360243896484375,-0.07085828483104706,0.1014770045876503,-0.10033166408538818
1761312005229856800,5.378856689453125,0.10995250940322876,0.1674485057592392,-0.1650814712047577
1761312005248471300,5.39747119140625,0.29503923654556274,0.08681666851043701,-0.21272756159305573
1761312005267084500,5.41608447265625,0.390942245721817,-0.07872293889522552,-0.2170034945011139
1761312005285699000,5.434698974609375,0.3701734244823456,-0.2631988227367401,-0.18768282234668732
1761312005304312300,5.453312255859375,0.2608317732810974,-0.3071798086166382,-0.11560284346342087
1761312005322926800,5.4719267578125,0.1178935244679451,-0.19600561261177063,-0.012980503961443901
1761312005341540000,5.4905400390625,0.017714571207761765,-0.08422056585550308,0.05673243850469589
1761312005360154600,5.509154541015625,0.004275931045413017,-0.06223006546497345,0.07383616268634796
1761312005378767600,5.527767578125,0.06902574002742767,-0.0426829531788826,0.07689040154218674
1761312005397382400,5.54638232421875,0.1429382562637329,-0.0005344913806766272,0.07750124484300613
1761312005415995400,5.564995361328125,0.16248537600040436,0.009849912486970425,0.07994463294744492
1761312005434610200,5.583610107421875,0.13316470384597778,0.009849912486970425,0.10437852889299393
1761312005453223200,5.60222314453125,0.08735115826129913,-0.02802261710166931,0.14102935791015625
1761312005471838000,5.620837890625,0.05925218388438225,-0.06772769242525101,0.15324631333351135
1761312005490451000,5.639450927734375,0.07696675509214401,-0.10315682739019394,0.11415208131074905
1761312005509065500,5.6580654296875,0.15026842057704926,-0.15324631333351135,0.021303297951817513
1761312005527678700,5.6766787109375,0.28404396772384644,-0.2381540685892105,-0.1119377613067627
1761312005546293200,5.695293212890625,0.4605788290500641,-0.3994177579879761,-0.23899398744106293
1761312005564906200,5.71390625,0.6237514019012451,-0.4995967149734497,-0.3171824514865875
1761312005583521000,5.73252099609375,0.6756734251976013,-0.5228089094161987,-0.3184041380882263
1761312005602134000,5.751134033203125,0.5931326746940613,-0.5649573802947998,-0.27747735381126404
1761312005620748800,5.769748779296875,0.4312581717967987,-0.6804074645042419,-0.2670929729938507
1761312005639361800,5.78836181640625,0.23273280262947083,-0.9827768802642822,-0.35261157155036926
1761312005657976600,5.8069765625,-0.005497625097632408,-1.226504921913147,-0.48577627539634705
1761312005676589600,5.825589599609375,-0.20341213047504425,-1.1458730697631836,-0.5089884996414185
1761312005695204000,5.8442041015625,-0.3017585575580597,-0.8270108103752136,-0.4100312292575836
1761312005713817300,5.8628173828125,-0.258999228477478,-0.38903334736824036,-0.2157817929983139
1761312005732432000,5.881431884765625,-0.15515519678592682,0.01779092662036419,0.015805672854185104
1761312005751045000,5.900045166015625,-0.07330167293548584,0.325047105550766,0.21799612045288086
1761312005769659600,5.91865966796875,-0.03542914241552353,0.5455629825592041,0.36276692152023315
1761312005788272600,5.937272705078125,-0.007941014133393764,0.6145886778831482,0.4079696238040924
1761312005806887400,5.955887451171875,0.0036650835536420345,0.503414511680603,0.3200076222419739
1761312005825500400,5.97450048828125,-0.026877280324697495,0.29267218708992004,0.15446799993515015
1761312005844115200,5.993115234375,-0.06352811306715012,0.13812783360481262,-0.00015271181473508477
1761312005862728200,6.011728271484375,-0.038483377546072006,0.04283566400408745,-0.11621369421482086
1761312005881342700,6.0303427734375,0.02626643143594265,0.00862821750342846,-0.18707197904586792
1761312005899956000,6.0489560546875,0.08124268800020218,0.0019088976550847292,-0.18646112084388733
1761312005918570500,6.067570556640625,0.13316470384597778,0.07276718318462372,-0.08689302206039429
1761312005937183500,6.08618359375,0.16126367449760437,0.19860170781612396,0.08360971510410309
1761312005955798300,6.10479833984375,0.14660334587097168,0.3097759187221527,0.24853847920894623
1761312005974411300,6.123411376953125,0.10873081535100937,0.33237725496292114,0.31145575642585754
1761312005993026000,6.142026123046875,0.07696675509214401,0.2841203212738037,0.26014456152915955
1761312006011639000,6.16063916015625,0.05497625470161438,0.17600037157535553,0.1343100368976593
1761312006030253600,6.179253662109375,0.04153761267662048,0.07887565344572067,0.006642963737249374
1761312006048866800,6.19786669921875,0.04459185153245926,0.045889899134635925,-0.07956285774707794
1761312006067481300,6.2164814453125,0.051922015845775604,0.02145601063966751,-0.1113269105553627
1761312006086094300,6.23509423828125,0.030542362481355667,0.06726955622434616,-0.05329642444849014
1761312006104709000,6.253709228515625,-0.024433890357613564,0.22914408147335052,0.09888090193271637
1761312006123322000,6.272322021484375,-0.10873081535100937,0.4398863911628723,0.29801711440086365
1761312006141936600,6.2909365234375,-0.183865025639534,0.558390736579895,0.4501180648803711
1761312006160550000,6.3095498046875,-0.21379654109477997,0.5535039901733398,0.4898231327533722
1761312006207084500,6.35608447265625,-0.11667182296514511,0.3384857475757599,0.226547971367836
1761312006225699000,6.374698974609375,0.06291726976633072,0.34459421038627625,0.10498937219381332
1761312006244312000,6.39331201171875,0.18569757044315338,0.22547899186611176,-0.028251685202121735
1761312006262926800,6.4119267578125,0.14171656966209412,-0.04756972938776016,-0.2029540091753006
1761312006281539800,6.430539794921875,-0.06169557198882103,-0.4366794228553772,-0.39231663942337036
1761312006300154400,6.449154296875,-0.261442631483078,-0.6871268153190613,-0.49738237261772156
1761312006318767600,6.467767578125,-0.37506023049354553,-0.6217661499977112,-0.43263256549835205
1761312006337382100,6.486382080078125,-0.29687178134918213,-0.25831204652786255,-0.21822518110275269
1761312006355995100,6.5049951171875,-0.014049487188458443,0.26762744784355164,0.07139277458190918
1761312006374610000,6.52360986328125,0.2779355049133301,0.5290700793266296,0.3035147190093994
1761312006393223000,6.542222900390625,0.367730051279068,0.5040253400802612,0.4507289230823517
1761312006411837400,6.56083740234375,0.2754921019077301,0.3671955466270447,0.5075377225875854
1761312006430450700,6.57945068359375,0.09468132257461548,0.17172443866729736,0.48004958033561707
1761312006449065200,6.598065185546875,-0.08796200156211853,-0.04512634128332138,0.3444415032863617
1761312006467678200,6.61667822265625,-0.20585553348064423,-0.16912832856178284,0.11964970827102661
1761312006486293000,6.63529296875,-0.2596100866794586,-0.15752223134040833,-0.13209572434425354
1761312006504906000,6.653906005859375,-0.24128466844558716,-0.07200361788272858,-0.31229567527770996
1761312006523520500,6.6725205078125,-0.1313321590423584,0.07948649674654007,-0.35383328795433044
1761312006542133800,6.6911337890625,0.021990500390529633,0.2859528660774231,-0.23105297982692719
1761312006560748300,6.709748291015625,0.15271180868148804,0.4557684063911438,-0.012980503961443901
1761312006579361300,6.728361328125,0.25411245226860046,0.47165045142173767,0.17706935107707977
1761312006597976000,6.74697607421875,0.32252734899520874,0.4203392565250397,0.32489439845085144
1761312006616589000,6.765589111328125,0.3261924386024475,0.3665847182273865,0.4220190942287445
1761312006635203600,6.78420361328125,0.2852656841278076,0.24197186529636383,0.43973368406295776
1761312006653816800,6.80281689453125,0.2241809368133545,0.09903360903263092,0.37620556354522705
1761312006672431400,6.821431396484375,0.15210096538066864,-0.05795413255691528,0.24365170300006866
1761312006691044400,6.84004443359375,0.0922379344701767,-0.20394663512706757,0.09032903611660004
1761312006709659100,6.8586591796875,0.0525328628718853,-0.2613662779331207,-0.02886253222823143
1761312006728272100,6.877272216796875,-0.014049487188458443,-0.16729579865932465,-0.08200624585151672
1761312006746886700,6.89588671875,-0.12216944992542267,-0.03290939703583717,-0.09361234307289124
1761312006765500000,6.9145,-0.21501824259757996,0.05810684710741043,-0.06734590977430344
1761312006784114400,6.933114501953125,-0.24128466844558716,0.009239064529538155,-0.022754060104489326
1761312006802727400,6.9517275390625,-0.2345653474330902,-0.20272493362426758,0.012751436792314053
1761312006821342000,6.970342041015625,-0.261442631483078,-0.46905434131622314,-0.014202198944985867
1761312006839955200,6.988955078125,-0.3017585575580597,-0.6706339120864868,-0.10033166408538818
1761312006858569700,7.00756982421875,-0.34451785683631897,-0.6468108892440796,-0.17241163551807404
1761312006877183000,7.026182861328125,-0.36223241686820984,-0.3303920030593872,-0.19379130005836487
1761312006895797500,7.044797607421875,-0.36284327507019043,-0.07566870748996735,-0.27564483880996704
1761312006914410500,7.063410400390625,-0.36101073026657104,-0.1483595222234726,-0.5169295072555542
1761312006933025000,7.08202490234375,-0.3536805510520935,-0.5802285671234131,-0.8443436026573181
1761312006951638300,7.10063818359375,-0.34757208824157715,-0.9858311414718628,-0.9707890152931213
1761312006970252800,7.119252685546875,-0.3799470067024231,-1.0621870756149292,-0.7380561828613281
1761312006988865800,7.13786572265625,-0.4227063059806824,-0.9314656853675842,-0.28969430923461914
1761312007007480600,7.15648046875,-0.4049917459487915,-0.7915816903114319,0.18317782878875732
1761312007026093600,7.175093505859375,-0.3439069986343384,-0.7628718614578247,0.5160895586013794
1761312007044708000,7.1937080078125,-0.2907632887363434,-0.7708128690719604,0.6871268153190613
1761312007063321300,7.2123212890625,-0.26938363909721375,-0.6431457996368408,0.7702020406723022
1761312007081936000,7.230935791015625,-0.2718270421028137,-0.44034451246261597,0.7561525702476501
1761312007100548900,7.249548828125,-0.291374146938324,-0.329781174659729,0.6101600527763367
1761312007119163400,7.268163330078125,-0.3512371778488159,-0.25709033012390137,0.382924884557724
1761312007137776600,7.286776611328125,-0.4337015450000763,-0.17035003006458282,0.16607409715652466
1761312007156391200,7.30539111328125,-0.48012593388557434,-0.12026055157184601,0.02008160389959812
1761312007175004200,7.324004150390625,-0.46607646346092224,-0.12759071588516235,-0.07956285774707794
1761312007193619000,7.342618896484375,-0.4062134325504303,-0.12026055157184601,-0.1375933438539505
1761312007212232000,7.36123193359375,-0.28282228112220764,-0.11781716346740723,-0.13576079905033112
1761312007230846500,7.379846435546875,-0.12827792763710022,-0.1214822456240654,-0.06306997686624527
1761312007249459500,7.39845947265625,-0.021379653364419937,-0.15263545513153076,0.0561215914785862
1761312007268074200,7.41707421875,0.006719320081174374,-0.20394663512706757,0.173404261469841
1761312007286687200,7.435687255859375,-0.033596597611904144,-0.24609509110450745,0.2405974566936493
1761312007305301800,7.4543017578125,-0.10140064358711243,-0.23632153868675232,0.2387649267911911
1761312007323915000,7.4729150390625,-0.15332266688346863,-0.20455747842788696,0.19600561261177063
1761312007342529500,7.491529541015625,-0.14782503247261047,-0.12026055157184601,0.1862320601940155
1761312007361142500,7.510142578125,-0.11606097966432571,0.027564482763409615,0.24548424780368805
1761312007379757000,7.528757080078125,-0.11178504675626755,0.24869118630886078,0.32367268204689026
1761312007398370300,7.547370361328125,-0.129499614238739,0.3867426812648773,0.3713187873363495
1761312007416984800,7.56598486328125,-0.13927318155765533,0.40812233090400696,0.3841465711593628
1761312007435597800,7.584597900390625,-0.15026842057704926,0.3238253891468048,0.3542150557041168
1761312007454212600,7.603212646484375,-0.17286977171897888,0.21142950654029846,0.276637464761734
1761312007472825600,7.62182568359375,-0.18019993603229523,0.2181488275527954,0.1721825748682022
1761312007491440000,7.640440185546875,-0.1178935244679451,0.35620030760765076,0.07811209559440613
1761312007510053000,7.65905322265625,-0.004886778071522713,0.3751365840435028,-0.025197450071573257
1761312007528668000,7.67766796875,0.0781884491443634,0.20409934222698212,-0.1632489264011383
1761312007547281000,7.696281005859375,0.06047387793660164,-0.0811663269996643,-0.3318427801132202
1761312007565895400,7.7148955078125,-0.021990500390529633,-0.3200076222419739,-0.4619532525539398
1761312007584508700,7.7335087890625,-0.08735115826129913,-0.41041299700737,-0.49738237261772156
1761312007603123200,7.752123291015625,-0.1301104724407196,-0.37315133213996887,-0.43324342370033264
1761312007621736200,7.770736083984375,-0.1447708010673523,-0.22349373996257782,-0.28541839122772217
1761312007640350700,7.789350830078125,-0.11972606182098389,-0.04818057641386986,-0.10399674624204636
1761312007658964000,7.8079638671875,-0.06719319522380829,0.13263021409511566,0.0555107444524765
1761312007677578500,7.82657861328125,-0.006108472589403391,0.20898611843585968,0.1477486789226532
1761312007696191500,7.84519140625,0.05864133685827255,0.18394137918949127,0.18317782878875732
1761312007714806000,7.863805908203125,0.08796200156211853,0.07826480269432068,0.17157171666622162
1761312007733419300,7.882419189453125,0.09529217332601547,-0.04023956134915352,0.1343100368976593
1761312007752033800,7.90103369140625,0.06719319522380829,-0.15019206702709198,0.04512634128332138
1761312007770647000,7.91964697265625,0.022601349279284477,-0.23204560577869415,-0.0844496339559555
1761312007789261600,7.938261474609375,-0.020157959312200546,-0.2662530541419983,-0.21822518110275269
1761312007807874600,7.95687451171875,-0.05008947476744652,-0.21921780705451965,-0.28602921962738037
1761312007826489000,7.975489013671875,-0.06047387793660164,-0.09827005118131638,-0.24693500995635986
1761312007845102300,7.994102294921875,-0.022601349279284477,0.01901262067258358,-0.17913095653057098
1761312007863716900,8.012716796875,0.0781884491443634,0.08437328040599823,-0.1363716572523117
1761312007882329900,8.031329833984374,0.19180603325366974,0.1821088343858719,-0.10582929104566574
1761312007900944400,8.0499443359375,0.31092125177383423,0.348259299993515,-0.05268557742238045
1761312007919557600,8.0685576171875,0.42453885078430176,0.5064687132835388,-0.027029991149902344
1761312007938172200,8.087172119140625,0.44042086601257324,0.484478235244751,-0.125987246632576
1761312007956785200,8.10578515625,0.2632751762866974,0.25296711921691895,-0.3452814221382141
1761312007975400000,8.12439990234375,-0.12339114397764206,-0.4000285863876343,-0.650094211101532
1761312007994013000,8.143012939453126,-0.40010493993759155,-0.9717816114425659,-0.8632798790931702
1761312008012627500,8.16162744140625,-0.4172086715698242,-1.2906439304351807,-0.9634588360786438
1761312008031240400,8.180240478515625,-0.2608317732810974,-1.1727503538131714,-0.9768974781036377
1761312008049855200,8.198855224609375,-0.06047387793660164,-0.6315397024154663,-0.9243646264076233
1761312008068468200,8.21746826171875,0.07330167293548584,-0.1624090075492859,-0.8284615874290466
1761312008087082800,8.236082763671876,0.062306419014930725,-0.07322531193494797,-0.7124006152153015
1761312008105696000,8.254696044921875,-0.004886778071522713,-0.07872293889522552,-0.5810684561729431
1761312008124310500,8.273310546875,-0.03787253051996231,-0.05795413255691528,-0.3953709006309509
1761312008142923500,8.291923583984374,-0.01832541823387146,0.05199837312102318,-0.10766182839870453
1761312008161538000,8.3105380859375,0.04031591862440109,0.1808871477842331,0.18073442578315735
1761312008180151300,8.3291513671875,0.16859383881092072,0.20959696173667908,0.4207974076271057
1761312008198765800,8.347765869140625,0.2626643180847168,0.10269869863986969,0.5588488578796387
1761312008217378800,8.36637890625,0.2644968628883362,-0.22838051617145538,0.5435777306556702
1761312008235993600,8.38499365234375,0.21868331730365753,-0.6547518968582153,0.45683738589286804
1761312008254606600,8.403606689453126,0.2107423096895218,-0.9986588954925537,0.36154523491859436
1761312008273221000,8.42222119140625,0.2516690790653229,-1.1971843242645264,0.2638096511363983
1761312008291834000,8.440834228515625,0.28221142292022705,-1.3156886100769043,0.20761170983314514
1761312008310449000,8.459448974609375,0.2907632887363434,-1.3181320428848267,0.22838051617145538
1761312008329062000,8.478061767578126,0.3151971995830536,-1.0212602615356445,0.34016555547714233
1761312008347676400,8.496676513671876,0.37689274549484253,-0.48493635654449463,0.48310381174087524
1761312008366289400,8.515289306640625,0.22906772792339325,-0.17096087336540222,0.48004958033561707
1761312008384904200,8.533904296875,-0.01588202826678753,0.1821088343858719,0.44095537066459656
1761312008403517200,8.55251708984375,-0.1973036676645279,0.5675534605979919,0.40308284759521484
1761312008422131700,8.571131591796876,-0.265718549489975,0.7746306657791138,0.35360419750213623
1761312008440745000,8.589744873046875,-0.3023693859577179,0.6836144328117371,0.2668638825416565
1761312008459359500,8.608359375,-0.3017585575580597,0.4441623091697693,0.1477486789226532
1761312008477972500,8.626972412109374,-0.24250635504722595,0.20287764072418213,0.05856497958302498
1761312008496587000,8.6455869140625,-0.13805148005485535,0.08131904155015945,0.04085041210055351
1761312008515200300,8.6642001953125,-0.0659715011715889,0.168670192360878,0.0695602297782898
1761312008533814800,8.682814697265625,-0.02870982140302658,0.30733251571655273,0.09032903611660004
1761312008552427800,8.701427734375,0.028098974376916885,0.3635304868221283,0.07933378964662552
1761312008571042600,8.72004248046875,0.10140064358711243,0.3256579339504242,0.06528430432081223
1761312008589655600,8.738655517578126,0.1698155403137207,0.32993388175964355,0.07200361788272858
1761312008608270000,8.75727001953125,0.1973036676645279,0.34398335218429565,0.08483141660690308
1761312008626883000,8.775883056640625,0.19058434665203094,0.34215080738067627,0.0958266630768776
1761312008645497900,8.794497802734375,0.16309621930122375,0.34215080738067627,0.10193513333797455
1761312008664110800,8.81311083984375,0.1319430023431778,0.40690064430236816,0.10254598408937454
1761312008682725400,8.831725341796876,0.1185043677687645,0.49974942207336426,0.07994463294744492
1761312008701338600,8.850338623046875,0.10811996459960938,0.6078693866729736,0.04146125912666321
1761312008719953200,8.868953125,0.08368607610464096,0.7770740985870361,0.030466007068753242
1761312008738566100,8.887566162109374,0.051922015845775604,0.9493330121040344,0.03168770298361778
1761312008757180700,8.9061806640625,0.038483377546072006,1.0434035062789917,0.0011453386396169662
1761312008775794000,8.9247939453125,0.006108472589403391,1.0269105434417725,-0.08689302206039429
1761312008794408400,8.943408447265625,-0.028098974376916885,0.9505546689033508,-0.15714046359062195
1761312008813021400,8.962021484375,-0.0390942245721817,0.8442672491073608,-0.14248012006282806
1761312008831636000,8.980635986328124,-0.12033691257238388,0.4667636752128601,-0.11743538826704025
1761312008850249200,8.999249267578126,-0.21379654109477997,0.14606885612010956,-0.049020491540431976
1761312008868863700,9.01786376953125,-0.17286977171897888,0.27617931365966797,0.11659546941518784
1761312008887477000,9.03647705078125,-0.0794101431965828,0.5706077218055725,0.2894652485847473
1761312008906091500,9.055091552734375,0.0018325417768210173,0.6402443051338196,0.32367268204689026
1761312008924704500,9.07370458984375,0.04703523963689804,0.42217180132865906,0.19356222450733185
1761312008943319000,9.092319091796876,0.047646086663007736,0.14606885612010956,0.011529741808772087
1761312008961932300,9.110932373046875,0.05008947476744652,0.040392275899648666,-0.06429167091846466
1761312008980546800,9.129546875,0.08857285231351852,0.18271969258785248,0.035352785140275955
1761312008999159800,9.148159912109374,0.16309621930122375,0.39712706208229065,0.21799612045288086
1761312009017774300,9.1667744140625,0.19913621246814728,0.5522822737693787,0.3468848764896393
1761312009036387600,9.1853876953125,0.15210096538066864,0.5473955273628235,0.32428354024887085
1761312009055002000,9.204002197265625,0.04825693368911743,0.30672168731689453,0.1599656194448471
1761312009073615000,9.222614990234375,-0.09529217332601547,0.05016583204269409,-0.06306997686624527
1761312009092230000,9.24122998046875,-0.2644968628883362,-0.08788564801216125,-0.3110739588737488
1761312009110843000,9.2598427734375,-0.32313820719718933,-0.06589514762163162,-0.5633538961410522
1761312009129457400,9.27845751953125,-0.2583884000778198,0.04405735805630684,-0.7576032876968384
1761312009148070400,9.2970703125,-0.11361759155988693,0.1020878478884697,-0.8528954982757568
1761312009166685200,9.315685302734375,0.08918370306491852,0.09842276573181152,-0.8290724158287048
1761312009185298200,9.334298095703126,0.31031039357185364,0.062993623316288,-0.6867450475692749
1761312009203912700,9.35291259765625,0.4434750974178314,0.07337802648544312,-0.4265241026878357
1761312009222526000,9.37152587890625,0.4074351191520691,0.16500511765480042,-0.11682453751564026
1761312009241140500,9.390140380859375,0.23884128034114838,0.3219928741455078,0.1752368062734604
1761312009259753500,9.40875341796875,0.04947862774133682,0.4557684063911438,0.39208757877349854
1761312009278368000,9.427367919921876,-0.08796200156211853,0.4527141749858856,0.46905434131622314
1761312009296981200,9.445981201171875,-0.14965757727622986,0.3128301501274109,0.3994177579879761
1761312009315595800,9.464595703125,-0.11178504675626755,0.09720107167959213,0.22899135947227478
1761312009334208800,9.483208740234375,0.062306419014930725,-0.05673243850469589,0.07139277458190918
1761312009352823600,9.501823486328124,0.28221142292022705,-0.07933378964662552,0.015194825828075409
1761312009371436500,9.5204365234375,0.4318690001964569,-0.009697199799120426,0.03840702027082443
1761312009390051000,9.539051025390625,0.4947862923145294,-0.043293800204992294,0.044515494257211685
1761312009408664300,9.557664306640625,0.4593571424484253,-0.16851748526096344,0.036574479192495346
1761312009427278800,9.57627880859375,0.29687178134918213,-0.2546469569206238,0.10010259598493576
1761312009445891800,9.594891845703126,0.10017894953489304,-0.226547971367836,0.24731677770614624
1761312009464506400,9.61350634765625,0.036039989441633224,-0.059175826609134674,0.3853682577610016
1761312009483119600,9.63211962890625,0.0794101431965828,-0.004199574701488018,0.3670428395271301
1761312009501734100,9.650734130859375,0.15393351018428802,-0.14102935791015625,0.17584764957427979
1761312009520347100,9.66934716796875,0.16737215220928192,-0.4446204602718353,-0.1247655525803566
1761312009548268000,9.69726806640625,0.06658235192298889,-0.79707932472229,-0.5004366040229797
1761312009566882600,9.715882568359374,-0.024433890357613564,-0.7775322198867798,-0.5548020005226135
1761312009585495600,9.73449560546875,-0.10934165865182877,-0.40369367599487305,-0.4088095426559448
1761312009604110300,9.7531103515625,-0.14721418917179108,0.026342788711190224,-0.14797775447368622
1761312009622723300,9.771723388671875,-0.1423274129629135,0.18271969258785248,0.12270393967628479
1761312009641337900,9.790337890625,-0.1966928243637085,0.13385190069675446,0.29740625619888306
1761312009659951000,9.808951171875,-0.30664533376693726,0.1265217363834381,0.3468848764896393
1761312009678565600,9.827565673828126,-0.3823903799057007,0.29145050048828125,0.2912977933883667
1761312009697178600,9.8461787109375,-0.365286648273468,0.47531551122665405,0.16485241055488586
1761312009715793400,9.86479345703125,-0.2724378705024719,0.5302917957305908,0.008475505746901035
1761312009734406400,9.883406494140624,-0.17775654792785645,0.34581589698791504,-0.13148486614227295
1761312009762327800,9.911327880859375,-0.13927318155765533,-0.09338327497243881,-0.2157817929983139
1761312009780941000,9.929941162109374,-0.1588202863931656,-0.23448899388313293,-0.16691401600837708
1761312009799555600,9.9485556640625,-0.1716480851173401,-0.23204560577869415,-0.09239064902067184
1761312009818168600,9.96716845703125,-0.16798299551010132,-0.026190076023340225,-0.03436015918850899
1761312009836783000,9.985783203125,-0.1575985997915268,0.20104511082172394,0.007253811229020357
1761312009855396400,10.004396240234374,-0.10934165865182877,0.271903395652771,0.02924431301653385
1761312009874011000,10.023010986328124,-0.05497625470161438,0.22853323817253113,0.04879142343997955
1761312009892624000,10.041623779296875,0.020157959312200546,0.16928105056285858,0.1074327602982521
1761312009911238700,10.06023876953125,0.09529217332601547,0.12224581092596054,0.19050799310207367
1761312009929851600,10.0788515625,0.14660334587097168,0.12407834827899933,0.2754157483577728
1761312009948466200,10.097466064453124,0.20524467527866364,0.14484715461730957,0.35177165269851685
1761312009967079400,10.116079345703126,0.23884128034114838,0.29328304529190063,0.41652145981788635
1761312009985694000,10.13469384765625,0.23273280262947083,0.5638883709907532,0.4513397812843323
1761312010004307000,10.153306884765625,0.22723518311977386,0.7349256277084351,0.41652145981788635
1761312010022921700,10.171921630859375,0.22723518311977386,0.7074374556541443,0.3010713458061218
1761312010041534700,10.19053466796875,0.20096874237060547,0.6744517087936401,0.2124984860420227
1761312010060149200,10.209149169921876,0.19913621246814728,0.7874584794044495,0.18256697058677673
1761312010078762200,10.22776220703125,0.25411245226860046,0.8485432267189026,0.13980767130851746
1761312010097377000,10.246376953125,0.3512371778488159,1.002476692199707,0.08788564801216125
1761312010115990000,10.264989990234374,0.474017471075058,1.2218471765518188,0.03840702027082443
1761312010134604500,10.2836044921875,0.6439093947410583,1.1160943508148193,-0.051463883370161057
1761312010153217800,10.3022177734375,0.7550835609436035,0.4307236671447754,-0.2304421216249466
1761312010171832300,10.320832275390625,0.7422557473182678,-0.1862320601940155,-0.4124746024608612
1761312010190445300,10.3394453125,0.609701931476593,-0.25831204652786255,-0.46928340196609497
1761312010209060000,10.35806005859375,0.499673068523407,0.20409934222698212,-0.30130040645599365
1761312010227673000,10.376673095703126,0.45447036623954773,0.7129350900650024,-0.06734590977430344
1761312010246287600,10.39528759765625,0.5057815313339233,0.8570950627326965,0.04940227046608925
1761312010264900900,10.41390087890625,0.5442649126052856,0.7605811953544617,0.054899897426366806
1761312010283515400,10.432515380859375,0.5076140761375427,0.6982747912406921,0.04023956134915352
1761312010302128400,10.45112841796875,0.4227063059806824,0.6915554404258728,0.03779617324471474
1761312010320743200,10.4697431640625,0.3365768492221832,0.7129350900650024,0.013362283818423748
1761312010339356200,10.488356201171875,0.2651077210903168,0.7734090089797974,-0.072232685983181
1761312010357970700,10.506970703125,0.2376195788383484,0.8070055842399597,-0.21822518110275269
1761312010376584000,10.525583984375,0.2644968628883362,0.7532510161399841,-0.39109495282173157
1761312010395198500,10.544198486328124,0.38666632771492004,0.6145886778831482,-0.5224271416664124
1761312010413811500,10.5628115234375,0.5070032477378845,0.5247941613197327,-0.5590779781341553
1761312010432426200,10.58142626953125,0.5796940326690674,0.5388436317443848,-0.5102101564407349
1761312010451039200,10.600039306640625,0.60909104347229,0.5608341693878174,-0.41919392347335815
1761312010469653800,10.61865380859375,0.5705313682556152,0.5168531537055969,-0.3190149664878845
1761312010488267000,10.63726708984375,0.4734066128730774,0.4826456904411316,-0.27625566720962524
1761312010506881500,10.655881591796875,0.37322768568992615,0.4936409294605255,-0.3232909142971039
1761312010525494500,10.67449462890625,0.2993151545524597,0.4307236671447754,-0.39598172903060913
1761312010544109300,10.693109375,0.2363978922367096,0.37024980783462524,-0.4497362971305847
1761312010562722300,10.711722412109374,0.183865025639534,0.38124504685401917,-0.5004366040229797
1761312010581336800,10.7303369140625,0.19058434665203094,0.4429406225681305,-0.5346440672874451
1761312010599950000,10.7489501953125,0.2217375487089157,0.47165045142173767,-0.5297572612762451
1761312010618564600,10.767564697265625,0.2901524603366852,0.516242265701294,-0.511431872844696
1761312010637177900,10.786177734375,0.4227063059806824,0.5192965269088745,-0.3978142738342285
1761312010655792400,10.80479248046875,0.29565006494522095,0.28045526146888733,-0.03436015918850899
1761312010674405400,10.8234052734375,0.17225892841815948,0.014125842601060867,-0.001374406274408102
1761312010693020200,10.842020263671875,0.2724378705024719,0.012904148548841476,-0.18096350133419037
1761312010720940800,10.86994091796875,0.3921639323234558,0.2682383060455322,-0.4772244095802307
1761312010739554000,10.888553955078125,0.3426853120326996,0.4563792645931244,-0.5932853817939758
1761312010758168600,10.90716845703125,0.2987042963504791,0.5425087213516235,-0.6018372774124146
