time,seconds_elapsed,z,y,x
1761371027439494400,0.230494384765625,-1.1474456787109375,0.7714724540710449,0.1166067123413086
1761371027458105600,0.249105712890625,-1.1387929916381836,-0.07756376266479492,0.7910647392272949
1761371027476718300,0.26771826171875,-0.47585105895996094,-0.6939346790313721,1.2485976219177246
1761371027495329500,0.28632958984375,-0.4267845153808594,-0.34242188930511475,0.30794620513916016
1761371027513942000,0.30494189453125,-0.5923233032226562,-0.07949304580688477,0.18915367126464844
1761371027532553200,0.32355322265625,-1.4192438125610352,-0.14280319213867188,0.5266432762145996
1761371027551166000,0.342166015625,-2.774059772491455,-0.256852388381958,0.8591537475585938
1761371027569777200,0.360777099609375,-3.264664649963379,-0.0725102424621582,1.0213050842285156
1761371027588389600,0.3793896484375,-3.3139214515686035,0.07220220565795898,1.2288782596588135
1761371027607000800,0.398000732421875,-3.0789523124694824,0.18214917182922363,1.4206435680389404
1761371027625613600,0.416613525390625,-1.5963411331176758,0.7733012437820435,1.2348883152008057
1761371027644224800,0.435224853515625,-0.29753971099853516,1.3474876880645752,0.8582682609558105
1761371027662837200,0.453837158203125,-0.1643819808959961,1.0374276638031006,0.7523026466369629
1761371027681448400,0.472448486328125,-0.029741287231445312,0.7853926420211792,0.5589368343353271
1761371027700061200,0.491061279296875,-0.9079833030700684,0.3428999185562134,0.6392526626586914
1761371027718672400,0.50967236328125,-2.5290818214416504,0.6958800554275513,0.07898592948913574
1761371027737284900,0.528284912109375,-3.802309513092041,2.2607810497283936,1.040104627609253
1761371027755896000,0.54689599609375,-3.7952184677124023,0.44291532039642334,1.6403112411499023
1761371027774508800,0.5655087890625,-1.6073579788208008,0.12569284439086914,0.22085332870483398
1761371027793120000,0.5841201171875,-0.5849113464355469,-0.3691478967666626,-0.6690335273742676
1761371027811732500,0.602732421875,-1.1508784294128418,-0.690761148929596,-0.9316831827163696
1761371027830343700,0.62134375,-0.506537914276123,-0.22912925481796265,-1.1003575325012207
1761371027848956400,0.639956298828125,1.1707849502563477,0.898074746131897,-1.6196129322052002
1761371027867567600,0.658567626953125,2.4794673919677734,0.9199777245521545,-1.9041526317596436
1761371027886180400,0.677180419921875,3.5009946823120117,-0.7775160074234009,-1.4862576723098755
1761371027904791300,0.695791259765625,6.634028434753418,-2.054403781890869,-1.3828275203704834
1761371027923404000,0.714404052734375,10.87612533569336,-3.5726187229156494,-0.9529259204864502
1761371027942015200,0.73301513671875,11.551836013793945,-4.092852592468262,-0.4495421051979065
1761371027960628000,0.7516279296875,8.24069595336914,-2.5316898822784424,1.0822157859802246
1761371027979239200,0.7702392578125,5.700551986694336,-1.0488148927688599,3.0193932056427
1761371027997851600,0.7888515625,5.581077575683594,-0.8965306282043457,0.75965815782547
1761371028016462800,0.807462890625,5.929446220397949,-1.9772632122039795,-0.5307148694992065
1761371028035075600,0.82607568359375,7.121555328369141,-2.382538080215454,-2.1916422843933105
1761371028053686800,0.844686767578125,6.8110504150390625,-2.173074722290039,-2.233565330505371
1761371028072299500,0.863299560546875,4.332608222961426,-0.6314499378204346,-0.13124631345272064
1761371028090910500,0.881910400390625,0.3032054901123047,1.132063627243042,1.9836976528167725
1761371028109523200,0.900523193359375,-2.8277807235717773,2.700645685195923,3.791041135787964
1761371028128134400,0.919134521484375,-3.1026716232299805,3.6530940532684326,3.6424834728240967
1761371028146747100,0.9377470703125,-2.9400153160095215,3.383392810821533,1.9831846952438354
1761371028165358300,0.9563583984375,-3.660208225250244,3.0726318359375,-0.18839819729328156
1761371028183970800,0.974970703125,-3.6071128845214844,3.00419282913208,-1.433059811592102
1761371028202582000,0.99358203125,-3.3387084007263184,2.4699840545654297,-1.7377159595489502
1761371028221194800,1.01219482421875,-3.7921385765075684,1.7111823558807373,-2.238206624984741
1761371028239806000,1.030805908203125,-4.305619239807129,1.5965837240219116,-3.157397747039795
1761371028258418700,1.049418701171875,-4.875694751739502,1.3035625219345093,-3.2410192489624023
1761371028277029600,1.068029541015625,-5.672852039337158,0.9827297925949097,-3.228344440460205
1761371028295642400,1.086642333984375,-6.555599212646484,1.0297843217849731,-3.282838821411133
1761371028314253600,1.105253662109375,-6.860413551330566,1.1558046340942383,-3.6433629989624023
1761371028332866300,1.1238662109375,-5.963045120239258,1.2688076496124268,-3.613563060760498
1761371028351477500,1.1424775390625,-4.799911022186279,1.144498586654663,-2.940463066101074
1761371028370090000,1.161090087890625,-3.63608980178833,0.956513524055481,-2.359447479248047
1761371028388701200,1.179701171875,-0.5777683258056641,0.1675916314125061,-2.344663381576538
1761371028407314000,1.19831396484375,3.2580814361572266,-0.7347975969314575,-2.7318289279937744
1761371028425925000,1.216925048828125,4.4761962890625,-1.7966314554214478,-3.684715986251831
1761371028444537900,1.235537841796875,3.8293018341064453,-1.6469275951385498,-4.068414688110352
1761371028463149000,1.254149169921875,3.776365280151367,-1.0579915046691895,-2.706179141998291
1761371028481761500,1.272761474609375,4.344760894775391,-0.2531062960624695,-1.3188618421554565
1761371028500372700,1.291372802734375,3.8743629455566406,0.5880088806152344,-0.07443243265151978
1761371028518985500,1.3099853515625,5.057170867919922,0.9785686731338501,-0.3965629041194916
1761371028537596700,1.3285966796875,7.331179618835449,0.19452786445617676,-0.01606045663356781
1761371028556209400,1.34720947265625,8.877431869506836,-1.4953100681304932,0.9736905097961426
1761371028574820400,1.3658203125,9.437931060791016,-2.9754419326782227,0.705634593963623
1761371028593433000,1.38443310546875,9.421686172485352,-3.2272582054138184,0.4395761489868164
1761371028612044300,1.403044189453125,7.65583610534668,-2.283519744873047,1.4904687404632568
1761371028630657000,1.421656982421875,3.2791500091552734,-0.6784385442733765,2.0367414951324463
1761371028649268200,1.440268310546875,-2.049496650695801,0.710902214050293,1.8302255868911743
1761371028667880700,1.458880615234375,-5.907639026641846,1.5488128662109375,1.7868425846099854
1761371028686492000,1.477491943359375,-6.636070251464844,1.2434289455413818,2.1581363677978516
1761371028705104600,1.496104736328125,-4.820784568786621,0.9913276433944702,1.8225667476654053
1761371028723715800,1.5147158203125,-3.5759363174438477,1.14799165725708,1.1475911140441895
1761371028742328600,1.53332861328125,-3.5250887870788574,1.8175499439239502,0.5746508836746216
1761371028760939800,1.551939697265625,-3.841278076171875,2.479562520980835,-0.10737097263336182
1761371028779552300,1.57055224609375,-3.57863712310791,3.122952938079834,-0.7400331497192383
1761371028798163500,1.58916357421875,-3.207718849182129,3.3506176471710205,-1.053397536277771
1761371028816776200,1.607776123046875,-2.946457862854004,3.3406901359558105,-0.9372663497924805
1761371028835387400,1.626387451171875,-3.2635979652404785,3.320183753967285,-0.18215733766555786
1761371028854000000,1.645000244140625,-3.787764072418213,3.447822332382202,0.7236784100532532
1761371028872611300,1.663611328125,-4.414772987365723,3.0840046405792236,0.8795543909072876
1761371028891224000,1.68222412109375,-5.565548896789551,3.3710408210754395,0.9547646045684814
1761371028909835000,1.7008349609375,-6.802420139312744,3.2809555530548096,0.547600507736206
1761371028928447700,1.71944775390625,-5.738961219787598,3.3323092460632324,-0.1601993441581726
1761371028947059000,1.738058837890625,-3.2501907348632812,3.4266467094421387,0.05426718294620514
1761371028965671700,1.756671630859375,-1.1356487274169922,2.201232433319092,1.1318384408950806
1761371028984283000,1.775282958984375,0.19935226440429688,1.3021605014801025,1.1109020709991455
1761371029002895600,1.7938955078125,1.5415334701538086,1.1696271896362305,0.038908928632736206
1761371029021506600,1.812506591796875,3.615427017211914,-0.34182679653167725,1.17389714717865
1761371029040119300,1.831119384765625,6.227231025695801,-3.0459609031677246,1.8541996479034424
1761371029058730500,1.84973046875,7.943996429443359,-4.686712265014648,-1.1384029388427734
1761371029077343200,1.86834326171875,8.50369930267334,-5.017553329467773,-2.6466422080993652
1761371029095954400,1.886954345703125,7.836357116699219,-5.601580619812012,1.4661234617233276
1761371029114567200,1.905567138671875,8.205044746398926,-5.405190467834473,3.053997755050659
1761371029133178000,1.92417822265625,5.289241790771484,-3.837078094482422,0.3684752583503723
1761371029151790800,1.942790771484375,0.40830516815185547,-2.454169273376465,-0.548626720905304
1761371029170402000,1.961402099609375,-0.9517240524291992,-0.5696625709533691,0.6816122531890869
1761371029189014800,1.980014892578125,-0.7737512588500977,-1.8911523818969727,3.24100923538208
1761371029207626000,1.9986259765625,0.7560596466064453,-2.368208646774292,4.176651477813721
1761371029226238700,2.01723876953125,0.9635391235351562,0.23311805725097656,1.9401841163635254
1761371029244850000,2.035849853515625,-0.1849374771118164,1.571969985961914,0.08441708981990814
1761371029263462400,2.05446240234375,-0.3095273971557617,2.799649715423584,-1.005354881286621
1761371029282073600,2.073073486328125,-0.6706829071044922,2.9239373207092285,-2.178891897201538
1761371029300686300,2.091686279296875,-1.8109946250915527,3.5523762702941895,-3.4601619243621826
1761371029319297500,2.110297607421875,-3.6800293922424316,4.026856899261475,-3.069434881210327
1761371029337910300,2.12891015625,-4.062118053436279,5.363238334655762,-2.2756285667419434
1761371029356521500,2.147521484375,-4.274381637573242,5.268971920013428,-0.16719448566436768
1761371029375134000,2.166134033203125,-3.680403709411621,5.117144584655762,0.217612624168396
1761371029393745200,2.1847451171875,-2.739159107208252,4.365265369415283,0.028570353984832764
1761371029412358000,2.20335791015625,-2.008608818054199,3.3777573108673096,-0.5903351902961731
1761371029430969000,2.221968994140625,-1.180251121520996,2.544361114501953,-1.1345622539520264
1761371029449581800,2.240581787109375,-0.6898622512817383,1.9192081689834595,-1.5082104206085205
1761371029468193000,2.259193115234375,-0.55877685546875,1.6458418369293213,-0.5192229151725769
1761371029486805800,2.2778056640625,-0.2039623260498047,0.6799812316894531,0.6821642518043518
1761371029505416700,2.296416748046875,0.5099153518676758,-0.7477407455444336,0.38993632793426514
1761371029524029400,2.315029541015625,1.4572057723999023,-2.9628143310546875,-0.11774319410324097
1761371029542640600,2.333640625,2.7148637771606445,-4.602606296539307,-0.9175967574119568
1761371029561253400,2.35225341796875,4.661439895629883,-6.013656139373779,-1.1427922248840332
1761371029579864600,2.370864501953125,7.108406066894531,-5.252495288848877,-2.1119120121002197
1761371029598477300,2.389477294921875,8.904930114746094,-4.645648956298828,1.0972074270248413
1761371029617088500,2.408088623046875,7.586318016052246,-4.226757049560547,5.842095375061035
1761371029635701200,2.426701171875,7.036447525024414,-4.694674015045166,4.197179317474365
1761371029654312200,2.445312255859375,8.431422233581543,-3.021541118621826,1.2199022769927979
1761371029672925000,2.463925048828125,6.653658866882324,-0.32163095474243164,1.9844403266906738
1761371029691536100,2.4825361328125,3.1732330322265625,-0.0066564083099365234,1.5932528972625732
1761371029710148900,2.50114892578125,2.6429548263549805,-0.3320882320404053,-3.2205564975738525
1761371029728760000,2.519760009765625,2.7302160263061523,0.3303079605102539,-6.7867817878723145
1761371029747372800,2.538372802734375,1.9855480194091797,0.7821347713470459,-4.818450927734375
1761371029765984000,2.55698388671875,0.46856689453125,1.683509111404419,-2.74839186668396
1761371029784596500,2.575596435546875,-3.611562728881836,2.0601978302001953,-1.8318119049072266
1761371029803207700,2.594207763671875,-7.573050498962402,3.1241583824157715,-2.7636501789093018
1761371029821820400,2.6128203125,-8.812731742858887,3.400480031967163,-2.691147804260254
1761371029840431600,2.631431640625,-7.221162796020508,3.18835186958313,-0.643107533454895
1761371029859044400,2.65004443359375,-3.8730859756469727,2.2170968055725098,1.7721096277236938
1761371029877655600,2.668655517578125,-1.7317085266113281,1.292181372642517,1.5249779224395752
1761371029896268300,2.687268310546875,-3.231614112854004,0.2645113468170166,-0.12546271085739136
1761371029914879500,2.70587939453125,-3.1392736434936523,-0.8277572393417358,-1.058701992034912
1761371029933492000,2.724491943359375,-3.6337075233459473,-1.4832117557525635,0.18089699745178223
1761371029952103200,2.743103271484375,-4.48253870010376,-1.501670002937317,2.0746042728424072
1761371029970716000,2.7617158203125,-4.703239917755127,-1.833348035812378,1.8168553113937378
1761371029989327000,2.7803271484375,-3.710097312927246,-2.16568660736084,0.850899338722229
1761371030007939800,2.79893994140625,-2.795572280883789,-2.4399919509887695,0.7779077291488647
1761371030026551000,2.817551025390625,-2.1930713653564453,-2.0783801078796387,0.3819526433944702
1761371030045163500,2.83616357421875,-0.8615942001342773,-1.2770071029663086,-0.054097533226013184
1761371030063774700,2.854774658203125,1.2667531967163086,-2.183161735534668,-0.3736788034439087
1761371030082387500,2.873387451171875,5.843456268310547,-1.9765291213989258,-1.687596321105957
1761371030100998700,2.89199853515625,7.9458770751953125,-1.7004501819610596,-0.6083395481109619
1761371030119611400,2.910611328125,6.444994926452637,-0.6117713451385498,1.631056785583496
1761371030138222600,2.92922265625,2.5864667892456055,0.599820613861084,1.8522286415100098
1761371030156835300,2.94783544921875,-2.9692177772521973,-0.13796067237854004,-0.21637868881225586
1761371030175446500,2.966446533203125,-6.0704193115234375,-0.16781234741210938,-0.39121437072753906
1761371030194059300,2.985059326171875,-5.297214508056641,-0.2571296691894531,3.832902431488037
1761371030212670200,3.003670166015625,-1.2649555206298828,-1.8090157508850098,6.83310604095459
1761371030231283000,3.022282958984375,5.724401473999023,-1.8585020303726196,2.545607566833496
1761371030249894100,3.04089404296875,6.655506134033203,-0.9742250442504883,-2.0737099647521973
1761371030268507000,3.0595068359375,2.3409481048583984,-0.3981935977935791,-2.678178071975708
1761371030287118000,3.0781181640625,-0.37836742401123047,1.3327322006225586,-2.407773494720459
1761371030305730800,3.096730712890625,-0.771611213684082,2.5107829570770264,-1.275031328201294
1761371030324342000,3.115342041015625,-0.11208248138427734,3.204328775405884,-1.0185813903808594
1761371030342954500,3.13395458984375,0.6016778945922852,3.0768234729766846,-1.2457160949707031
1761371030361565700,3.152565673828125,0.7793436050415039,2.603032350540161,-1.5366508960723877
1761371030380178400,3.171178466796875,-0.7132482528686523,2.1423699855804443,-2.0448505878448486
1761371030398789600,3.18978955078125,-2.3484745025634766,1.6827729940414429,-2.456949234008789
1761371030417402400,3.20840234375,-3.1470112800598145,1.2547175884246826,-2.5014114379882812
1761371030436013600,3.227013671875,-3.4016523361206055,0.5216389894485474,-2.037006378173828
1761371030454626300,3.245626220703125,-3.8432459831237793,0.034259915351867676,-1.263199806213379
1761371030473237500,3.264237548828125,-3.922947406768799,-0.20553863048553467,-0.20517659187316895
1761371030491850000,3.28285009765625,-3.3153834342956543,-0.4331183433532715,0.7469503879547119
1761371030510461200,3.301461181640625,-2.1531100273132324,-0.48487091064453125,2.2642977237701416
1761371030529074000,3.320073974609375,0.33959197998046875,1.0124175548553467,3.9201817512512207
1761371030547685000,3.33868505859375,2.495223045349121,1.0749592781066895,5.314335346221924
1761371030566297900,3.3572978515625,3.489323616027832,-1.5390442609786987,5.1747565269470215
1761371030584909000,3.375908935546875,4.344160079956055,-2.4875149726867676,1.5303053855895996
1761371030603521800,3.394521728515625,3.4770946502685547,-2.3287901878356934,-1.1788794994354248
1761371030622133000,3.413133056640625,3.238321304321289,-2.176152229309082,-0.7934472560882568
1761371030640745700,3.431745849609375,4.75831413269043,-2.666581630706787,1.1618869304656982
1761371030659357000,3.45035693359375,6.108488082885742,-2.5276389122009277,1.4052083492279053
1761371030677969400,3.468969482421875,4.434624671936035,-1.8201435804367065,0.7302558422088623
1761371030696580600,3.48758056640625,2.3374738693237305,-0.9987590312957764,0.6570591926574707
1761371030715193300,3.506193359375,1.7169475555419922,-0.2721189260482788,1.0157017707824707
1761371030733804500,3.524804443359375,0.9785947799682617,0.11211162805557251,0.10726022720336914
1761371030752417300,3.543417236328125,0.06412029266357422,0.36398762464523315,-1.7457125186920166
1761371030771028500,3.562028564453125,-0.2520103454589844,0.806623101234436,-2.997791290283203
1761371030789641200,3.58064111328125,0.5489788055419922,1.1845073699951172,-2.7564406394958496
1761371030808252200,3.599252197265625,0.8699808120727539,1.5782253742218018,-2.419389247894287
1761371030826865000,3.617864990234375,0.6108512878417969,1.5344758033752441,-2.210150718688965
1761371030845476000,3.63647607421875,-0.2104053497314453,1.2817167043685913,-1.9486140012741089
1761371030864088800,3.6550888671875,-1.8347315788269043,0.7521936893463135,-0.939612865447998
1761371030882700000,3.673699951171875,-3.5151214599609375,0.20787954330444336,-0.10896492004394531
1761371030901312800,3.692312744140625,-5.423327445983887,-0.15340793132781982,0.20426368713378906
1761371030919924000,3.710924072265625,-6.4315690994262695,-0.4490107297897339,0.02266073226928711
1761371030938536700,3.72953662109375,-6.233792304992676,-1.147822380065918,0.42237186431884766
1761371030957148000,3.74814794921875,-5.232495307922363,-1.2289743423461914,0.8388290405273438
1761371030975760400,3.766760498046875,-4.172906398773193,-1.1468082666397095,0.6446084976196289
1761371030994371600,3.78537158203125,-2.518846035003662,-0.87673020362854,0.12772846221923828
1761371031012984300,3.803984375,-0.22012615203857422,-0.5484983921051025,0.15466976165771484
1761371031031595500,3.822595458984375,2.1003780364990234,0.42874813079833984,1.0317044258117676
1761371031050208300,3.841208251953125,3.7211122512817383,0.9679036140441895,2.8025169372558594
1761371031068819500,3.8598193359375,4.616664886474609,1.025712490081787,4.05455207824707
1761371031087432200,3.87843212890625,4.648969650268555,2.403294563293457,2.6016769409179688
1761371031106043400,3.89704345703125,3.627406597137451,2.6558761596679688,2.4848952293395996
1761371031124655900,3.91565576171875,4.644159317016602,2.1362218856811523,4.814944267272949
1761371031143267000,3.93426708984375,6.892880439758301,0.03286385536193848,6.462996959686279
1761371031161879800,3.9528798828125,6.050640106201172,-0.6640132665634155,4.001397609710693
1761371031180491000,3.971490966796875,2.29971981048584,-0.25598573684692383,-0.0830087661743164
1761371031199103700,3.990103759765625,-0.30703163146972656,0.493776798248291,-2.905235767364502
1761371031217715000,4.00871484375,-1.2191991806030273,0.9280046224594116,-3.2544772624969482
1761371031236327700,4.02732763671875,-1.4212799072265625,1.5950807332992554,-2.323784351348877
1761371031254939000,4.04593896484375,-1.8608078956604004,1.9846746921539307,-1.4876248836517334
1761371031273551600,4.064551513671875,-1.9961929321289062,2.0546534061431885,-1.843118667602539
1761371031292162800,4.083162841796875,-1.9632062911987305,2.078695297241211,-2.7595624923706055
1761371031310775300,4.101775390625,-2.7562785148620605,1.9456006288528442,-3.8856749534606934
1761371031329386500,4.120386474609375,-3.7398033142089844,2.0298500061035156,-4.00509786605835
1761371031347999200,4.138999267578125,-4.246212005615234,2.177218198776245,-2.688077926635742
1761371031366610400,4.1576103515625,-3.742253303527832,1.9856616258621216,-1.8801162242889404
1761371031385223200,4.17622314453125,-3.7613558769226074,1.0769352912902832,-0.7650353908538818
1761371031403834400,4.19483447265625,-3.567265033721924,-0.06084012985229492,0.27600526809692383
1761371031422446800,4.21344677734375,-2.947478771209717,-0.9667999744415283,0.6924920082092285
1761371031441058000,4.23205810546875,-1.7435016632080078,-1.4756361246109009,1.0581326484680176
1761371031459670800,4.2506708984375,-0.6658892631530762,-1.7347627878189087,1.3480453491210938
1761371031478282000,4.269281982421875,-0.1691761016845703,-1.9479076862335205,1.7118892669677734
1761371031496894700,4.287894775390625,0.8547945022583008,-2.610239028930664,1.9970784187316895
1761371031515506000,4.306505859375,3.062650203704834,-3.1806719303131104,2.7524008750915527
1761371031534118700,4.32511865234375,6.514782428741455,-0.48248720169067383,0.8986032009124756
1761371031552729900,4.343729736328125,5.716725826263428,-0.4244837760925293,1.177797555923462
1761371031571342600,4.362342529296875,3.9086713790893555,1.4239654541015625,-1.5307807922363281
1761371031589953800,4.380953857421875,2.4894700050354004,2.7551021575927734,-3.663785219192505
1761371031608566300,4.399566162109375,1.1081876754760742,2.88511323928833,-1.76938796043396
1761371031627177500,4.418177490234375,-1.1122522354125977,0.9206914901733398,1.3379054069519043
1761371031645790200,4.436790283203125,-2.723782539367676,-1.0619750022888184,0.9747700691223145
1761371031664401400,4.4554013671875,-2.796231746673584,-1.7239103317260742,0.44873666763305664
1761371031683014100,4.47401416015625,-1.315969467163086,-1.4167757034301758,1.2610740661621094
1761371031701625300,4.492625244140625,-0.530308723449707,-0.8276615142822266,2.0798168182373047
1761371031720238000,4.511238037109375,0.22173500061035156,-0.5945625305175781,3.3386683464050293
1761371031738849300,4.529849365234375,0.8779458999633789,-0.6720764636993408,3.5586695671081543
1761371031757461800,4.548461669921875,1.910670280456543,-0.3998466730117798,0.47429561614990234
1761371031776073000,4.567072998046875,2.502621650695801,-0.3529353141784668,-2.357325792312622
1761371031794685700,4.585685791015625,1.8284215927124023,-0.09556186199188232,-3.0151047706604004
1761371031813297000,4.604296875,0.27655029296875,0.2368617057800293,-2.2150838375091553
1761371031831909600,4.62290966796875,-1.3792948722839355,0.38444972038269043,-0.7818315029144287
1761371031850520800,4.641520751953125,-2.883790969848633,0.5557527542114258,0.10508322715759277
1761371031869133600,4.660133544921875,-3.6959786415100098,0.6493561267852783,0.22205162048339844
1761371031887744800,4.678744873046875,-3.7848315238952637,0.09305596351623535,0.5475020408630371
1761371031906357500,4.697357421875,-2.3668975830078125,-0.6824297904968262,1.2281808853149414
1761371031924968700,4.71596875,-0.6676883697509766,-1.2797386646270752,1.9841818809509277
1761371031943581200,4.734581298828125,-0.3710365295410156,-1.4951214790344238,2.255872964859009
1761371031962192400,4.7531923828125,-0.4713473320007324,-1.6090495586395264,2.4313900470733643
1761371031980805000,4.77180517578125,1.5224838256835938,-0.591392993927002,3.588183641433716
1761371031999416300,4.790416259765625,2.689816474914551,1.041886806488037,2.2477240562438965
1761371032018029000,4.809029052734375,4.343826770782471,1.7983784675598145,1.1147356033325195
1761371032036640300,4.82764013671875,4.9163126945495605,1.987001895904541,0.23009467124938965
1761371032055252700,4.846252685546875,4.070826530456543,3.4509401321411133,-1.4167481660842896
1761371032073864000,4.864864013671875,3.2345285415649414,4.8138556480407715,-2.0530266761779785
1761371032092476700,4.8834765625,2.1580123901367188,4.371706962585449,-0.770042896270752
1761371032111087900,4.902087890625,1.6488056182861328,3.1424174308776855,0.05042457580566406
1761371032129700600,4.92070068359375,0.8078413009643555,0.44971704483032227,0.5875751972198486
1761371032148311800,4.939311767578125,-0.1886911392211914,-1.7157933712005615,0.6539632081985474
1761371032166924500,4.957924560546875,0.7386531829833984,-1.4523625373840332,-0.5488643050193787
1761371032185535700,4.97653564453125,2.051647186279297,-0.9262509346008301,-0.43428194522857666
1761371032204148500,4.9951484375,2.062495231628418,-1.2418606281280518,0.8621982336044312
1761371032222759700,5.013759765625,1.1568517684936523,-1.5894633531570435,1.3786499500274658
1761371032241372200,5.0323720703125,-1.452502727508545,-2.34615159034729,0.7340729236602783
1761371032259983400,5.0509833984375,-4.3972978591918945,-2.8412821292877197,-0.327640175819397
1761371032278596000,5.06959619140625,-6.525404930114746,-2.8533968925476074,-1.0105679035186768
1761371032297207300,5.088207275390625,-7.373932838439941,-3.191318988800049,-1.301182508468628
1761371032315820000,5.106820068359375,-7.289634704589844,-2.8744404315948486,-1.7381452322006226
1761371032334431200,5.12543115234375,-6.976750373840332,-2.496506929397583,-1.8492975234985352
1761371032353044000,5.1440439453125,-6.607810020446777,-2.551137924194336,-1.81924307346344
1761371032371655200,5.1626552734375,-6.040186882019043,-2.906522274017334,-0.8529594540596008
1761371032390267600,5.181267578125,-3.879345178604126,-3.5515568256378174,0.04111599922180176
1761371032408878800,5.19987890625,-1.3853559494018555,-3.995473861694336,0.7088333368301392
1761371032427491600,5.21849169921875,-0.14756536483764648,-3.584110736846924,0.10789215564727783
1761371032446102800,5.237102783203125,1.5037693977355957,-1.5266084671020508,-1.2724344730377197
1761371032464715500,5.255715576171875,3.4985408782958984,0.5700383186340332,-2.6085963249206543
1761371032483326700,5.27432666015625,4.726119518280029,1.4220638275146484,-2.3219096660614014
1761371032501939500,5.292939453125,5.041901111602783,3.4043545722961426,-0.8100636601448059
1761371032520550700,5.311550537109375,3.923220634460449,5.0202813148498535,1.2362751960754395
1761371032539163400,5.330163330078125,2.4432930946350098,6.077996253967285,1.707697868347168
1761371032557774600,5.348774658203125,1.2335920333862305,7.330721378326416,1.2583436965942383
1761371032576387000,5.367386962890625,2.6066555976867676,8.895233154296875,0.4049544334411621
1761371032594998300,5.385998291015625,2.7475204467773438,6.387556076049805,3.1010189056396484
1761371032613611000,5.404611083984375,2.3678741455078125,2.3564162254333496,5.300320625305176
1761371032632222200,5.42322216796875,1.286870002746582,-0.9024350643157959,4.351736068725586
1761371032650835000,5.4418349609375,0.2881584167480469,-2.7280850410461426,3.2856600284576416
1761371032669446100,5.460446044921875,1.1105890274047852,-0.8502249717712402,0.9253568649291992
1761371032688059000,5.479058837890625,0.3451261520385742,-0.17711234092712402,-0.27817463874816895
1761371032706670000,5.497670166015625,-0.9824562072753906,-0.045205116271972656,-0.6084897518157959
1761371032725282800,5.51628271484375,-2.239940643310547,0.12962627410888672,-1.58779776096344
1761371032743893800,5.534893798828125,-3.2474374771118164,-0.11292314529418945,-2.4625701904296875
1761371032762506500,5.553506591796875,-3.7191901206970215,-0.6545760631561279,-2.5699832439422607
1761371032781117700,5.57211767578125,-4.121654510498047,-1.318140983581543,-2.414293050765991
1761371032799730400,5.59073046875,-4.286064624786377,-1.7419334650039673,-1.951043963432312
1761371032818341600,5.609341552734375,-4.404110431671143,-2.317070484161377,-1.1485539674758911
1761371032836954400,5.627954345703125,-4.4660162925720215,-2.72908616065979,-0.7138110399246216
1761371032855565600,5.646565673828125,-4.534570217132568,-3.2129173278808594,-0.6472464799880981
1761371032874178300,5.66517822265625,-4.596073150634766,-3.619835138320923,-0.4587399959564209
1761371032892789200,5.683789306640625,-4.291901588439941,-3.855776071548462,-0.19321990013122559
1761371032911402000,5.702402099609375,-3.176055908203125,-3.70808744430542,-0.024446606636047363
1761371032930013200,5.72101318359375,-2.2759509086608887,-3.229463577270508,-0.7750150561332703
1761371032948626000,5.7396259765625,-1.161674976348877,-2.233084201812744,-2.1796088218688965
1761371032967237000,5.758237060546875,1.0646624565124512,-0.5682563781738281,-3.1555700302124023
1761371032985849900,5.776849853515625,5.654801845550537,2.450831890106201,-3.942721366882324
1761371033004461000,5.7954609375,8.851030349731445,2.1972599029541016,-0.4298053979873657
1761371033023073800,5.81407373046875,10.006637573242188,1.615269660949707,2.29923677444458
1761371033041685000,5.83268505859375,8.754619598388672,3.90006160736084,0.9282758235931396
1761371033060297700,5.851297607421875,4.772314071655273,5.387718200683594,1.148987054824829
1761371033078909000,5.869908935546875,1.7555537223815918,7.222072124481201,2.4212615489959717
1761371033097521700,5.888521728515625,-1.3887014389038086,4.504927635192871,4.061046123504639
1761371033116132900,5.9071328125,-1.6417922973632812,0.6375417709350586,2.624485492706299
1761371033134745300,5.925745361328125,1.5689029693603516,0.41790199279785156,-0.17027997970581055
1761371033153356500,5.9443564453125,3.552919387817383,0.9800028800964355,1.3776435852050781
1761371033171969300,5.96296923828125,2.700956344604492,1.5290727615356445,3.7054097652435303
1761371033190580500,5.98158056640625,-0.4144144058227539,1.2725958824157715,3.2825100421905518
1761371033209193200,6.000193115234375,-3.947404384613037,0.3716444969177246,0.680809497833252
1761371033227804400,6.018804443359375,-5.491321563720703,0.7453083992004395,-2.241724729537964
1761371033255722200,6.04672216796875,-4.77242374420166,0.5047636032104492,-1.8027303218841553
1761371033274335000,6.0653349609375,-3.2984156608581543,0.11878108978271484,0.18382740020751953
1761371033292946200,6.0839462890625,-2.6161603927612305,-0.5430145263671875,1.5220575332641602
1761371033311559000,6.102558837890625,-3.178590774536133,-1.4829626083374023,1.4417777061462402
1761371033330170000,6.121170166015625,-4.440164566040039,-1.7586462497711182,0.16105031967163086
1761371033348782800,6.139782958984375,-5.383857727050781,-2.120177984237671,-0.9179546236991882
1761371033367394000,6.15839404296875,-4.718471527099609,-2.3030238151550293,-1.7056450843811035
1761371033386006800,6.1770068359375,-3.60260009765625,-2.276665687561035,-1.2899490594863892
1761371033404618000,6.195617919921875,-1.419968605041504,-1.9250411987304688,0.15565884113311768
1761371033423230700,6.214230712890625,-0.059012413024902344,-1.1894545555114746,1.3269686698913574
1761371033441842000,6.232842041015625,0.6691775321960449,-0.0472111701965332,0.17351973056793213
1761371033460454700,6.25145458984375,2.0312271118164062,0.843233585357666,-2.360448122024536
1761371033479065600,6.270065673828125,4.658107757568359,2.3021326065063477,-3.146414041519165
1761371033497678600,6.2886787109375,5.822686195373535,2.794145107269287,-1.8152494430541992
1761371033516289500,6.30728955078125,5.013935089111328,3.0864572525024414,-0.29650288820266724
1761371033534902300,6.32590234375,3.8572945594787598,5.201357364654541,-0.6343575119972229
1761371033553513500,6.344513427734375,1.2408347129821777,5.317368984222412,0.5189492702484131
1761371033572126200,6.363126220703125,-0.35474252700805664,4.001136779785156,1.5763477087020874
1761371033590737400,6.3817373046875,0.004117488861083984,0.49941349029541016,1.2478699684143066
1761371033609350100,6.40035009765625,1.6201791763305664,-2.577731132507324,0.9714633226394653
1761371033627961300,6.41896142578125,4.063261985778809,-1.8770060539245605,1.7774871587753296
1761371033646574000,6.437573974609375,4.999544143676758,-0.8088617324829102,2.888619899749756
1761371033665185300,6.456185302734375,2.725834846496582,-0.7006001472473145,3.451496124267578
1761371033683798000,6.474798095703125,-0.21264934539794922,-1.3763670921325684,1.4816697835922241
1761371033702409200,6.4934091796875,-0.8277478218078613,-1.597578525543213,-1.6684211492538452
1761371033721022000,6.51202197265625,-1.9752283096313477,-1.5992193222045898,-1.6424587965011597
1761371033739633000,6.5306328125,-3.554877758026123,-0.16214370727539062,-1.9845718145370483
1761371033758246000,6.549245849609375,-3.800772190093994,-0.47684144973754883,-0.6817505359649658
1761371033776856800,6.56785693359375,-3.4755024909973145,-1.0178756713867188,-0.01947033405303955
1761371033795469600,6.586469482421875,-3.361384868621826,-1.5466833114624023,0.5641670227050781
1761371033814080800,6.605080810546875,-3.514930248260498,-2.1851534843444824,0.11681056022644043
1761371033832693500,6.623693603515625,-3.092165946960449,-2.701672315597534,-1.050787091255188
1761371033851304700,6.6423046875,-2.1572041511535645,-2.9159181118011475,-1.7139016389846802
1761371033869917400,6.66091748046875,-0.8007326126098633,-2.988025426864624,-0.8347381353378296
1761371033888528600,6.679528564453125,-1.1029119491577148,-3.266188144683838,0.5175462961196899
1761371033907141400,6.698141357421875,-2.4165124893188477,-2.565995931625366,0.38316428661346436
1761371033925752600,6.716752685546875,-1.5258870124816895,-1.1576662063598633,-0.8610259294509888
1761371033944365300,6.735365234375,0.49988651275634766,-0.16810321807861328,-1.1235945224761963
1761371033962976500,6.7539765625,1.534764289855957,0.6638317108154297,-0.6573411822319031
1761371033981589200,6.77258935546875,3.279024600982666,2.1701712608337402,-0.04254800081253052
1761371034000200400,6.791200439453125,5.098415851593018,3.2956337928771973,1.1117494106292725
1761371034018813200,6.809813232421875,3.878117561340332,3.315164089202881,0.4118998348712921
1761371034037424400,6.82842431640625,1.4679250717163086,4.0234785079956055,-0.7187445759773254
1761371034056037000,6.847037109375,0.9232802391052246,6.36472749710083,-1.5275399684906006
1761371034074648000,6.86564794921875,1.6562628746032715,5.8740410804748535,0.29832422733306885
1761371034093260800,6.8842607421875,1.4957256317138672,0.6438674926757812,4.627998352050781
1761371034111872000,6.9028720703125,2.116758346557617,-1.7194607257843018,3.4372055530548096
1761371034130485000,6.921485107421875,2.2102060317993164,-3.523817539215088,2.338684558868408
1761371034149096000,6.940095947265625,2.8621129989624023,-1.4042673110961914,1.1586416959762573
1761371034167708700,6.958708740234375,1.842188835144043,0.09210348129272461,1.819778323173523
1761371034186320000,6.97731982421875,-0.37217235565185547,0.5974452495574951,2.2226529121398926
1761371034204932600,6.9959326171875,-1.697983741760254,0.9916603565216064,0.8801889419555664
1761371034223543800,7.014543701171875,-2.7333526611328125,1.0207655429840088,-0.6967428922653198
1761371034242156500,7.033156494140625,-3.7767996788024902,0.603410005569458,-1.1711610555648804
1761371034260767700,7.051767822265625,-4.6530303955078125,-0.09742927551269531,-1.2422962188720703
1761371034279380500,7.07038037109375,-5.286591529846191,-0.5520415306091309,-1.3157285451889038
1761371034297991700,7.08899169921875,-5.645204544067383,-1.0122058391571045,-1.0778132677078247
1761371034316604400,7.1076044921875,-5.5199995040893555,-1.1512832641601562,-1.0313429832458496
1761371034335215600,7.126215576171875,-4.858416557312012,-1.4096450805664062,-1.557572841644287
1761371034353828400,7.144828369140625,-4.065118789672852,-2.0225300788879395,-1.0129767656326294
1761371034372439600,7.163439453125,-2.9827113151550293,-2.2328314781188965,-0.0638229250907898
1761371034391052300,7.18205224609375,-1.8175292015075684,-1.6258575916290283,0.5374292135238647
1761371034409663500,7.20066357421875,-0.9952797889709473,-0.7820277214050293,0.3973070979118347
1761371034428276200,7.219276123046875,-0.39696693420410156,0.11270713806152344,-0.2048702836036682
1761371034446887400,7.237887451171875,1.289247989654541,1.0513572692871094,-0.7744543552398682
1761371034465500200,7.256500244140625,4.382229328155518,1.5565571784973145,-0.29268401861190796
1761371034484111400,7.275111328125,5.905206203460693,0.3506007194519043,0.7559055089950562
1761371034502724000,7.29372412109375,6.287908554077148,1.6109538078308105,-0.7676652669906616
1761371034521335300,7.312335205078125,4.722755432128906,3.9404258728027344,-1.9801292419433594
1761371034539948000,7.330947998046875,3.15177059173584,5.256837844848633,-1.324292540550232
1761371034558559200,7.349559326171875,3.216118812561035,3.048391819000244,1.9609489440917969
1761371034577172000,7.368171875,4.330641746520996,-0.7316980361938477,3.816411018371582
1761371034595783200,7.386783203125,5.369372367858887,-2.0567121505737305,3.1805148124694824
1761371034614396000,7.40539599609375,5.473701477050781,-1.0773308277130127,1.146620512008667
1761371034633006800,7.4240068359375,3.649341583251953,0.006780147552490234,-0.02123558521270752
1761371034651619800,7.442619873046875,0.624608039855957,0.5554466247558594,0.031063556671142578
1761371034670231000,7.46123095703125,-2.669417381286621,0.4774799346923828,-0.3348974585533142
1761371034688843800,7.47984375,-4.540561676025391,0.955132246017456,-0.5566815733909607
1761371034707454700,7.498454833984375,-4.808897018432617,0.7788910865783691,-0.923393964767456
1761371034726067700,7.517067626953125,-3.677143096923828,0.6748933792114258,-1.8529435396194458
1761371034744679000,7.535678955078125,-2.5419445037841797,0.2845592498779297,-2.0136237144470215
1761371034763291600,7.554291748046875,-2.717082977294922,-1.0014312267303467,-1.1554549932479858
1761371034781902600,7.572902587890625,-3.2545337677001953,-1.8152782917022705,-1.4898573160171509
1761371034800515600,7.591515625,-3.4895243644714355,-1.596376657485962,-1.614234209060669
1761371034819126500,7.61012646484375,-3.6699671745300293,-1.5019850730895996,-1.610905647277832
1761371034837739500,7.628739501953125,-3.937598705291748,-1.8775444030761719,-1.5886790752410889
1761371034856350700,7.647350830078125,-3.374248504638672,-1.9538099765777588,-0.6364808082580566
1761371034874963500,7.66596337890625,-2.6638379096984863,-1.744356632232666,1.2878267765045166
1761371034893574400,7.684574462890625,-2.461052417755127,-1.347907543182373,3.406888246536255
1761371034912187400,7.7031875,-1.3959121704101562,-0.29671621322631836,3.654932975769043
1761371034930798600,7.721798583984375,1.6283764839172363,1.576913833618164,-0.0682988166809082
1761371034949411300,7.740411376953125,4.434560775756836,2.765655040740967,-3.1217329502105713
1761371034968022500,7.7590224609375,5.580277919769287,3.2350897789001465,-3.592587471008301
1761371034986635300,7.77763525390625,6.975763320922852,4.146122455596924,-3.2681431770324707
1761371035005246500,7.79624658203125,6.882058143615723,3.507089138031006,-0.7485418319702148
1761371035023859200,7.814859130859375,5.726858139038086,4.237337112426758,-0.014427363872528076
1761371035042470400,7.833470458984375,4.756383895874023,3.3615121841430664,0.22269907593727112
1761371035061083100,7.852083251953125,4.681417465209961,1.134981632232666,1.2695448398590088
1761371035079694300,7.8706943359375,4.229822158813477,-0.6798133850097656,2.1163218021392822
1761371035098307000,7.88930712890625,3.367879867553711,-0.8344669342041016,2.1995322704315186
1761371035116918300,7.907918212890625,2.0722694396972656,-0.04335975646972656,1.9904531240463257
1761371035135531000,7.926531005859375,-0.5739717483520508,0.12220478057861328,2.173250675201416
1761371035154142200,7.94514208984375,-2.970393180847168,-0.2591085433959961,1.0037294626235962
1761371035172755000,7.9637548828125,-3.9310660362243652,-0.3590426445007324,-0.8907120823860168
1761371035191366100,7.9823662109375,-3.8306922912597656,-0.7222816944122314,-1.7409613132476807
1761371035209979000,8.000978759765625,-3.3137402534484863,-1.2903575897216797,-1.3528906106948853
1761371035228590000,8.019590087890625,-3.4200572967529297,-1.9088404178619385,-0.4917781949043274
1761371035247202800,8.038202880859375,-4.387242317199707,-2.351199150085449,-0.10093092918395996
1761371035265814000,8.05681396484375,-5.398417949676514,-2.644249677658081,-0.37262511253356934
1761371035284426800,8.0754267578125,-5.799837112426758,-3.004723310470581,-0.6889142394065857
1761371035303038000,8.094037841796874,-5.4162750244140625,-3.275245189666748,-0.9377150535583496
1761371035321650700,8.112650634765625,-3.7744832038879395,-3.3201851844787598,-0.18955379724502563
1761371035340262000,8.131261962890624,-1.5016717910766602,-3.163818120956421,1.4902833700180054
1761371035358874600,8.14987451171875,0.515955924987793,-3.1047210693359375,1.9668166637420654
1761371035377485600,8.168485595703125,0.6351618766784668,-3.0133490562438965,0.24558782577514648
1761371035396098600,8.1870986328125,0.1781024932861328,-1.5091915130615234,-1.6091922521591187
1761371035414709500,8.20570947265625,1.2352681159973145,1.280489444732666,-2.4562361240386963
1761371035433322500,8.224322509765624,2.556154727935791,5.876330852508545,-2.386500835418701
1761371035451933700,8.24293359375,2.2358837127685547,6.080234527587891,-2.3573646545410156
1761371035470546400,8.26154638671875,2.265439510345459,4.675549507141113,-2.1782143115997314
1761371035489157600,8.28015771484375,2.8567628860473633,4.2819600105285645,-0.8343995809555054
1761371035507770400,8.298770263671875,3.2195048332214355,3.282991409301758,1.721020221710205
1761371035535687400,8.3266875,1.7686982154846191,0.38829660415649414,2.584404468536377
1761371035554300200,8.345300048828125,-1.1333012580871582,-1.1496052742004395,1.5731121301651
1761371035572911400,8.363911376953125,-1.8162202835083008,-2.0526561737060547,2.0277347564697266
1761371035591524400,8.3825244140625,-0.2570366859436035,-1.3079934120178223,3.998215675354004
1761371035610135600,8.401135498046875,1.6666722297668457,-1.3075494766235352,5.028242111206055
1761371035628748300,8.419748291015624,3.122185707092285,-1.1695637702941895,4.265967845916748
1761371035647359500,8.438359375,3.0042457580566406,-0.3149271011352539,1.3703796863555908
1761371035665972200,8.45697216796875,0.9591741561889648,-0.517636775970459,-0.9904040098190308
1761371035684583400,8.47558349609375,-1.0270590782165527,-0.7677536010742188,-2.31695818901062
1761371035703196200,8.494196044921875,-2.7265729904174805,-0.8525619506835938,-2.6948423385620117
1761371035721807400,8.512807373046876,-3.7468552589416504,-1.6048874855041504,-2.2577104568481445
1761371035740420000,8.531420166015625,-3.9547462463378906,-2.3047690391540527,-1.195847511291504
1761371035759031300,8.55003125,-3.5843677520751953,-2.7215726375579834,-0.1853727102279663
1761371035777644000,8.56864404296875,-2.977233409881592,-3.1371757984161377,0.07890260219573975
1761371035796255200,8.587255126953124,-2.252537250518799,-3.155108690261841,-0.25158119201660156
1761371035814868000,8.605867919921875,-1.9193549156188965,-2.757652759552002,-0.4033777117729187
1761371035833479200,8.624479248046875,-1.9853811264038086,-2.286332130432129,-0.16066598892211914
1761371035852092200,8.643092041015626,-1.6671247482299805,-1.318324089050293,-0.10398197174072266
1761371035870703400,8.661703369140625,-0.33433961868286133,1.309192180633545,-0.7795426845550537
1761371035889316000,8.680316162109374,2.045858860015869,3.340090274810791,-1.41256582736969
1761371035907927300,8.69892724609375,3.113097667694092,3.4931106567382812,-0.1786065697669983
1761371035926540000,8.7175400390625,3.047621250152588,3.3644161224365234,0.7604411840438843
1761371035945151200,8.736151123046875,3.18095064163208,4.963989734649658,0.11846137046813965
1761371035963764000,8.754763916015625,1.890979290008545,6.5104570388793945,-0.06447094678878784
1761371035982375200,8.773375244140626,0.9152698516845703,6.1547675132751465,0.07713964581489563
1761371036000988000,8.79198779296875,0.6186017990112305,3.161369800567627,1.501326560974121
1761371036019599400,8.810599365234374,1.3114385604858398,-0.8725018501281738,1.8861474990844727
1761371036038211800,8.8292119140625,4.493141174316406,-1.035205602645874,-0.39043593406677246
1761371036056823300,8.8478232421875,6.512768745422363,0.47064638137817383,-0.03403228521347046
1761371036075436000,8.86643603515625,4.948877334594727,0.7353549003601074,1.958580493927002
1761371036094047200,8.885047119140625,2.9220151901245117,1.2529520988464355,2.4103221893310547
1761371036112660000,8.903659912109376,-0.8170385360717773,0.6556510925292969,2.029031753540039
1761371036131271200,8.922271240234375,-4.058188438415527,0.3329455852508545,0.29781103134155273
1761371036149884000,8.9408837890625,-5.791891098022461,-0.03917431831359863,-1.21894109249115
1761371036168495000,8.9594951171875,-5.4931640625,-0.6752557754516602,-1.277040958404541
1761371036187107800,8.97810791015625,-4.413763999938965,-0.8232617378234863,-1.7378034591674805
1761371036205719300,8.99671923828125,-3.614187240600586,-1.1557579040527344,-1.47468900680542
1761371036224331800,9.015331787109375,-3.9369349479675293,-3.17055082321167,0.27135127782821655
1761371036242943200,9.033943115234376,-4.603033065795898,-4.239940643310547,1.2272489070892334
1761371036261556000,9.052555908203125,-4.737768173217773,-4.366063117980957,1.030171513557434
1761371036280167200,9.071167236328124,-4.586021423339844,-3.770927906036377,-0.08725877106189728
1761371036298780000,9.08977978515625,-4.472845077514648,-3.2340550422668457,-0.3465921878814697
1761371036317391000,9.10839111328125,-4.3552632331848145,-2.459200859069824,-0.6995022892951965
1761371036336003800,9.12700390625,-2.201481342315674,-0.19597768783569336,-1.6873068809509277
1761371036354615000,9.145614990234375,1.0232152938842773,2.112009048461914,-2.2843780517578125
1761371036373227800,9.164227783203126,3.3661084175109863,2.444221019744873,-1.200587511062622
1761371036391839200,9.182839111328125,4.025463104248047,1.2760200500488281,-0.021862924098968506
1761371036410452000,9.201451904296874,4.479202747344971,2.5274529457092285,-1.0863319635391235
1761371036429063200,9.220063232421875,2.9774093627929688,3.6560468673706055,-0.8924887180328369
1761371036447676000,9.238676025390625,0.906926155090332,4.025882720947266,-0.5947389602661133
1761371036466287000,9.257287109375,0.7259616851806641,3.9610376358032227,-1.0019534826278687
1761371036484899800,9.27589990234375,0.9372663497924805,2.0551133155822754,0.09445962309837341
1761371036503511000,9.294510986328126,1.365738868713379,-0.18678903579711914,1.6415513753890991
1761371036522123800,9.313123779296875,2.4790306091308594,-0.5023455619812012,1.3253177404403687
1761371036540735200,9.3317353515625,3.8132362365722656,1.0075187683105469,0.002259552478790283
1761371036559348000,9.350347900390625,3.765500068664551,0.9674620628356934,0.1370360553264618
1761371036577959200,9.368959228515624,2.3360824584960938,0.3762669563293457,0.8995339870452881
1761371036596572000,9.387572021484376,0.0871286392211914,-0.29038572311401367,0.8397943377494812
1761371036615183000,9.40618310546875,-1.8131928443908691,-0.7836322784423828,0.4518076777458191
1761371036633795800,9.4247958984375,-3.012701988220215,-1.0220108032226562,0.41049283742904663
1761371036652407000,9.443406982421875,-3.6552324295043945,-1.6682684421539307,0.3067423105239868
1761371036671020000,9.46202001953125,-3.676461696624756,-2.2585806846618652,-0.40663328766822815
1761371036689631200,9.48063134765625,-2.965738296508789,-2.622220039367676,-1.4703969955444336
1761371036708244000,9.499243896484375,-2.083954334259033,-2.594499111175537,-1.8995742797851562
1761371036726855200,9.517855224609375,-0.593165397644043,-2.016526699066162,-2.0705628395080566
1761371036745468000,9.536468017578125,0.7490377426147461,-0.8182973861694336,-2.2738289833068848
1761371036764079000,9.5550791015625,1.4145545959472656,-0.8872189521789551,-0.914031445980072
1761371036782691800,9.57369189453125,1.2242374420166016,-0.24332046508789062,0.27178412675857544
