time,seconds_elapsed,z,y,x
1761371050754409000,0.095408935546875,0,0,0
1761371050773438700,0.114438720703125,0.36898326873779297,0.09870052337646484,0.07157337665557861
1761371050782952000,0.123951904296875,0.12598323822021484,0.1466071605682373,0.17533230781555176
1761371050801975600,0.1429755859375,-0.4318199157714844,-0.033241987228393555,0.9687145948410034
1761371050811486000,0.15248583984375,-0.4818439483642578,-0.06554961204528809,1.1916333436965942
1761371050820995300,0.161995361328125,-0.43447017669677734,-0.04364776611328125,1.2303754091262817
1761371050830504000,0.17150390625,-0.2659339904785156,0.08983373641967773,1.0876126289367676
1761371050840011500,0.181011474609375,-0.013405799865722656,0.25666117668151855,0.8346987962722778
1761371050849518600,0.1905185546875,0.26053714752197266,0.37189650535583496,0.4082319736480713
1761371050859025000,0.20002490234375,0.5071401596069336,0.43725132942199707,-0.16208767890930176
1761371050868530700,0.20953076171875,0.7218103408813477,0.44371509552001953,-0.6626801490783691
1761371050878035500,0.219035400390625,0.940373420715332,0.42624735832214355,-0.9709250926971436
1761371050887540000,0.2285400390625,1.0318021774291992,0.44615626335144043,-1.062516689300537
1761371050897043700,0.238043701171875,0.8579998016357422,0.49433302879333496,-0.9615559577941895
1761371050906547000,0.247546875,0.45998191833496094,0.48523449897766113,-0.7646946907043457
1761371050916049400,0.25704931640625,-0.034435272216796875,0.3829975128173828,-0.5461118221282959
1761371050925551600,0.266551513671875,-0.5220327377319336,0.24575591087341309,-0.33012866973876953
1761371050935053300,0.27605322265625,-1.026998519897461,0.13288402557373047,-0.1092226505279541
1761371050944554500,0.285554443359375,-1.4783573150634766,0.1127922534942627,0.08020782470703125
1761371050954055400,0.295055419921875,-1.6006050109863281,0.1919175386428833,0.28733015060424805
1761371050963555800,0.304555908203125,-1.2773094177246094,0.3173105716705322,0.5254454612731934
1761371050982555400,0.323555419921875,-0.21607494354248047,0.5729317665100098,1.0137393474578857
1761371051001553700,0.3425537109375,0.2027568817138672,0.5572042465209961,1.3901996612548828
1761371051020550700,0.361550537109375,0.45172977447509766,1.2529178857803345,1.0096607208251953
1761371051039487500,0.380487548828125,0.6360177993774414,1.398820400238037,1.0057659149169922
1761371051058098700,0.3990986328125,-0.24120426177978516,0.9601716995239258,1.6715888977050781
1761371051076711700,0.417711669921875,-2.191145420074463,0.5191748142242432,2.4267473220825195
1761371051095323100,0.4363232421875,-4.2220845222473145,0.46590185165405273,2.9161901473999023
1761371051113936100,0.45493603515625,-4.966506481170654,0.5688633918762207,2.9431633949279785
1761371051132547300,0.47354736328125,-4.768248558044434,0.5223846435546875,2.5428683757781982
1761371051151160300,0.492160400390625,-4.35648775100708,0.39758825302124023,1.948527455329895
1761371051169771800,0.510771728515625,-4.016188144683838,0.06015956401824951,1.3458915948867798
1761371051188384800,0.529384765625,-3.370319366455078,-0.08066725730895996,0.6114151477813721
1761371051206996000,0.547995849609375,-1.4171843528747559,0.4235788583755493,-0.9575481414794922
1761371051225609000,0.56660888671875,1.110386848449707,0.8913116455078125,-3.517061233520508
1761371051244220400,0.585220458984375,4.881471633911133,0.5846936702728271,-5.7716193199157715
1761371051262833400,0.60383349609375,7.493622779846191,-1.0316828489303589,-5.766316890716553
1761371051281444600,0.622444580078125,7.637991905212402,-3.0709731578826904,-3.429849624633789
1761371051300057600,0.6410576171875,7.083965301513672,-2.0251400470733643,-2.6313564777374268
1761371051318669000,0.6596689453125,6.085305213928223,-1.5024728775024414,-1.7216062545776367
1761371051337282000,0.678281982421875,5.282024383544922,-1.4203119277954102,-1.9433128833770752
1761371051355893200,0.696893310546875,4.811009407043457,-1.399397850036621,-2.9100756645202637
1761371051374506200,0.71550634765625,4.163764953613281,-1.6507421731948853,-2.81292986869812
1761371051393117700,0.73411767578125,3.7092742919921875,-1.234175443649292,-1.8258039951324463
1761371051411730700,0.752730712890625,3.0425710678100586,-0.7401256561279297,-0.5870847105979919
1761371051430342000,0.771341796875,2.2184228897094727,-0.397538423538208,0.3361845016479492
1761371051448955000,0.789954833984375,0.29706859588623047,-0.42638683319091797,0.8044551610946655
1761371051467566300,0.80856640625,-1.4073972702026367,-0.7993625402450562,0.40661293268203735
1761371051486179300,0.827179443359375,-1.7240381240844727,-0.9337230324745178,0.004578948020935059
1761371051504790500,0.84579052734375,-1.9226455688476562,-0.3530765771865845,-0.7110703587532043
1761371051523403500,0.864403564453125,-2.8581180572509766,0.17538166046142578,-1.105434536933899
1761371051542015000,0.883014892578125,-3.7206807136535645,0.677266001701355,-1.5936381816864014
1761371051560628000,0.9016279296875,-4.4050092697143555,0.8145015239715576,-2.23162841796875
1761371051579239400,0.920239501953125,-4.191422462463379,0.7148715257644653,-2.44130802154541
1761371051597852400,0.938852294921875,-3.4017090797424316,0.8112562894821167,-3.1929733753204346
1761371051616463600,0.957463623046875,-3.817359447479248,-0.01452493667602539,-2.139256715774536
1761371051635076600,0.97607666015625,-4.79335355758667,-0.7671875953674316,-0.8532040119171143
1761371051653688000,0.99468798828125,-5.6275482177734375,-0.9877824783325195,-0.7467269897460938
1761371051672301000,1.013301025390625,-5.797179222106934,-1.5424636602401733,-1.0990049839019775
1761371051690912300,1.031912353515625,-6.133222579956055,-2.2477803230285645,-0.9388216733932495
1761371051709525200,1.050525146484375,-6.1113667488098145,-2.418429374694824,-0.3895852565765381
1761371051728136700,1.06913671875,-5.449865341186523,-2.527733325958252,-0.33820056915283203
1761371051746749700,1.087749755859375,-4.378426551818848,-2.346602439880371,-0.8945732116699219
1761371051765361000,1.10636083984375,-3.1657419204711914,-1.3729608058929443,-1.6399321556091309
1761371051783974000,1.124973876953125,-1.9920878410339355,-0.0987401008605957,-1.236853837966919
1761371051802585300,1.14358544921875,-1.3716731071472168,0.14162778854370117,0.2649242877960205
1761371051821198300,1.1621982421875,-0.006234645843505859,0.670753002166748,0.3228719234466553
1761371051839809500,1.1808095703125,1.1322355270385742,0.9439544677734375,-0.44324707984924316
1761371051858422500,1.199422607421875,0.3716549873352051,3.0191917419433594,-1.3726022243499756
1761371051877034000,1.218033935546875,0.7697582244873047,6.99371337890625,-1.5834343433380127
1761371051895647000,1.23664697265625,1.6813311576843262,5.77510929107666,3.0753626823425293
1761371051914258200,1.255258056640625,4.025010585784912,1.390702724456787,7.494904518127441
1761371051932871200,1.27387109375,4.796478748321533,-3.189176082611084,8.417356491088867
1761371051951482600,1.292482666015625,4.845786094665527,-4.596589088439941,5.828556060791016
1761371051970095600,1.311095703125,5.235933303833008,-3.5914459228515625,2.2041163444519043
1761371051988707000,1.32970703125,5.292420387268066,-1.9101426601409912,1.2259454727172852
1761371052007320000,1.348320068359375,4.306520462036133,0.08942103385925293,0.19484996795654297
1761371052025931300,1.36693115234375,1.8172893524169922,1.405900478363037,-1.1382124423980713
1761371052044544300,1.385544189453125,-0.6653728485107422,2.094627857208252,-1.9215161800384521
1761371052063155700,1.40415576171875,-1.190114974975586,2.1188926696777344,-2.4900546073913574
1761371052081768700,1.422768798828125,-0.30924034118652344,2.020181655883789,-2.8621580600738525
1761371052100380000,1.4413798828125,0.04303932189941406,1.8377525806427002,-2.666123628616333
1761371052118993000,1.459992919921875,-0.4990253448486328,1.623531460762024,-2.654937744140625
1761371052137604400,1.478604248046875,-1.683304786682129,1.5249342918395996,-3.115896224975586
1761371052156217300,1.49721728515625,-2.545064926147461,1.4433043003082275,-3.3971967697143555
1761371052174828500,1.51582861328125,-2.676083564758301,0.9553219079971313,-3.814607620239258
1761371052193441500,1.534441650390625,-1.9760165214538574,0.3089580535888672,-3.905756711959839
1761371052212053000,1.553052978515625,-0.7381734848022461,-0.43646717071533203,-3.396631956100464
1761371052230666000,1.571666015625,0.049068450927734375,-0.9855719208717346,-1.8964779376983643
1761371052249277200,1.590277099609375,0.2554187774658203,-1.0972539186477661,0.012566089630126953
1761371052267890400,1.608890380859375,0.22962570190429688,-1.374009132385254,0.9787187576293945
1761371052286501600,1.627501708984375,-0.16600370407104492,-1.464432716369629,-0.012310504913330078
1761371052305114600,1.646114501953125,-0.5349431037902832,-0.1932697296142578,0.20476484298706055
1761371052323726000,1.66472607421875,-0.1785445213317871,1.560269832611084,1.7620532512664795
1761371052342339000,1.683339111328125,3.386443614959717,2.6699090003967285,2.8351261615753174
1761371052360950300,1.7019501953125,6.162803649902344,0.7525510787963867,3.736266851425171
1761371052379563300,1.720563232421875,8.861244201660156,0.5094819068908691,2.161156415939331
1761371052398174700,1.7391748046875,10.532306671142578,-0.47847938537597656,2.08565092086792
1761371052416787700,1.75778759765625,11.49405574798584,-0.896132230758667,2.7918496131896973
1761371052435399000,1.77639892578125,9.992066383361816,-0.7808122634887695,3.718914747238159
1761371052454012000,1.795011962890625,5.685778617858887,0.20151233673095703,3.009913682937622
1761371052472623400,1.813623291015625,1.615804672241211,0.759568452835083,1.058506965637207
1761371052491236400,1.832236328125,-0.7153987884521484,1.520667552947998,-0.9680787920951843
1761371052509847800,1.850847900390625,-0.8357172012329102,1.8219174146652222,-1.7553086280822754
1761371052528460800,1.869460693359375,1.983109474182129,2.397108554840088,-1.435622215270996
1761371052547072000,1.888072021484375,1.950368881225586,1.4361613988876343,-0.17457842826843262
1761371052565685000,1.90668505859375,-1.2491378784179688,0.1946873664855957,-0.025371313095092773
1761371052584296400,1.92529638671875,-4.2085185050964355,-0.23682260513305664,-1.1550347805023193
1761371052602909400,1.943909423828125,-6.144773960113525,-0.682931661605835,-1.879138469696045
1761371052621520600,1.962520751953125,-7.419651031494141,-1.968003749847412,-1.6773617267608643
1761371052640133600,1.981133544921875,-7.957080364227295,-2.7873010635375977,-1.9721068143844604
1761371052658745000,1.9997451171875,-8.248250961303711,-3.3475451469421387,-2.4669971466064453
1761371052677358000,2.018358154296875,-7.838530540466309,-3.472179412841797,-2.6910977363586426
1761371052695969300,2.03696923828125,-6.711880683898926,-3.4636762142181396,-2.2290287017822266
1761371052714582300,2.055582275390625,-5.295895099639893,-3.684159755706787,-1.240795612335205
1761371052733193700,2.07419384765625,-3.5288500785827637,-3.625042200088501,-0.5815422534942627
1761371052751806700,2.092806640625,-1.4300150871276855,-3.5368669033050537,-0.37200260162353516
1761371052770418200,2.111418212890625,0.32477903366088867,-3.8254570960998535,-0.25114941596984863
1761371052789031200,2.13003125,1.470686912536621,-1.919640064239502,-0.6273101568222046
1761371052807642400,2.148642333984375,0.2056422233581543,0.6168231964111328,-0.7154210805892944
1761371052826255400,2.16725537109375,-3.617840528488159,1.956207275390625,-0.4011296033859253
1761371052844866800,2.18586669921875,-5.744387149810791,4.026190757751465,-1.6624482870101929
1761371052863479800,2.204479736328125,-4.784602165222168,5.707425117492676,-4.505480766296387
1761371052882091000,2.223091064453125,-1.0657100677490234,5.677399635314941,-3.2314209938049316
1761371052900704000,2.2417041015625,3.025367259979248,2.5314149856567383,1.1985373497009277
1761371052919315500,2.2603154296875,7.506911277770996,-1.2459821701049805,4.813188076019287
1761371052937928400,2.278928466796875,8.129294395446777,-3.149139165878296,2.899705410003662
1761371052956539600,2.29753955078125,7.689511299133301,-1.9917984008789062,-0.3448411226272583
1761371052975152600,2.316152587890625,6.3180952072143555,-1.043184518814087,1.0557453632354736
1761371052993764000,2.33476416015625,2.8075380325317383,-1.124786138534546,4.0794267654418945
1761371053012377000,2.353377197265625,-0.8005647659301758,-0.8787872791290283,4.102819442749023
1761371053030988500,2.371988525390625,-3.026261806488037,-0.24925017356872559,2.2174510955810547
1761371053049601500,2.3906015625,-2.8062305450439453,0.15328192710876465,-0.9486864805221558
1761371053068212700,2.409212646484375,-1.2915329933166504,0.2955284118652344,-3.2259416580200195
1761371053086825700,2.42782568359375,-0.6577396392822266,0.4478139877319336,-2.6437296867370605
1761371053105437200,2.446437255859375,-1.7483367919921875,0.314833402633667,-1.1903080940246582
1761371053124050200,2.46505029296875,-3.8094983100891113,0.6948158740997314,-0.7870826721191406
1761371053142661400,2.483661376953125,-5.678393363952637,1.455474615097046,-1.3154726028442383
1761371053161274400,2.5022744140625,-6.312000274658203,1.1968224048614502,-1.3663251399993896
1761371053179885800,2.5208857421875,-4.754062652587891,1.3907408714294434,-1.1160314083099365
1761371053198498800,2.539498779296875,-3.0545897483825684,0.9157147407531738,-0.15006375312805176
1761371053217110000,2.558110107421875,-1.6027946472167969,0.17310142517089844,0.42786264419555664
1761371053235723000,2.576722900390625,-0.3371086120605469,-0.40790319442749023,0.2747306823730469
1761371053254334500,2.59533447265625,1.4264097213745117,-1.3501012325286865,0.01798725128173828
1761371053272947500,2.613947509765625,3.47943115234375,-2.4640774726867676,-0.2013392448425293
1761371053291559000,2.632558837890625,5.419581413269043,-2.381817102432251,-0.4207584857940674
1761371053310172000,2.651171875,6.914767265319824,-1.4606688022613525,-0.7914412021636963
1761371053328783000,2.669783203125,7.54334831237793,-0.8971853256225586,-0.5530731678009033
1761371053347396000,2.68839599609375,6.803130149841309,-0.1474933624267578,-0.7492420673370361
1761371053366007600,2.707007568359375,5.637947082519531,2.2061338424682617,-1.8200935125350952
1761371053384620500,2.72562060546875,5.566106796264648,4.718130111694336,-1.417410969734192
1761371053403231700,2.744231689453125,5.841713905334473,5.1569719314575195,1.6815416812896729
1761371053421844700,2.7628447265625,5.345364570617676,4.410333156585693,4.068734169006348
1761371053440456200,2.781456298828125,5.777102470397949,2.8824057579040527,5.059805393218994
1761371053459069200,2.800069091796875,7.352416038513184,1.399773359298706,3.0496273040771484
1761371053477680400,2.818680419921875,6.841825485229492,1.264756441116333,-0.08390951156616211
1761371053496293400,2.83729345703125,3.846646308898926,1.6273298263549805,-1.089812994003296
1761371053514904800,2.85590478515625,0.9871797561645508,2.5882420539855957,-1.4480483531951904
1761371053533517800,2.874517822265625,-2.5670361518859863,1.5145692825317383,-0.5773885250091553
1761371053552129000,2.89312890625,-4.5112714767456055,1.2743995189666748,-0.7456464767456055
1761371053570742000,2.911741943359375,-5.236123085021973,1.343926191329956,-0.5803260803222656
1761371053589353500,2.930353515625,-5.683178901672363,1.310124397277832,0.3131899833679199
1761371053607966500,2.948966552734375,-6.457901954650879,1.2706196308135986,0.8445429801940918
1761371053626578000,2.967577880859375,-7.659444332122803,0.9005792140960693,0.9593298435211182
1761371053645191000,2.98619091796875,-8.267279624938965,0.34995532035827637,0.8068087100982666
1761371053663802000,3.004802001953125,-7.973227024078369,-0.10475015640258789,0.46342015266418457
1761371053682415000,3.0234150390625,-7.510586738586426,-0.5979185104370117,0.6000716686248779
1761371053701026600,3.042026611328125,-7.131357192993164,-1.1605124473571777,0.7529470920562744
1761371053719639600,3.0606396484375,-6.242260932922363,-1.3932678699493408,0.2000272274017334
1761371053738250800,3.079250732421875,-4.184818267822266,-1.4780611991882324,-0.3175191879272461
1761371053756863700,3.09786376953125,-2.2370448112487793,-1.4203803539276123,-0.30278635025024414
1761371053775475200,3.11647509765625,-0.5847868919372559,-1.7122273445129395,0.839773416519165
1761371053794088200,3.135088134765625,2.4750494956970215,-1.5560874938964844,2.32292103767395
1761371053812699400,3.153699462890625,7.166027545928955,-0.33820581436157227,4.128338813781738
1761371053831312400,3.1723125,9.317153930664062,-0.5195770263671875,5.882702827453613
1761371053849923800,3.190923828125,9.048995018005371,-1.8301005363464355,6.133978843688965
1761371053868536800,3.209536865234375,6.77211856842041,-0.000044345855712890625,2.643125057220459
1761371053887148000,3.22814794921875,3.7771177291870117,3.9211978912353516,-2.1951069831848145
1761371053905761000,3.246760986328125,1.5916571617126465,6.0369343757629395,-3.917203903198242
1761371053924372500,3.26537255859375,-0.709479808807373,4.952672481536865,-2.5257225036621094
1761371053942985500,3.2839853515625,-1.1531519889831543,3.013550281524658,-2.0926270484924316
1761371053961596700,3.3025966796875,-1.1343607902526855,-0.12642621994018555,-0.412219762802124
1761371053980209700,3.321209716796875,-0.2978019714355469,-2.3559298515319824,0.16991782188415527
1761371053998821000,3.339821044921875,0.5328941345214844,-2.8143067359924316,0.5642979145050049
1761371054017434000,3.35843408203125,0.2610301971435547,-2.6125309467315674,0.884286642074585
1761371054036045300,3.37704541015625,-0.17398357391357422,-2.163144588470459,-0.13277411460876465
1761371054054658300,3.395658203125,-0.5130405426025391,-1.9204325675964355,-1.979494333267212
1761371054073269800,3.414269775390625,-2.190761089324951,-1.3856937885284424,-3.266495943069458
1761371054091882800,3.4328828125,-5.043780326843262,-1.0733239650726318,-3.404792070388794
1761371054110494000,3.451493896484375,-7.325753688812256,-0.9866440296173096,-3.05387544631958
1761371054129107000,3.47010693359375,-8.73713207244873,-1.3809640407562256,-2.6833481788635254
1761371054147718400,3.488718505859375,-9.000572204589844,-1.6365406513214111,-2.6884965896606445
1761371054166331400,3.507331298828125,-8.32822322845459,-1.8467650413513184,-3.0911858081817627
1761371054184942800,3.52594287109375,-7.168652534484863,-2.090867519378662,-2.982971429824829
1761371054203555600,3.5445556640625,-6.4542388916015625,-2.2901391983032227,-3.1651759147644043
1761371054222167000,3.5631669921875,-5.060154914855957,-1.7287852764129639,-2.5706019401550293
1761371054240780000,3.581780029296875,-2.5082907676696777,-0.3503286838531494,-0.48667216300964355
1761371054259391500,3.6003916015625,-0.5409107208251953,0.6726188659667969,1.9568965435028076
1761371054278004200,3.619004150390625,1.584207534790039,0.8043272495269775,3.6258158683776855
1761371054296615700,3.63761572265625,6.057009696960449,0.4073481559753418,3.7000925540924072
1761371054315228700,3.656228759765625,11.397985458374023,0.09184932708740234,2.0767440795898438
1761371054333840100,3.674840087890625,11.903651237487793,-0.7748191356658936,0.3086124658584595
1761371054352452900,3.693452880859375,10.286103248596191,0.26108384132385254,-1.1097145080566406
1761371054371064300,3.712064208984375,8.61513900756836,2.4375991821289062,-2.7421183586120605
1761371054389677300,3.73067724609375,3.9810142517089844,2.8543152809143066,-2.2964141368865967
1761371054408288800,3.749288818359375,2.877316474914551,1.6227521896362305,0.7165734767913818
1761371054426901500,3.767901611328125,2.5535011291503906,-0.0640878677368164,0.8365387916564941
1761371054445513000,3.786512939453125,0.41681480407714844,-1.2833608388900757,0.17883062362670898
1761371054464126000,3.8051259765625,-0.7061758041381836,-1.1213639974594116,1.550926923751831
1761371054482737400,3.8237373046875,-0.05261802673339844,-0.09429705142974854,4.172197341918945
1761371054501350100,3.84235009765625,-0.8700351715087891,0.6257965564727783,3.633380174636841
1761371054519961600,3.860961669921875,-2.791595935821533,1.3073327541351318,0.6358191967010498
1761371054538574600,3.87957470703125,-4.925244331359863,1.3427866697311401,-1.8735170364379883
1761371054557185800,3.898185791015625,-6.22599458694458,0.8889049291610718,-2.8493449687957764
1761371054575798800,3.916798828125,-5.686622619628906,0.803879976272583,-3.2040014266967773
1761371054594410200,3.93541015625,-4.657718658447266,0.8645222187042236,-1.9228196144104004
1761371054613023200,3.954023193359375,-4.316039562225342,0.8629002571105957,-0.449160099029541
1761371054631634400,3.972634521484375,-4.124013423919678,1.1383548974990845,0.43395018577575684
1761371054650247400,3.991247314453125,-4.467442035675049,0.90205979347229,0.41482996940612793
1761371054668859000,4.00985888671875,-4.918938159942627,0.8365767002105713,-0.6546604633331299
1761371054687471900,4.028471923828125,-4.814914703369141,0.5477144718170166,-1.4679007530212402
1761371054706083000,4.0470830078125,-3.234530448913574,0.4477674961090088,-0.8322579860687256
1761371054724696000,4.065696044921875,-1.481523036956787,0.5535333156585693,0.81903076171875
1761371054743307500,4.0843076171875,-0.037314414978027344,0.5251755714416504,1.7606651782989502
1761371054761920500,4.10292041015625,2.175889015197754,-0.2863030433654785,1.2748322486877441
1761371054780531700,4.12153173828125,6.257554054260254,-0.9276554584503174,-0.35770511627197266
1761371054799144700,4.140144775390625,10.30998420715332,-1.9049969911575317,-0.3566420078277588
1761371054817756200,4.158756103515625,12.23316478729248,-3.0896973609924316,0.8946776390075684
1761371054836369200,4.177369140625,11.439298629760742,-2.022662878036499,1.0023164749145508
1761371054854980400,4.19598046875,7.210391998291016,-0.9201657772064209,2.3254826068878174
1761371054873593300,4.21459326171875,2.9474735260009766,0.42206263542175293,4.0149078369140625
1761371054892204800,4.233204833984375,1.6462430953979492,-0.30861616134643555,3.853250503540039
1761371054910817800,4.25181787109375,3.0958003997802734,-1.6591068506240845,2.2994680404663086
1761371054929429000,4.270428955078125,4.591315269470215,-1.5567842721939087,1.201613187789917
1761371054948042000,4.2890419921875,4.354071617126465,-0.09936201572418213,1.2502861022949219
1761371054966653400,4.3076533203125,2.177884101867676,1.782684087753296,0.7041525840759277
1761371054985266200,4.32626611328125,-0.7999143600463867,3.0241799354553223,-0.4659764766693115
1761371055003877600,4.344877685546875,-2.807828426361084,3.5520098209381104,-1.319117546081543
1761371055022490600,4.36349072265625,-3.5061492919921875,3.332435369491577,-1.65681791305542
1761371055041101800,4.382101806640625,-3.5062613487243652,3.385672092437744,-1.9475566148757935
1761371055059714800,4.40071484375,-3.750927448272705,3.774254560470581,-2.199032783508301
1761371055078326300,4.419326171875,-4.2894110679626465,4.090719699859619,-2.3279566764831543
1761371055096939300,4.437939208984375,-5.081152439117432,4.068240165710449,-2.056652545928955
1761371055115550500,4.456550537109375,-5.951081275939941,3.53536319732666,-1.4118080139160156
1761371055134163500,4.47516357421875,-6.324597358703613,2.9103236198425293,-0.6497666835784912
1761371055152775000,4.49377490234375,-5.974637985229492,2.301671028137207,-0.14319849014282227
1761371055171388000,4.512387939453125,-4.37470006942749,1.970941424369812,-0.4339144229888916
1761371055189999000,4.5309990234375,-2.6154017448425293,1.2986245155334473,-0.2255709171295166
1761371055208612000,4.549612060546875,-1.1460504531860352,0.7343543767929077,0.5418634414672852
1761371055227223600,4.5682236328125,-0.015984535217285156,0.08446693420410156,0.9245131015777588
1761371055245836300,4.586836181640625,0.9679050445556641,0.11402702331542969,-0.30910444259643555
1761371055264447700,4.60544775390625,3.5938940048217773,0.7900891304016113,-0.44747281074523926
1761371055283060700,4.624060791015625,6.798604965209961,1.5857598781585693,1.1817657947540283
1761371055301672000,4.642671875,8.425222396850586,-0.24061965942382812,3.353713274002075
1761371055320285000,4.661284912109375,8.6878080368042,-2.6263327598571777,4.404879093170166
1761371055338896400,4.679896484375,7.570061683654785,-1.3055541515350342,0.609541654586792
1761371055357509400,4.69850927734375,7.063081741333008,-0.3209834098815918,-1.1825015544891357
1761371055376120600,4.71712060546875,6.166411399841309,-0.006238698959350586,-0.14069223403930664
1761371055394733600,4.735733642578125,5.356573104858398,-0.2958238124847412,0.8829216957092285
1761371055413345000,4.754344970703125,4.158149719238281,-1.0364511013031006,-0.2954103946685791
1761371055431957800,4.772957763671875,1.2544336318969727,-1.234809160232544,-1.300026774406433
1761371055450569200,4.7915693359375,-1.1121234893798828,-0.49764275550842285,0.23725318908691406
1761371055469182200,4.81018212890625,-0.8913602828979492,0.7594922780990601,2.2913095951080322
1761371055487793400,4.82879345703125,0.9264659881591797,0.7344987392425537,1.8570518493652344
1761371055506406400,4.847406494140625,2.1524133682250977,0.6758219003677368,-0.4777841567993164
1761371055525017900,4.866017822265625,1.6321477890014648,0.5916277170181274,-2.0451996326446533
1761371055543630800,4.884630859375,0.49505615234375,0.6719964742660522,-2.9350743293762207
1761371055562242000,4.903241943359375,-1.072352409362793,0.5390235185623169,-2.6137373447418213
1761371055580855000,4.92185498046875,-3.8188271522521973,0.06366324424743652,-1.4521002769470215
1761371055599466500,4.940466552734375,-6.641120910644531,-0.43690061569213867,-0.7235758304595947
1761371055618079200,4.959079345703125,-8.574661254882812,-0.7783284187316895,-0.5190234184265137
1761371055636690700,4.977690673828125,-9.59060287475586,-0.64223313331604,-0.6817539930343628
1761371055655303700,4.9963037109375,-9.02303409576416,-0.3286871910095215,-0.3721318244934082
1761371055673915000,5.014914794921875,-7.083698272705078,-0.1316394805908203,0.41660523414611816
1761371055692527900,5.03352783203125,-4.377824783325195,-0.021494388580322266,1.2153236865997314
1761371055711139300,5.052139404296875,-1.6250486373901367,0.15772533416748047,1.957733392715454
1761371055729752000,5.070751953125,2.051812171936035,0.2873086929321289,3.0461668968200684
1761371055748363500,5.089363525390625,2.501030445098877,-0.07884931564331055,2.4350180625915527
1761371055766976500,5.1079765625,6.236562728881836,0.8971743583679199,1.845008134841919
1761371055785587700,5.126587646484375,7.344485282897949,0.48451995849609375,2.2049245834350586
1761371055804200700,5.14520068359375,6.883228302001953,1.6166977882385254,2.1697118282318115
1761371055822812200,5.163812255859375,6.618090629577637,3.1134915351867676,1.2153005599975586
1761371055841425000,5.1824248046875,5.216695308685303,4.282955646514893,0.9485976696014404
1761371055860036400,5.201036376953125,2.940107822418213,4.867526531219482,1.0815634727478027
1761371055878649300,5.2196494140625,1.7161140441894531,4.69360876083374,1.9721300601959229
1761371055897260500,5.238260498046875,1.8918142318725586,2.6088247299194336,3.704840660095215
1761371055915873500,5.25687353515625,0.5492534637451172,-0.01009368896484375,3.853837490081787
1761371055934485000,5.275485107421875,-0.5637998580932617,-1.0335359573364258,1.313963532447815
1761371055953097700,5.29409765625,-0.38230037689208984,-0.929140567779541,-0.7824263572692871
1761371055971709200,5.312709228515625,-0.3245525360107422,-0.6249790191650391,-0.5330058932304382
1761371055990322200,5.331322265625,-1.1662840843200684,-0.959993839263916,0.319905161857605
1761371056008933400,5.349933349609375,-2.8696069717407227,-1.4557483196258545,0.06059521436691284
1761371056027546400,5.36854638671875,-4.80587100982666,-1.445706844329834,-1.354011058807373
1761371056046157800,5.38715771484375,-6.61491584777832,-1.6640524864196777,-2.230996608734131
1761371056064770800,5.405770751953125,-7.95195198059082,-2.2712924480438232,-1.892071008682251
1761371056083382000,5.424382080078125,-8.73818588256836,-2.818413019180298,-0.7100385427474976
1761371056101995000,5.4429951171875,-9.017620086669922,-3.288802146911621,0.4647720754146576
1761371056120606200,5.461606201171875,-8.132591247558594,-3.6935434341430664,1.597516417503357
1761371056139219200,5.48021923828125,-6.7049641609191895,-4.052330017089844,1.9633784294128418
1761371056157830700,5.49883056640625,-4.7716169357299805,-4.455905914306641,1.8532459735870361
1761371056176443400,5.517443359375,-3.5473012924194336,-4.633965015411377,1.2266228199005127
1761371056195054800,5.536054931640625,-3.595242977142334,-4.072603702545166,-0.38455820083618164
1761371056213667800,5.554667724609375,-3.527735710144043,-2.640659809112549,-2.426553726196289
1761371056232279000,5.573279052734375,-1.2167677879333496,-0.9816970825195312,-3.074453592300415
1761371056250892000,5.59189208984375,3.680006980895996,0.5911736488342285,-2.146092414855957
1761371056269503200,5.610503173828125,8.59052848815918,2.205780029296875,-1.6246979236602783
1761371056288116200,5.6291162109375,10.934477806091309,2.358889102935791,-1.4034316539764404
1761371056306727700,5.647727783203125,9.528335571289062,3.525693416595459,-3.2054543495178223
1761371056325340400,5.66634033203125,7.523020267486572,6.504388332366943,-3.6503407955169678
1761371056343952000,5.684951904296875,6.338904857635498,5.105190753936768,0.17453321814537048
1761371056362564900,5.70356494140625,4.678095817565918,3.142703056335449,3.121279239654541
1761371056381176000,5.722176025390625,-0.1473231315612793,0.44542980194091797,3.20947527885437
1761371056399789000,5.7407890625,-2.081897735595703,-0.28621387481689453,0.6777828931808472
1761371056418400500,5.759400390625,0.6150941848754883,0.18547439575195312,0.18725287914276123
1761371056437013200,5.77801318359375,1.7034072875976562,-0.014611244201660156,2.7610878944396973
1761371056455624700,5.796624755859375,-0.9176998138427734,-0.3479323387145996,3.601696014404297
1761371056474237700,5.81523779296875,-3.948631763458252,-0.5494480133056641,1.1365553140640259
1761371056492849000,5.833848876953125,-5.6557722091674805,-0.3228907585144043,-1.8645769357681274
1761371056511462000,5.8524619140625,-5.19662618637085,-0.213470458984375,-3.53346586227417
1761371056530073000,5.871072998046875,-3.2106828689575195,0.15333032608032227,-2.4416351318359375
1761371056548686000,5.88968603515625,-1.3872356414794922,0.13614654541015625,-0.06120264530181885
1761371056567297500,5.908297607421875,-0.9380197525024414,-0.28949642181396484,0.7862405776977539
1761371056585910300,5.92691015625,-1.9817228317260742,-0.9518051147460938,-0.404407262802124
1761371056604521700,5.945521728515625,-3.3417248725891113,-1.2969629764556885,-1.9283510446548462
1761371056623134700,5.964134765625,-3.833261013031006,-1.3328795433044434,-2.3802149295806885
1761371056641746000,5.982745849609375,-3.0305657386779785,-1.4937567710876465,-1.158772349357605
1761371056660359000,6.00135888671875,-1.680485725402832,-1.8064279556274414,0.08317112922668457
1761371056678970000,6.01997021484375,-0.3745126724243164,-1.2246687412261963,0.49493730068206787
1761371056697583000,6.0385830078125,0.5350246429443359,-0.2916836738586426,1.057930827140808
1761371056716194600,6.057194580078125,1.0217666625976562,0.8079619407653809,0.831505298614502
1761371056734807300,6.075807373046875,2.288844108581543,2.59487247467041,-0.18214190006256104
1761371056753418800,6.094418701171875,5.909548759460449,4.1606621742248535,-0.13005733489990234
1761371056772031700,6.11303173828125,11.779519081115723,3.723240852355957,0.7553220987319946
1761371056790643000,6.131642822265625,13.739471435546875,1.7929587364196777,1.7013978958129883
1761371056809256000,6.150255859375,12.41656494140625,2.794182777404785,0.7939140200614929
1761371056827867100,6.1688671875,8.450784683227539,3.854337215423584,-0.4889536201953888
1761371056846480100,6.187480224609375,3.567293643951416,3.940336227416992,0.8958467245101929
1761371056865091600,6.206091552734375,0.5210003852844238,2.2834830284118652,2.2733216285705566
1761371056883704300,6.224704345703125,-0.6197972297668457,0.13086652755737305,2.092644691467285
1761371056902315800,6.243315673828125,-0.3082442283630371,-0.9316039085388184,0.9243724942207336
1761371056920928800,6.2619287109375,-0.22312545776367188,-0.8214678764343262,0.41950708627700806
1761371056939540000,6.2805400390625,-1.801633358001709,-0.8303484916687012,0.11783087253570557
1761371056958153000,6.299153076171875,-4.347157955169678,-1.069401741027832,-0.10256433486938477
1761371056976764200,6.31776416015625,-6.016578674316406,-0.9663968086242676,-0.6632150411605835
1761371056995377200,6.336377197265625,-6.54320764541626,-1.2240357398986816,-1.4036707878112793
1761371057013988400,6.35498828125,-6.2237348556518555,-1.4334180355072021,-1.6836508512496948
1761371057032601300,6.373601318359375,-5.847214698791504,-1.95774245262146,-1.0960348844528198
1761371057051212800,6.392212890625,-5.656260967254639,-2.522510290145874,0.016485750675201416
1761371057069825500,6.410825439453125,-5.460869789123535,-3.3102595806121826,0.9085635542869568
1761371057088437000,6.42943701171875,-5.783905982971191,-4.114321231842041,0.6656808853149414
1761371057107050000,6.448050048828125,-6.286567211151123,-4.716588497161865,0.006244659423828125
1761371057125661200,6.4666611328125,-5.999633312225342,-4.923246383666992,-0.356761634349823
1761371057144274200,6.485274169921875,-4.596585273742676,-4.911041736602783,-0.38599711656570435
1761371057162885400,6.503885498046875,-2.935163974761963,-4.416935443878174,0.10333070158958435
1761371057181498400,6.522498291015625,-1.8117690086364746,-2.830052375793457,0.44986581802368164
1761371057200109600,6.541109619140625,-0.9504008293151855,-1.0494122505187988,0.2373168021440506
1761371057218722600,6.55972265625,0.802365779876709,0.8879694938659668,0.2585833966732025
1761371057237333800,6.578333740234375,4.466217041015625,2.917811870574951,-0.05951434373855591
1761371057255946800,6.59694677734375,8.152069091796875,5.146082401275635,-0.5845751166343689
1761371057274558200,6.61555810546875,8.880359649658203,5.008029460906982,-0.8232886791229248
1761371057293171000,6.6341708984375,7.344702243804932,7.0260114669799805,-1.5930089950561523
1761371057311782400,6.652782470703125,6.157835483551025,8.228263854980469,-1.9312646389007568
1761371057330395400,6.6713955078125,6.43275260925293,7.584583282470703,0.8907233476638794
1761371057349006600,6.690006591796875,6.558376312255859,4.213411808013916,4.379006862640381
1761371057367619600,6.70861962890625,6.640255928039551,0.6367383003234863,5.862672805786133
1761371057386230800,6.727230712890625,5.912753105163574,-1.275202989578247,5.292893409729004
1761371057404843800,6.74584375,3.6622533798217773,-1.3302593231201172,3.969924211502075
1761371057423455000,6.764455078125,-0.07623291015625,-1.0165772438049316,2.4020891189575195
1761371057442068000,6.78306787109375,-4.097433567047119,-0.6242496967315674,0.11075210571289062
1761371057460679200,6.80167919921875,-6.769401550292969,-0.010411262512207031,-2.647548198699951
1761371057479292200,6.820292236328125,-7.216762065887451,0.8009095191955566,-3.7857108116149902
1761371057497903600,6.838903564453125,-5.693262577056885,1.6891021728515625,-3.603679656982422
1761371057516516400,6.857516357421875,-5.382588863372803,1.5265049934387207,-1.7615487575531006
1761371057535127800,6.8761279296875,-6.486654758453369,1.0284481048583984,-0.11208808422088623
1761371057553740800,6.89474072265625,-7.312169075012207,0.5565719604492188,0.22423803806304932
1761371057572352000,6.91335205078125,-7.494729042053223,-0.37271738052368164,-0.055730223655700684
1761371057590965000,6.931965087890625,-6.7944016456604,-1.21000337600708,-0.28662991523742676
1761371057609576200,6.950576171875,-5.273852348327637,-1.812232494354248,-0.3086637258529663
1761371057628189200,6.969189208984375,-3.2661685943603516,-2.826294183731079,0.16678273677825928
1761371057646800400,6.98780029296875,-1.8023428916931152,-3.3114430904388428,0.6912856101989746
1761371057665413400,7.006413330078125,-0.8611063957214355,-2.7427303791046143,0.15410876274108887
1761371057684024600,7.025024658203125,0.7719039916992188,-1.818751335144043,-1.4243965148925781
1761371057702637600,7.043637451171875,4.250966548919678,-0.7826633453369141,-3.4005587100982666
1761371057721248800,7.062248779296875,6.899506092071533,1.147498607635498,-4.539445877075195
1761371057739861800,7.08086181640625,7.533619403839111,1.7349271774291992,-3.4916582107543945
1761371057758473200,7.09947314453125,7.690419673919678,1.5843114852905273,-2.0717222690582275
1761371057777086000,7.1180859375,7.263331413269043,3.119843006134033,-2.813015937805176
1761371057795697400,7.136697509765625,6.047657012939453,5.503808975219727,-3.4356632232666016
1761371057814310400,7.155310302734375,4.921767711639404,7.352541923522949,-1.998577356338501
1761371057832921600,7.173921630859375,4.031631946563721,5.630340099334717,1.9367519617080688
1761371057851534600,7.19253466796875,2.551156520843506,2.2231945991516113,5.0381760597229
1761371057870145800,7.211145751953125,0.014240741729736328,0.05229997634887695,4.975275993347168
1761371057888758800,7.2297587890625,-1.5390243530273438,-1.088648796081543,2.9990546703338623
1761371057907370000,7.248369873046875,-0.7132363319396973,-0.21447181701660156,1.0407445430755615
1761371057925983000,7.26698291015625,-0.5601701736450195,-0.1482095718383789,1.0312206745147705
1761371057944594200,7.28559423828125,-1.4454407691955566,-0.12824440002441406,1.3077677488327026
1761371057963207200,7.304207275390625,-2.0672693252563477,0.19563913345336914,1.4861596822738647
1761371057981818600,7.322818603515625,-2.174877166748047,0.26401424407958984,1.557043433189392
1761371058000431400,7.341431396484375,-2.9282779693603516,0.12117576599121094,1.3500018119812012
1761371058019042800,7.360042724609375,-4.290283679962158,0.06721210479736328,0.7446510791778564
1761371058037655600,7.378655517578125,-5.886186122894287,-0.20685434341430664,0.21598660945892334
1761371058056267000,7.39726708984375,-6.992358684539795,-1.1192059516906738,-0.3889639377593994
1761371058074879700,7.415879638671875,-6.921195030212402,-1.7384943962097168,-0.8365000486373901
1761371058093491200,7.4344912109375,-6.050183296203613,-2.3044028282165527,-1.088578462600708
1761371058112104200,7.453104248046875,-4.331923484802246,-2.241868257522583,-1.2548937797546387
1761371058130715400,7.47171533203125,-1.7788200378417969,-2.49570369720459,-0.46203672885894775
1761371058149328400,7.490328369140625,0.3044309616088867,-2.4118292331695557,0.7695021629333496
1761371058167939600,7.508939697265625,0.9882698059082031,-1.5798945426940918,0.31078553199768066
1761371058186552600,7.527552490234375,1.663456916809082,-0.2595100402832031,-0.5236177444458008
1761371058205163800,7.546163818359375,3.222507953643799,0.8786697387695312,-0.7496786117553711
1761371058223776800,7.56477685546875,5.539076328277588,1.667168140411377,0.2116020917892456
1761371058242388000,7.583387939453125,5.928974628448486,1.5036711692810059,1.3403329849243164
1761371058261001000,7.6020009765625,4.529003620147705,2.6577348709106445,0.9607172012329102
1761371058279612400,7.6206123046875,2.8250479698181152,4.62603759765625,-1.1790283918380737
1761371058298225200,7.63922509765625,2.2139363288879395,3.7635746002197266,-1.8448081016540527
1761371058316836600,7.657836669921875,2.9510679244995117,1.9823002815246582,-1.7341609001159668
1761371058335449300,7.676449462890625,3.507645606994629,0.2803769111633301,-0.22592133283615112
1761371058354060800,7.695060791015625,1.426856517791748,-1.2730016708374023,0.721023678779602
1761371058372673500,7.713673583984375,-1.9807276725769043,-2.891949415206909,0.7441048622131348
1761371058391285000,7.732284912109375,-3.084888458251953,-3.6064958572387695,0.37011802196502686
1761371058409898000,7.75089794921875,-1.6747727394104004,-2.7045180797576904,-0.7190042734146118
1761371058428509200,7.76950927734375,-0.6300315856933594,-2.5856447219848633,-1.4558582305908203
1761371058447122200,7.7881220703125,-1.240335464477539,-2.37213134765625,-1.763399362564087
1761371058465733400,7.8067333984375,-1.4151029586791992,-1.5255839824676514,-2.1769564151763916
1761371058484346400,7.825346435546875,-1.3732004165649414,-0.8204801082611084,-2.6040079593658447
1761371058502957600,7.84395751953125,-1.734848976135254,-0.26705265045166016,-3.2413225173950195
1761371058521570600,7.862570556640625,-3.0241751670837402,-0.001499176025390625,-3.1286067962646484
1761371058540181800,7.881181640625,-4.329410076141357,-0.14104509353637695,-2.3580315113067627
1761371058558794800,7.899794677734375,-4.877549648284912,-0.2645845413208008,-1.5402485132217407
1761371058577406000,7.918406005859375,-4.799133777618408,-0.21033763885498047,-0.9363734722137451
1761371058596019000,7.93701904296875,-3.8254783153533936,-1.0620508193969727,-0.3719642162322998
1761371058614630400,7.95563037109375,-1.7504825592041016,-1.6222467422485352,0.6720046997070312
1761371058633243100,7.9742431640625,1.616267204284668,-1.4623632431030273,1.9629297256469727
1761371058651854600,7.9928544921875,4.089363098144531,-0.4103236198425293,2.807778835296631
1761371058670467300,8.01146728515625,3.4827446937561035,0.7262868881225586,2.687451124191284
1761371058689078800,8.030078857421875,3.241947650909424,2.5816597938537598,1.4548301696777344
1761371058707691500,8.04869140625,3.5798592567443848,4.202452659606934,0.9054014682769775
1761371058726303000,8.067302978515626,4.068514823913574,4.067625999450684,0.09457409381866455
1761371058744916000,8.085916015625,4.357900619506836,3.981781005859375,-0.7187360525131226
1761371058763527200,8.104527099609374,4.567999362945557,5.675431251525879,-0.9710496664047241
1761371058782140200,8.12314013671875,3.9072446823120117,6.523682594299316,-0.887309193611145
1761371058800751400,8.14175146484375,3.7499351501464844,4.894003391265869,0.5508368015289307
1761371058819364400,8.1603642578125,4.735998153686523,2.9455642700195312,2.1448965072631836
1761371058837975600,8.1789755859375,4.428232192993164,0.095611572265625,3.4815006256103516
1761371058856588500,8.197588623046874,2.630967140197754,-1.7620694637298584,2.146484375
1761371058875199700,8.21619970703125,1.045384407043457,-1.304253339767456,-0.5219987630844116
1761371058893812700,8.234812744140624,-1.0379199981689453,-1.0314552783966064,-1.3732588291168213
1761371058912424000,8.253423828125,-3.2385120391845703,-1.6034600734710693,-1.3221170902252197
1761371058931037000,8.272036865234375,-4.88733434677124,-1.9685602188110352,-1.7204532623291016
1761371058949648100,8.290648193359376,-5.045773506164551,-1.6741468906402588,-2.3097102642059326
1761371058968261000,8.30926123046875,-5.205631256103516,-1.6108615398406982,-2.0790820121765137
1761371058986872300,8.327872314453124,-5.888438701629639,-1.8505668640136719,-0.5721448063850403
1761371059005485300,8.3464853515625,-6.223624229431152,-1.8266420364379883,0.5629501938819885
1761371059024096500,8.365096435546874,-5.79652214050293,-2.1242873668670654,1.2575362920761108
1761371059042709500,8.38370947265625,-4.768870830535889,-2.87514328956604,1.391392707824707
1761371059061321000,8.402321044921875,-4.380127429962158,-3.507511854171753,0.9318016767501831
1761371059079933700,8.42093359375,-3.9262781143188477,-3.246150255203247,0.6984455585479736
1761371059098545000,8.439544921875,-3.5944931507110596,-2.8851675987243652,0.7081236839294434
1761371059117158000,8.458157958984375,-2.4702467918395996,-1.766369342803955,0.844687819480896
1761371059135769300,8.476769287109375,-0.18117952346801758,-0.43128204345703125,0.8694162964820862
1761371059154382000,8.495382080078125,2.436455726623535,0.9184670448303223,0.16197852790355682
1761371059172993500,8.51399365234375,5.045196056365967,2.3468751907348633,-0.8950333595275879
1761371059191606300,8.532606201171875,6.4574713706970215,1.9684948921203613,-1.2088664770126343
1761371059210217700,8.5512177734375,6.962424278259277,2.1042914390563965,-1.9673901796340942
1761371059228830500,8.56983056640625,6.609814167022705,4.462323188781738,-2.29107666015625
1761371059247442000,8.58844189453125,6.576437950134277,6.962070465087891,-1.61002779006958
1761371059266054700,8.6070546875,3.85274076461792,6.413808345794678,1.8384407758712769
1761371059284666000,8.625666015625,0.14777278900146484,2.372243881225586,4.1897172927856445
1761371059303278800,8.64427880859375,0.06264114379882812,-0.4223933219909668,1.7007997035980225
1761371059321890300,8.662890380859375,2.8870649337768555,-0.5380659103393555,-0.38786014914512634
1761371059340503000,8.6815029296875,4.051517486572266,0.044525861740112305,0.8778402805328369
1761371059359114500,8.700114501953125,1.3271455764770508,0.6338891983032227,1.2821946144104004
1761371059377727500,8.7187275390625,-2.1490674018859863,0.5890152454376221,0.1232113242149353
1761371059396338700,8.737338623046876,-3.833094596862793,0.7138500213623047,-0.9624804258346558
1761371059414951700,8.75595166015625,-4.519548416137695,1.0817420482635498,-1.8839902877807617
1761371059433563000,8.77456298828125,-4.699656963348389,1.67724609375,-2.5711779594421387
1761371059452176000,8.79317578125,-4.854506492614746,1.7976963520050049,-2.594517707824707
1761371059470787000,8.811787109375,-5.35020637512207,0.6976749897003174,-1.3236868381500244
1761371059489400000,8.830400146484376,-5.070712566375732,-1.1817877292633057,0.3217238783836365
1761371059508011300,8.84901123046875,-4.449160099029541,-1.9142471551895142,0.0597040057182312
1761371059526624300,8.867624267578124,-5.039661407470703,-2.770461082458496,-0.5497339367866516
1761371059545235500,8.8862353515625,-5.5073089599609375,-3.439505100250244,-0.9329906105995178
1761371059563848400,8.904848388671875,-5.038863182067871,-3.1431000232696533,-1.2793701887130737
1761371059582459600,8.923459716796875,-4.619439125061035,-2.4138922691345215,-1.6252374649047852
1761371059601072600,8.94207275390625,-2.589221954345703,-0.9231767654418945,-1.858683466911316
1761371059619683800,8.960683837890626,0.3951606750488281,-0.027240276336669922,-1.2381445169448853
1761371059638296800,8.979296875,2.634939193725586,1.2674951553344727,-1.0624498128890991
1761371059656908000,8.997907958984374,4.960667610168457,3.5040063858032227,-1.1789838075637817
1761371059675521000,9.01652099609375,7.352565765380859,2.657499313354492,-0.2004299908876419
1761371059694132200,9.03513232421875,9.126543998718262,3.7258734703063965,-2.622143030166626
1761371059712745200,9.0537451171875,9.522722244262695,4.746167182922363,-1.0378168821334839
1761371059731356400,9.0723564453125,11.697770118713379,5.2104411125183105,3.4960830211639404
1761371059749969400,9.090969482421874,10.927970886230469,3.846402168273926,6.465309143066406
1761371059768580600,9.10958056640625,4.969564437866211,2.150057792663574,5.9279704093933105
1761371059787193600,9.128193603515625,-2.6730356216430664,1.2247776985168457,1.3551487922668457
1761371059805804800,9.1468046875,-4.203197002410889,0.7970528602600098,-1.5183601379394531
1761371059824417800,9.165417724609375,-1.1360607147216797,-0.4211559295654297,-1.4074435234069824
1761371059843029000,9.184029052734376,0.4970693588256836,-1.3672804832458496,0.08297383785247803
1761371059861642000,9.20264208984375,-1.955331802368164,-1.3632073402404785,0.22451519966125488
1761371059880253200,9.221253173828124,-3.6053762435913086,-1.193509817123413,-0.9480880498886108
1761371059898866200,9.2398662109375,-4.124358177185059,-1.6104881763458252,-1.640509843826294
1761371059917477400,9.258477294921875,-4.169493198394775,-1.5168383121490479,-1.4993419647216797
1761371059936090400,9.27709033203125,-4.376237392425537,-1.4940145015716553,-0.7076126933097839
1761371059954701600,9.29570166015625,-4.755822658538818,-1.7504222393035889,0.07191801071166992
1761371059973314600,9.314314453125,-4.936595439910889,-2.1893765926361084,-0.4174019694328308
1761371059991925800,9.33292578125,-4.533510208129883,-2.683746576309204,-1.4138329029083252
1761371060010538500,9.35153857421875,-3.7458410263061523,-3.2697486877441406,-1.6406285762786865
1761371060029150000,9.37014990234375,-2.7729249000549316,-4.03402042388916,-1.1688119173049927
1761371060047763000,9.388762939453125,-1.5826711654663086,-4.62351131439209,-0.21970337629318237
1761371060066374100,9.4073740234375,-1.9322047233581543,-4.559718608856201,0.4591260552406311
1761371060084987000,9.42598681640625,-3.8076319694519043,-3.0349631309509277,-0.4013882577419281
1761371060103598300,9.444598388671874,-4.298409461975098,-0.9551262855529785,-1.1559112071990967
1761371060122211000,9.463211181640625,0.5469913482666016,2.5861129760742188,-2.438467025756836
1761371060140822500,9.481822509765625,6.886265754699707,4.705770969390869,-2.110090970993042
1761371060159435300,9.500435302734376,8.173138618469238,2.6562700271606445,1.185500979423523
1761371060178046700,9.519046630859375,8.99293327331543,3.6759629249572754,-0.25285428762435913
1761371060196659500,9.537659423828124,8.012947082519531,5.546064853668213,-0.4506235718727112
1761371060215271000,9.55627099609375,6.417059421539307,6.885504245758057,0.9897631406784058
1761371060233883600,9.574883544921875,5.383731365203857,6.559998035430908,3.016866445541382
1761371060252495000,9.5934951171875,2.201596260070801,4.569712162017822,5.116240501403809
1761371060271107800,9.61210791015625,-1.5142617225646973,1.6704225540161133,4.658787727355957
1761371060289719300,9.63071923828125,-1.3645515441894531,-0.2025442123413086,0.48001325130462646
1761371060308332000,9.64933203125,3.014115333557129,-0.2330479621887207,-0.5547361373901367
1761371060326943200,9.667943115234374,4.091792106628418,-0.10315704345703125,2.647489547729492
1761371060345556200,9.68655615234375,0.01172637939453125,-0.26038122177124023,3.544626474380493
1761371060364167400,9.70516748046875,-5.1460700035095215,-0.6732516288757324,2.4848251342773438
1761371060382780400,9.723780517578126,-7.557704448699951,-0.6644763946533203,1.1615498065948486
1761371060401391600,9.7423916015625,-6.959503650665283,-0.17224407196044922,-1.254894733428955
1761371060420004600,9.761004638671874,-5.083124160766602,-0.7041354179382324,-2.021117687225342
1761371060438615800,9.77961572265625,-2.7601094245910645,-1.1609787940979004,-2.754837989807129
1761371060457228800,9.798228759765625,-1.4838871955871582,-2.0796303749084473,-2.4645988941192627
1761371060475840000,9.816840087890625,-1.1605591773986816,-2.7235498428344727,-1.1203042268753052
1761371060494453000,9.835452880859375,-2.1658935546875,-3.3068339824676514,-0.5141425132751465
1761371060513064200,9.854064208984376,-3.416863441467285,-3.388758659362793,-0.7703484892845154
1761371060531677200,9.87267724609375,-3.8302698135375977,-4.079272747039795,-1.5059263706207275
1761371060550288400,9.891288330078124,-2.3636116981506348,-4.673048496246338,-1.73228120803833
1761371060568901400,9.9099013671875,-0.8106398582458496,-4.0487518310546875,-1.7004940509796143
1761371060587512600,9.9285126953125,-0.8443541526794434,-1.365267276763916,-1.300832748413086
1761371060606125600,9.94712548828125,-0.5232019424438477,1.4770402908325195,-0.734966516494751
1761371060624736800,9.96573681640625,1.6071224212646484,3.303492546081543,-0.7197083830833435
1761371060643349800,9.984349853515624,3.7909579277038574,2.534104824066162,-0.4532143473625183
1761371060661961000,10.0029609375,4.217545032501221,2.62394380569458,-1.6420940160751343
1761371060680573700,10.02157373046875,4.749859809875488,3.7740797996520996,-2.6429905891418457
1761371060699185200,10.04018505859375,5.4850945472717285,4.025782108306885,0.2502513527870178
1761371060717798000,10.0587978515625,7.039669513702393,3.846419334411621,3.6023342609405518
1761371060736409300,10.077409423828126,6.293259620666504,2.1728830337524414,5.877530574798584
1761371060755022000,10.09602197265625,2.350421905517578,-0.018131256103515625,4.520252704620361
1761371060773633300,10.11463330078125,-0.7642664909362793,-1.5284199714660645,1.1950438022613525
1761371060792246300,10.133246337890625,0.17489147186279297,-1.1903181076049805,-2.049254894256592
1761371060810857500,10.151857421875,1.5877676010131836,-0.3015778064727783,-0.8037429451942444
1761371060829470500,10.170470458984376,0.8287286758422852,0.047245025634765625,1.7471017837524414
1761371060848081700,10.18908154296875,-2.5429301261901855,0.5638556480407715,2.1789278984069824
1761371060866694700,10.207694580078124,-5.487843990325928,1.2740182876586914,1.2432109117507935
1761371060885305900,10.226305908203125,-5.805350303649902,1.5714850425720215,-0.24623608589172363
1761371060903918800,10.2449189453125,-5.342327117919922,0.506650447845459,-0.8130502700805664
1761371060922530000,10.263530029296875,-4.273917198181152,-0.41941308975219727,-0.9327327609062195
1761371060941143000,10.28214306640625,-3.451056480407715,-1.2236831188201904,-0.7723618745803833
1761371060959754200,10.300754150390626,-3.4492225646972656,-2.021023988723755,-0.6742252111434937
1761371060978367200,10.3193671875,-3.6883444786071777,-2.378376007080078,-0.417621374130249
1761371060996978400,10.337978515625,-4.071305274963379,-2.6726303100585938,-0.02723485231399536
1761371061015591400,10.35659130859375,-3.492882251739502,-2.8938896656036377,-0.24098211526870728
1761371061034202600,10.37520263671875,-2.3742427825927734,-2.8584256172180176,-0.17477411031723022
1761371061052815400,10.3938154296875,-1.3668365478515625,-1.642139196395874,-0.5571961998939514
1761371061071426800,10.4124267578125,0.03354644775390625,0.4014925956726074,-0.4836063086986542
1761371061090039600,10.43103955078125,2.5668716430664062,1.9489765167236328,0.3875059485435486
1761371061108651000,10.449651123046875,4.32440185546875,2.2734198570251465,1.0914299488067627
1761371061127263700,10.468263671875,5.402747631072998,1.6047167778015137,-0.21438080072402954
1761371061145875000,10.486875,6.139670372009277,2.500936508178711,-2.0049965381622314
1761371061164488000,10.505488037109375,6.321957588195801,3.943500518798828,-0.8883662223815918
1761371061183099100,10.52409912109375,5.394031524658203,4.681219577789307,1.3040999174118042
1761371061201712000,10.542712158203125,4.823737144470215,5.039639472961426,2.404275417327881
1761371061220323300,10.5613232421875,3.020566940307617,4.003137111663818,4.281343460083008
1761371061238936300,10.579936279296875,-0.6243166923522949,1.4450173377990723,4.261821746826172
1761371061257547500,10.598547607421875,-2.0651321411132812,-0.14845514297485352,0.9041941165924072
1761371061276160300,10.61716015625,1.3650026321411133,-0.45526838302612305,-1.516722559928894
1761371061294771700,10.635771728515625,3.6085739135742188,-0.2032642364501953,0.14181816577911377
1761371061313384400,10.654384521484374,2.1362876892089844,-0.16661357879638672,2.1850249767303467
1761371061331996000,10.672995849609375,-1.097825050354004,0.061747074127197266,2.5080888271331787
1761371061350608600,10.691608642578124,-3.6446094512939453,0.6078128814697266,0.9371404647827148
1761371061369219800,10.7102197265625,-4.600026607513428,0.5498924255371094,-0.4090307950973511
1761371061387832800,10.728832763671875,-4.638442039489746,-0.3892507553100586,-1.0138821601867676
1761371061406444000,10.747444091796876,-3.570039749145508,-1.7308869361877441,-0.9886032342910767
1761371061425057000,10.76605712890625,-2.7844367027282715,-3.0144026279449463,-0.1633908748626709
1761371061443668200,10.784668212890624,-2.6456971168518066,-3.582537889480591,-0.2936243712902069
1761371061462281200,10.80328125,-3.430600643157959,-3.6151773929595947,-0.26910096406936646
1761371061480892400,10.821892333984374,-4.256711959838867,-3.762502670288086,-0.046292394399642944
1761371061499505200,10.840505126953126,-4.203264236450195,-4.0652031898498535,-0.5885515213012695
1761371061518116600,10.85911669921875,-3.356173038482666,-3.822566270828247,-1.0157067775726318
1761371061536729300,10.877729248046874,-3.5771641731262207,-3.5595617294311523,-0.9916951656341553
1761371061555340800,10.8963408203125,-3.938272714614868,-1.7636370658874512,-1.3163747787475586
1761371061573953500,10.91495361328125,-1.6228394508361816,1.0274004936218262,-1.6528935432434082
1761371061592564700,10.933564697265625,1.9267816543579102,1.4660744667053223,0.23743486404418945
1761371061611177700,10.952177734375,3.180814266204834,1.0236597061157227,1.2008256912231445
