time,seconds_elapsed,z,y,x
1761371027439494400,0.230494384765625,0.7960103154182434,0.8943567276000977,0.8355627059936523
1761371027458105600,0.249105712890625,0.7471425533294678,0.8754204511642456,1.0316447019577026
1761371027476718300,0.26771826171875,0.42514967918395996,0.3733040392398834,1.129380226135254
1761371027495329500,0.28632958984375,0.11972606182098389,-0.0683385357260704,1.0970053672790527
1761371027513942000,0.30494189453125,-0.11361759155988693,-0.3316137194633484,0.9155836701393127
1761371027532553200,0.32355322265625,-0.291374146938324,-0.2143310308456421,0.5221980214118958
1761371027551166000,0.342166015625,-0.45508119463920593,0.23830679059028625,-0.14553436636924744
1761371027569777200,0.360777099609375,-0.4679090082645416,-0.018249060958623886,-0.8895463347434998
1761371027588389600,0.3793896484375,-0.44103172421455383,-0.9467368721961975,-1.5804145336151123
1761371027607000800,0.398000732421875,-0.35978904366493225,-1.9876970052719116,-2.1216251850128174
1761371027625613600,0.416613525390625,-0.15332266688346863,-2.4598820209503174,-2.190040111541748
1761371027644224800,0.435224853515625,0.18936264514923096,-1.9156169891357422,-1.7007514238357544
1761371027662837200,0.453837158203125,0.5338805317878723,-1.0548568964004517,-1.0031639337539673
1761371027681448400,0.472448486328125,0.845488965511322,-0.5393017530441284,-0.3367295563220978
1761371027700061200,0.491061279296875,0.9939248561859131,-0.5136461853981018,0.08055548369884491
1761371027718672400,0.50967236328125,0.1575985997915268,-0.029855160042643547,0.0420721061527729
1761371027737284900,0.528284912109375,-0.6780404448509216,-0.4110238552093506,-0.3843756318092346
1761371027755896000,0.54689599609375,-0.8955020904541016,-1.3419550657272339,-0.6244385838508606
1761371027774508800,0.5655087890625,-0.9333745837211609,-1.836817741394043,-0.40697699785232544
1761371027793120000,0.5841201171875,-0.7641699314117432,-2.0616095066070557,-0.14431266486644745
1761371027811732500,0.602732421875,-0.3005368411540985,-1.845369577407837,-0.18401773273944855
1761371027830343700,0.62134375,0.08551861345767975,-1.6932686567306519,-0.18462859094142914
1761371027848956400,0.639956298828125,0.1948602795600891,-1.6156909465789795,-0.1253764033317566
1761371027867567600,0.658567626953125,0.2620534598827362,-1.577818512916565,-0.2176143378019333
1761371027886180400,0.677180419921875,0.474017471075058,-1.7073180675506592,-0.5639647245407104
1761371027904791300,0.695791259765625,0.8601493239402771,-1.2588798999786377,-0.51998370885849
1761371027923404000,0.714404052734375,1.3421077728271484,-0.23571068048477173,0.41591063141822815
1761371027942015200,0.73301513671875,1.8002432584762573,0.2059318870306015,1.3108018636703491
1761371027960628000,0.7516279296875,1.4630554914474487,0.36902809143066406,1.142818808555603
1761371027979239200,0.7702392578125,0.1178935244679451,-0.08788564801216125,0.13675342500209808
1761371027997851600,0.7888515625,-0.4721849262714386,-0.2650313675403595,-0.6207735538482666
1761371028016462800,0.807462890625,-0.6749862432479858,-0.5130353569984436,-1.1754227876663208
1761371028035075600,0.82607568359375,-0.416597843170166,-0.9644514918327332,-1.2389509677886963
1761371028053686800,0.844686767578125,0.023823043331503868,-1.5032950639724731,-1.0141592025756836
1761371028072299500,0.863299560546875,0.09529217332601547,-1.8551430702209473,-0.904817521572113
1761371028090910500,0.881910400390625,-0.20219044387340546,-1.4396905899047852,-1.265828251838684
1761371028109523200,0.900523193359375,-0.9761339426040649,-0.33466795086860657,-1.8882815837860107
1761371028128134400,0.919134521484375,-1.8594191074371338,0.6530720591545105,-2.1387288570404053
1761371028146747100,0.9377470703125,-2.4898898601531982,1.3220261335372925,-1.9328734874725342
1761371028165358300,0.9563583984375,-2.76721453666687,1.4118207693099976,-1.5003936290740967
1761371028183970800,0.974970703125,-2.8545656204223633,0.873587965965271,-0.8076927661895752
1761371028202582000,0.99358203125,-2.918093681335449,0.031229566782712936,-0.029473381116986275
1761371028221194800,1.01219482421875,-2.796535015106201,-0.699343740940094,0.6315397024154663
1761371028239806000,1.030805908203125,-2.4959981441497803,-1.0970053672790527,1.0719605684280396
1761371028258418700,1.049418701171875,-2.1355984210968018,-1.0970053672790527,1.3645564317703247
1761371028277029600,1.068029541015625,-1.816659688949585,-0.9180271029472351,1.4054832458496094
1761371028295642400,1.086642333984375,-1.4849697351455688,-0.43179264664649963,1.1073896884918213
1761371028314253600,1.105253662109375,-1.0757020711898804,0.14423631131649017,0.5808393955230713
1761371028332866300,1.1238662109375,-0.6236750483512878,0.5528931021690369,0.07566870748996735
1761371028351477500,1.1424775390625,-0.3286358118057251,0.687890350818634,-0.14553436636924744
1761371028370090000,1.161090087890625,-0.16248537600040436,0.7642462849617004,-0.15958385169506073
1761371028388701200,1.179701171875,0.08979454636573792,0.9859838485717773,0.16424155235290527
1761371028407314000,1.19831396484375,0.5454866290092468,1.3226370811462402,0.7219451069831848
1761371028425925000,1.216925048828125,1.1228135824203491,1.6879236698150635,1.1012812852859497
1761371028444537900,1.235537841796875,1.7758092880249023,1.709914207458496,1.4060940742492676
1761371028463149000,1.254149169921875,2.16552996635437,0.8900808095932007,1.8959935903549194
1761371028481761500,1.272761474609375,1.8637713193893433,-0.278469979763031,2.4237656593322754
1761371028500372700,1.291372802734375,0.9481112957000732,-1.4653462171554565,2.1256721019744873
1761371028518985500,1.3099853515625,0.14904673397541046,-1.8826313018798828,1.304693341255188
1761371028537596700,1.3285966796875,-0.32130566239356995,-1.4183109998703003,0.25953373312950134
1761371028556209400,1.34720947265625,-0.6536065936088562,-0.3584909737110138,-0.8840487003326416
1761371028574820400,1.3658203125,-0.6517740488052368,0.5211290717124939,-1.8076497316360474
1761371028593433000,1.38443310546875,-0.4947862923145294,0.7923452258110046,-2.1820991039276123
1761371028612044300,1.403044189453125,-0.5051707029342651,0.7996754050254822,-1.9762436151504517
1761371028630657000,1.421656982421875,-0.6016845703125,0.6836144328117371,-1.690977931022644
1761371028649268200,1.440268310546875,-0.6829272508621216,0.5553365349769592,-1.824142575263977
1761371028667880700,1.458880615234375,-0.948034942150116,0.23708508908748627,-2.4001715183258057
1761371028686492000,1.477491943359375,-1.1807677745819092,-0.09399411827325821,-2.9225223064422607
1761371028705104600,1.496104736328125,-1.0958600044250488,-0.07017108052968979,-2.833949565887451
1761371028723715800,1.5147158203125,-0.8038749694824219,0.1790546029806137,-2.299992561340332
1761371028742328600,1.53332861328125,-0.5625903010368347,0.2193705290555954,-1.735569715499878
1761371028760939800,1.551939697265625,-0.3799470067024231,-0.0946049690246582,-1.260941505432129
1761371028779552300,1.57055224609375,-0.16492876410484314,-0.5197546482086182,-0.7643226385116577
1761371028798163500,1.58916357421875,0.10995250940322876,-0.8490013480186462,-0.25121092796325684
1761371028816776200,1.607776123046875,0.4159869849681854,-0.9161945581436157,0.253425270318985
1761371028835387400,1.626387451171875,0.61397784948349,-0.754930853843689,0.663303792476654
1761371028854000000,1.645000244140625,0.60909104347229,-0.643756628036499,0.9320765733718872
1761371028872611300,1.663611328125,0.46851983666419983,-0.5704549551010132,0.9736141562461853
1761371028891224000,1.68222412109375,0.2883199155330658,-0.4983749985694885,0.6736881732940674
1761371028909835000,1.7008349609375,0.15087927877902985,-0.3817031681537628,-0.04046862944960594
1761371028928447700,1.71944775390625,0.18691925704479218,-0.05795413255691528,-0.5328115224838257
1761371028947059000,1.738058837890625,0.31092125177383423,0.7587486505508423,-0.47172680497169495
1761371028965671700,1.756671630859375,0.16126367449760437,1.1319763660430908,-0.031916771084070206
1761371028984283000,1.775282958984375,-0.17286977171897888,0.8027296662330627,0.5625139474868774
1761371029002895600,1.7938955078125,-0.3139754831790924,-0.030466007068753242,1.1006704568862915
1761371029021506600,1.812506591796875,-0.7488987445831299,-0.51425701379776,1.2460520267486572
1761371029040119300,1.831119384765625,-1.5747642517089844,-0.46844348311424255,0.9516236782073975
1761371029058730500,1.84973046875,-1.6254645586013794,0.0019088976550847292,0.5417451858520508
1761371029077343200,1.86834326171875,-1.0121738910675049,-0.022524992004036903,0.010308047756552696
1761371029095954400,1.886954345703125,-1.174659252166748,-0.44339874386787415,-0.8864920735359192
1761371029114567200,1.905567138671875,-1.4764177799224854,-0.39086589217185974,-1.0141592025756836
1761371029133178000,1.92417822265625,-1.0066763162612915,-0.5405234694480896,-0.7227849960327148
1761371029151790800,1.942790771484375,-0.3268032968044281,-0.9717816114425659,-0.7490514516830444
1761371029170402000,1.961402099609375,0.24311721324920654,-0.8716026544570923,-1.1338852643966675
1761371029189014800,1.980014892578125,0.5509842038154602,0.3354314863681793,-1.8583500385284424
1761371029207626000,1.9986259765625,0.26877278089523315,1.9896821975708008,-2.2627310752868652
1761371029226238700,2.01723876953125,-0.21868331730365753,2.2749478816986084,-2.221193313598633
1761371029244850000,2.035849853515625,-0.2919849753379822,1.0244672298431396,-1.7984870672225952
1761371029263462400,2.05446240234375,-0.25716668367385864,-0.1355317384004593,-1.204743504524231
1761371029282073600,2.073073486328125,0.13682979345321655,-0.5912237763404846,-0.4405735731124878
1761371029300686300,2.091686279296875,0.7746306657791138,-0.4977641701698303,0.2247154414653778
1761371029319297500,2.110297607421875,1.2254359722137451,-0.5704549551010132,0.5875586867332458
1761371029337910300,2.12891015625,1.364098310470581,-0.7689803242683411,0.8453362584114075
1761371029356521500,2.147521484375,0.9939248561859131,-0.8874847292900085,0.8935931921005249
1761371029375134000,2.166134033203125,0.5711421966552734,-0.7983010411262512,0.8990908265113831
1761371029393745200,2.1847451171875,0.3286358118057251,-0.34932827949523926,0.9577321410179138
1761371029412358000,2.20335791015625,0.312142938375473,0.00862821750342846,1.0316447019577026
1761371029430969000,2.221968994140625,0.45508119463920593,0.18821731209754944,1.2112337350845337
1761371029449581800,2.240581787109375,0.6127561330795288,-0.07627955079078674,1.4861149787902832
1761371029468193000,2.259193115234375,0.4043808877468109,-0.6468108892440796,1.6321074962615967
1761371029486805800,2.2778056640625,-0.16615045070648193,-0.9528453946113586,1.4818390607833862
1761371029505416700,2.296416748046875,-0.5082249045372009,-0.36276692152023315,1.2271157503128052
1761371029524029400,2.315029541015625,-0.5241069197654724,0.8125032186508179,0.9937721490859985
1761371029542640600,2.333640625,-0.3658975064754486,1.2206255197525024,0.5716766715049744
1761371029561253400,2.35225341796875,-0.40193748474121094,1.0043092966079712,0.3426089584827423
1761371029579864600,2.370864501953125,-0.3139754831790924,-0.12026055157184601,0.537469208240509
1761371029598477300,2.389477294921875,-0.8167027831077576,-1.375551700592041,0.6614712476730347
1761371029617088500,2.408088623046875,-2.047559976577759,-1.1703070402145386,-0.37948885560035706
1761371029635701200,2.426701171875,-2.4410219192504883,0.38491013646125793,-1.7453433275222778
1761371029654312200,2.445312255859375,-2.1527020931243896,1.1582427024841309,-1.7532843351364136
1761371029672925000,2.463925048828125,-2.4905006885528564,0.3641413152217865,-1.2810994386672974
1761371029691536100,2.4825361328125,-2.94069504737854,0.24197186529636383,-1.55170476436615
1761371029710148900,2.50114892578125,-2.329847812652588,1.061728835105896,-1.5987399816513062
1761371029728760000,2.519760009765625,-1.1441168785095215,1.0128611326217651,-0.9347490072250366
1761371029747372800,2.538372802734375,-0.42514967918395996,0.43438875675201416,0.13858596980571747
1761371029765984000,2.55698388671875,-0.0787992998957634,-0.18073442578315735,1.3181320428848267
1761371029784596500,2.575596435546875,0.04581354558467865,-0.7720345854759216,1.7579420804977417
1761371029803207700,2.594207763671875,0.3701734244823456,-0.8239566087722778,1.491001844406128
1761371029821820400,2.6128203125,0.7227086424827576,-0.3945309817790985,0.9846094250679016
1761371029840431600,2.631431640625,0.7789065837860107,-0.12270393967628479,0.746379017829895
1761371029859044400,2.65004443359375,0.37506023049354553,-0.19417306780815125,1.4152567386627197
1761371029877655600,2.668655517578125,0.1441599577665329,-0.9143620133399963,2.489737033843994
1761371029896268300,2.687268310546875,0.18569757044315338,-0.9320765733718872,2.809286594390869
1761371029914879500,2.70587939453125,0.6396334171295166,-0.4653892517089844,2.9375643730163574
1761371029933492000,2.724491943359375,0.9084062576293945,0.053830914199352264,2.9259583950042725
1761371029952103200,2.743103271484375,0.6353574991226196,0.1918824017047882,2.8343312740325928
1761371029970716000,2.7617158203125,0.3683409094810486,0.18699561059474945,2.817838430404663
1761371029989327000,2.7803271484375,0.32252734899520874,-0.22410458326339722,3.0420193672180176
1761371030007939800,2.79893994140625,0.25472331047058105,-0.5710658431053162,3.164188861846924
1761371030026551000,2.817551025390625,0.09895725548267365,-0.4739411175251007,2.7677488327026367
1761371030045163500,2.83616357421875,-0.15454435348510742,-0.4513397812843323,1.8819440603256226
1761371030063774700,2.854774658203125,-0.337798535823822,-0.8832087516784668,0.7249993681907654
1761371030082387500,2.873387451171875,0.03298575058579445,-0.9919396042823792,0.09155073016881943
1761371030100998700,2.89199853515625,0.38666632771492004,-1.2717076539993286,-0.2170034945011139
1761371030119611400,2.910611328125,0.4434750974178314,-1.6059174537658691,-0.6720846891403198
1761371030138222600,2.92922265625,0.4172086715698242,-1.4189218282699585,-1.3788349628448486
1761371030156835300,2.94783544921875,0.8344936966896057,-1.2509387731552124,-2.386733055114746
1761371030175446500,2.966446533203125,1.385477900505066,-0.875267744064331,-3.3030800819396973
1761371030194059300,2.985059326171875,0.8241093158721924,-0.7866948843002319,-3.822300434112549
1761371030212670200,3.003670166015625,-0.6859814524650574,-1.7305302619934082,-3.813748598098755
1761371030231283000,3.022282958984375,-1.165496587753296,-2.0237369537353516,-2.6341261863708496
1761371030249894100,3.04089404296875,-0.6139014959335327,-1.445188283920288,-1.366618037223816
1761371030268507000,3.0595068359375,-0.013438640162348747,-0.5209763646125793,-0.9604045748710632
1761371030287118000,3.0781181640625,0.27854636311531067,0.04283566400408745,-0.811357855796814
1761371030305730800,3.096730712890625,0.16798299551010132,-0.010918894782662392,-0.6342121958732605
1761371030324342000,3.115342041015625,-0.08796200156211853,-0.09093988686800003,-0.4039227366447449
1761371030342954500,3.13395458984375,-0.2235700935125351,0.13079766929149628,-0.004428642801940441
1761371030361565700,3.152565673828125,-0.2602209448814392,0.42339351773262024,0.6071057915687561
1761371030380178400,3.171178466796875,-0.21379654109477997,0.7770740985870361,1.1244934797286987
1761371030398789600,3.18978955078125,-0.0659715011715889,0.8515974283218384,1.4457991123199463
1761371030417402400,3.20840234375,0.13499724864959717,0.7019398808479309,1.6919705867767334
1761371030436013600,3.227013671875,0.35917818546295166,0.482034832239151,1.9973942041397095
1761371030454626300,3.245626220703125,0.5534276366233826,0.2963372766971588,2.286324977874756
1761371030473237500,3.264237548828125,0.6671215891838074,-0.0011453386396169662,2.414602756500244
1761371030491850000,3.28285009765625,0.6781167984008789,-0.44523128867149353,2.2655560970306396
1761371030510461200,3.301461181640625,0.3536805510520935,-1.129380226135254,1.7029658555984497
1761371030529074000,3.320073974609375,-0.45202696323394775,-1.601030707359314,1.018206000328064
1761371030547685000,3.33868505859375,-1.5136795043945312,-1.5161229372024536,0.12026055157184601
1761371030566297900,3.3572978515625,-2.050614356994629,-0.7127823829650879,-0.9817842841148376
1761371030584909000,3.375908935546875,-1.534448266029358,1.200391173362732,-1.797876238822937
1761371030603521800,3.394521728515625,-0.6126797795295715,2.056875467300415,-2.932295799255371
1761371030622133000,3.413133056640625,-0.1178935244679451,1.644553542137146,-3.958519220352173
1761371030640745700,3.431745849609375,-0.23151111602783203,1.1857309341430664,-4.056865692138672
1761371030659357000,3.45035693359375,-0.418430358171463,0.22975492477416992,-3.062406301498413
1761371030677969400,3.468969482421875,-0.5125008225440979,-1.2521605491638184,-2.0373282432556152
1761371030696580600,3.48758056640625,-0.5790832042694092,-2.3450427055358887,-1.4582451581954956
1761371030715193300,3.506193359375,-0.633448600769043,-2.3768067359924316,-1.21818208694458
1761371030733804500,3.524804443359375,-0.4618005156517029,-1.1910758018493652,-1.2792668342590332
1761371030752417300,3.543417236328125,0.03665083646774292,0.45027077198028564,-1.3330214023590088
1761371030771028500,3.562028564453125,0.5326588153839111,1.417318344116211,-1.1564866304397583
1761371030789641200,3.58064111328125,0.7037724256515503,1.4154858589172363,-0.4674508571624756
1761371030808252200,3.599252197265625,0.7795174717903137,0.9908705949783325,0.574120044708252
1761371030826865000,3.617864990234375,0.8399913311004639,0.2871745824813843,1.7872626781463623
1761371030845476000,3.63647607421875,0.924288272857666,-0.6810183525085449,2.9143521785736084
1761371030864088800,3.6550888671875,0.8442672491073608,-1.4280844926834106,3.6113290786743164
1761371030882700000,3.673699951171875,0.6463527679443359,-1.483747959136963,3.830623149871826
1761371030901312800,3.692312744140625,0.5430431962013245,-0.8300650715827942,3.5508551597595215
1761371030919924000,3.710924072265625,0.5625903010368347,0.09597937762737274,3.087222099304199
1761371030938536700,3.72953662109375,0.47890424728393555,0.5510605573654175,2.789128541946411
1761371030957148000,3.74814794921875,0.22723518311977386,0.29450473189353943,2.745147466659546
1761371030975760400,3.766760498046875,-0.011606098152697086,-0.537469208240509,2.7097184658050537
1761371030994371600,3.78537158203125,-0.05864133685827255,-1.0670738220214844,2.5575411319732666
1761371031012984300,3.803984375,-0.08918370306491852,-0.7830298542976379,2.2942659854888916
1761371031031595500,3.822595458984375,-0.21318569779396057,-0.48127129673957825,1.8966044187545776
1761371031050208300,3.841208251953125,-0.5051707029342651,-0.7414922118186951,1.1910758018493652
1761371031068819500,3.8598193359375,-0.8405258059501648,-0.44339874386787415,0.26075541973114014
1761371031087432200,3.87843212890625,-0.7739434838294983,-0.015194825828075409,-0.8663341403007507
1761371031106043400,3.89704345703125,-0.522885262966156,-0.7512657642364502,-2.4227728843688965
1761371031124655900,3.91565576171875,-0.5815265774726868,-0.963229775428772,-3.7410576343536377
1761371031143267000,3.93426708984375,-0.8582404255867004,0.07765395939350128,-4.0238800048828125
1761371031161879800,3.9528798828125,-1.0164498090744019,1.1069315671920776,-3.681194543838501
1761371031180491000,3.971490966796875,-0.856407880783081,1.3641746044158936,-3.281700611114502
1761371031199103700,3.990103759765625,-0.5051707029342651,0.9175689220428467,-2.8095157146453857
1761371031217715000,4.00871484375,-0.26877278089523315,0.24746949970722198,-2.146669864654541
1761371031236327700,4.02732763671875,-0.36101073026657104,-0.44523128867149353,-1.394106149673462
1761371031254939000,4.04593896484375,-0.7116370797157288,-1.0017131567001343,-0.8186880350112915
1761371031273551600,4.064551513671875,-0.8790091872215271,-0.8606074452400208,-0.35138988494873047
1761371031292162800,4.083162841796875,-0.6927008032798767,-0.12453648447990417,0.1721825748682022
1761371031310775300,4.101775390625,-0.2223484069108963,0.5999283790588379,0.6645254492759705
1761371031329386500,4.120386474609375,0.1563768982887268,0.6628456115722656,1.0304229259490967
1761371031347999200,4.138999267578125,0.1979145109653473,0.21142950654029846,1.2979741096496582
1761371031366610400,4.1576103515625,0.06902574002742767,-0.19356222450733185,1.6339401006698608
1761371031385223200,4.17622314453125,-0.17592400312423706,-0.4482855200767517,1.811085820198059
1761371031403834400,4.19483447265625,-0.554649293422699,-0.31206658482551575,1.9027128219604492
1761371031422446800,4.21344677734375,-0.81425940990448,-0.08849649876356125,2.0157196521759033
1761371031441058000,4.23205810546875,-0.9425373077392578,-0.0683385357260704,2.1720964908599854
1761371031459670800,4.2506708984375,-1.0158389806747437,-0.0426829531788826,2.263112783432007
1761371031478282000,4.269281982421875,-1.1001359224319458,0.24319356679916382,2.142164945602417
1761371031496894700,4.287894775390625,-1.2449066638946533,0.5718293786048889,2.0566463470458984
1761371031515506000,4.306505859375,-1.5906462669372559,0.271903395652771,2.0975730419158936
1761371031534118700,4.32511865234375,-1.845369577407837,0.1424037665128708,2.3694002628326416
1761371031552729900,4.343729736328125,-1.9724258184432983,0.13568444550037384,2.208136558532715
1761371031571342600,4.362342529296875,-1.479472041130066,0.26212984323501587,1.5979000329971313
1761371031589953800,4.380953857421875,-0.5894675850868225,-1.1788588762283325,0.32672691345214844
1761371031608566300,4.399566162109375,0.025655584409832954,-3.0652315616607666,-1.602405071258545
1761371031627177500,4.418177490234375,0.22784602642059326,-2.3627572059631348,-3.165639638900757
1761371031645790200,4.436790283203125,0.7178218960762024,-1.0591328144073486,-4.029377460479736
1761371031664401400,4.4554013671875,1.334777593612671,-0.02924431301653385,-4.007997989654541
1761371031683014100,4.47401416015625,1.6249300241470337,0.585878849029541,-3.2291676998138428
1761371031701625300,4.492625244140625,1.382423758506775,1.0226346254348755,-2.2022571563720703
1761371031720238000,4.511238037109375,0.44958359003067017,0.5950415730476379,-1.6628789901733398
1761371031738849300,4.529849365234375,-0.5265503525733948,-0.5203655362129211,-1.8736212253570557
1761371031757461800,4.548461669921875,-0.6206207871437073,-0.2937411665916443,-1.7813832759857178
1761371031776073000,4.567072998046875,-0.007941014133393764,1.1710705757141113,-1.0208784341812134
1761371031794685700,4.585685791015625,0.7178218960762024,2.218139171600342,-0.06978929787874222
1761371031813297000,4.604296875,1.1661838293075562,2.270672082901001,0.7811973094940186
1761371031831909600,4.62290966796875,1.1637403964996338,1.5407094955444336,1.4164783954620361
1761371031850520800,4.641520751953125,0.8308286070823669,0.8601493239402771,1.888663411140442
1761371031869133600,4.660133544921875,0.4196520745754242,0.563277542591095,2.246009111404419
1761371031887744800,4.678744873046875,0.07635590434074402,0.539454460144043,2.3639025688171387
1761371031906357500,4.697357421875,-0.22662433981895447,0.25052374601364136,2.379173755645752
1761371031924968700,4.71596875,-0.4813476502895355,-0.16851748526096344,2.437204122543335
1761371031943581200,4.734581298828125,-0.5845808386802673,-0.07872293889522552,2.416435480117798
1761371031962192400,4.7531923828125,-0.6071822047233582,0.405678927898407,2.2307379245758057
1761371031980805000,4.77180517578125,-0.7916580438613892,0.7501968145370483,2.0334341526031494
1761371031999416300,4.790416259765625,-0.8655705451965332,1.6622681617736816,1.96135413646698
1761371032018029000,4.809029052734375,-0.7941014170646667,1.7960436344146729,1.6296641826629639
1761371032036640300,4.82764013671875,-0.7702783942222595,1.1857309341430664,0.8929823637008667
1761371032055252700,4.846252685546875,-0.48806697130203247,1.510167121887207,0.21860696375370026
1761371032073864000,4.864864013671875,-0.15149012207984924,0.845488965511322,-0.7295043468475342
1761371032092476700,4.8834765625,-0.21990501880645752,-0.1740151196718216,-1.7630579471588135
1761371032111087900,4.902087890625,-0.4367557764053345,-0.7750887870788574,-2.717888593673706
1761371032129700600,4.92070068359375,-0.5161659121513367,-0.4214082658290863,-3.273148775100708
1761371032148311800,4.939311767578125,-0.44958359003067017,-0.04940227046608925,-3.4020373821258545
1761371032166924500,4.957924560546875,-0.0390942245721817,-0.5130353569984436,-2.8614375591278076
1761371032185535700,4.97653564453125,0.38788801431655884,-1.1953517198562622,-1.7001405954360962
1761371032204148500,4.9951484375,0.4202629029750824,-1.6004197597503662,-0.30740886926651
1761371032222759700,5.013759765625,0.19974705576896667,-1.6358489990234375,1.1012812852859497
1761371032241372200,5.0323720703125,-0.0916270911693573,-1.083566665649414,2.197141170501709
1761371032259983400,5.0509833984375,-0.33230090141296387,-0.5276956558227539,2.6858954429626465
1761371032278596000,5.06959619140625,-0.5204418897628784,-0.18989713490009308,2.6271777153015137
1761371032297207300,5.088207275390625,-0.70797199010849,0.0019088976550847292,2.22279691696167
1761371032315820000,5.106820068359375,-0.7751652002334595,0.0031305921729654074,1.6088953018188477
1761371032334431200,5.12543115234375,-0.7091936469078064,0.12163496017456055,0.9894962310791016
1761371032353044000,5.1440439453125,-0.546097457408905,0.482034832239151,0.5637356638908386
1761371032371655200,5.1626552734375,-0.550373375415802,0.4704287350177765,0.250981867313385
1761371032390267600,5.181267578125,-0.762948215007782,0.6005392074584961,0.3603235185146332
1761371032408878800,5.19987890625,-0.9571976661682129,0.7605811953544617,0.8990908265113831
1761371032427491600,5.21849169921875,-0.9883508682250977,0.5131880640983582,1.3963204622268677
1761371032446102800,5.237102783203125,-0.7495095729827881,-0.23143476247787476,1.6547088623046875
1761371032464715500,5.255715576171875,-0.3133646547794342,-0.7860840559005737,1.6840295791625977
1761371032483326700,5.27432666015625,0.13988402485847473,-0.6871268153190613,1.5337611436843872
1761371032501939500,5.292939453125,0.37322768568992615,-0.3016822040081024,1.0768473148345947
1761371032520550700,5.311550537109375,0.32130566239356995,0.18882815539836884,0.28763270378112793
1761371032539163400,5.330163330078125,0.21623992919921875,0.3079433739185333,-0.7814263701438904
1761371032557774600,5.348774658203125,0.1698155403137207,-0.2271588295698166,-1.9835737943649292
1761371032576387000,5.367386962890625,0.42759308218955994,-1.8019994497299194,-2.8492207527160645
1761371032594998300,5.385998291015625,0.32313820719718933,-2.9784913063049316,-3.6512632369995117
1761371032613611000,5.404611083984375,0.12094775587320328,-2.3975753784179688,-4.012273788452148
1761371032632222200,5.42322216796875,0.25533416867256165,-0.7304969429969788,-3.874833345413208
1761371032650835000,5.4418349609375,0.34879377484321594,0.6066476702690125,-3.4631221294403076
1761371032669446100,5.460446044921875,0.3640649616718292,1.4411413669586182,-2.6219091415405273
1761371032688059000,5.479058837890625,0.21379654109477997,1.4612993001937866,-1.6146219968795776
1761371032706670000,5.497670166015625,-0.15515519678592682,0.6426876783370972,-0.7062921524047852
1761371032725282800,5.51628271484375,-0.363454133272171,-0.24670593440532684,-0.06673506647348404
1761371032743893800,5.534893798828125,-0.3781144618988037,-0.5325824618339539,0.33833301067352295
1761371032762506500,5.553506591796875,-0.35795649886131287,-0.5435777306556702,0.6376481652259827
1761371032781117700,5.57211767578125,-0.31031039357185364,-0.5087594389915466,0.8007444143295288
1761371032799730400,5.59073046875,-0.28282228112220764,-0.20700086653232574,0.9094752073287964
1761371032818341600,5.609341552734375,-0.3396310806274414,0.2199813723564148,1.0365314483642578
1761371032836954400,5.627954345703125,-0.5112791657447815,0.5412870049476624,1.209401249885559
1761371032855565600,5.646565673828125,-0.6951441764831543,0.641465961933136,1.3602805137634277
1761371032874178300,5.66517822265625,-0.8496885299682617,0.6432985067367554,1.4604594707489014
1761371032892789200,5.683789306640625,-0.9950701594352722,0.4417189359664917,1.563692569732666
1761371032911402000,5.702402099609375,-1.1129636764526367,0.10025530308485031,1.7335081100463867
1761371032930013200,5.72101318359375,-1.0567657947540283,-0.015805672854185104,1.8575102090835571
1761371032948626000,5.7396259765625,-0.7757760286331177,-0.18317782878875732,1.7041875123977661
1761371032967237000,5.758237060546875,-0.21868331730365753,-0.9919396042823792,1.2546038627624512
1761371032985849900,5.776849853515625,0.5577035546302795,-1.6303513050079346,0.9699490666389465
1761371033004461000,5.7954609375,0.7220978140830994,-1.3596696853637695,0.9143620133399963
1761371033023073800,5.81407373046875,0.4618005156517029,-0.13675342500209808,1.1446514129638672
1761371033041685000,5.83268505859375,0.5882459282875061,0.5406761765480042,1.1031137704849243
1761371033060297700,5.851297607421875,0.7611920237541199,0.23525254428386688,0.3279486298561096
1761371033078909000,5.869908935546875,0.6915554404258728,-0.33833301067352295,-1.145491361618042
1761371033097521700,5.888521728515625,0.1979145109653473,0.47531551122665405,-2.9127488136291504
1761371033116132900,5.9071328125,0.10873081535100937,1.0867736339569092,-3.935917854309082
1761371033134745300,5.925745361328125,0.7251520752906799,0.5932090282440186,-3.6103363037109375
1761371033153356500,5.9443564453125,0.9963682293891907,-0.15568970143795013,-2.271282911300659
1761371033171969300,5.96296923828125,0.5094466209411621,-0.7744779586791992,-0.7618792653083801
1761371033190580500,5.98158056640625,-0.25655585527420044,-0.718280017375946,0.1349208950996399
1761371033209193200,6.000193115234375,-0.5674771070480347,-0.14897038042545319,0.20455747842788696
1761371033227804400,6.018804443359375,-0.25289076566696167,0.4453839957714081,-0.14736689627170563
1761371033246417200,6.037417236328125,0.10323318839073181,0.6542937755584717,-0.39170581102371216
1761371033265028400,6.0560283203125,0.02870982140302658,0.7068266272544861,-0.149199441075325
1761371033283641000,6.07464111328125,-0.39766156673431396,0.7135459780693054,0.5661790370941162
1761371033302252300,6.093252197265625,-1.007897973060608,0.5669426321983337,1.2924764156341553
1761371033320864800,6.11186474609375,-1.4110571146011353,0.5156314373016357,1.6779210567474365
1761371033339476000,6.13047607421875,-1.4745852947235107,0.7001073360443115,1.653487205505371
1761371033358088700,6.149088623046875,-1.1215155124664307,0.5046361684799194,1.468400478363037
1761371033376700000,6.167699951171875,-0.5558710098266602,0.12530004978179932,1.3657780885696411
1761371033395312600,6.186312744140625,-0.2907632887363434,0.056274302303791046,1.5991218090057373
1761371033413923800,6.204923828125,-0.5589252710342407,0.141182079911232,2.0163304805755615
1761371033432536600,6.22353662109375,-0.9284878373146057,0.24869118630886078,2.1861460208892822
1761371033451147800,6.242147705078125,-0.8008207678794861,-0.3151208162307739,1.990064024925232
1761371033469760500,6.260760498046875,-0.34573954343795776,-1.04569411277771,1.674866795539856
1761371033488371700,6.279371826171875,0.3658975064754486,-0.9278006553649902,1.5349828004837036
1761371033506984400,6.297984375,0.7263737320899963,-0.4214082658290863,1.1739721298217773
1761371033525595600,6.316595703125,0.877252995967865,-0.27236151695251465,0.5405234694480896
1761371033544208400,6.33520849609375,0.8509865999221802,-0.3462740480899811,-0.4931064546108246
1761371033562819600,6.353819580078125,0.6121453046798706,-0.29862794280052185,-1.9811303615570068
1761371033581432000,6.37243212890625,0.5961869359016418,-0.053678203374147415,-3.325681447982788
1761371033600043300,6.391043212890625,0.7556943893432617,0.34520506858825684,-3.7166237831115723
1761371033618656000,6.409656005859375,0.9187906384468079,0.17722205817699432,-3.2395520210266113
1761371033637267200,6.42826708984375,0.7111025452613831,-0.08788564801216125,-2.2889974117279053
1761371033655880000,6.4468798828125,0.18814095854759216,0.5742727518081665,-1.3751698732376099
1761371033674491100,6.4654912109375,-0.19974705576896667,1.4515258073806763,-0.7966975569725037
1761371033693103900,6.484103759765625,-0.22967857122421265,1.6250064373016357,-0.05268557742238045
1761371033711715000,6.502715087890625,-0.3542914092540741,-0.12270393967628479,0.5105919241905212
1761371033730327800,6.521327880859375,-0.5809157490730286,-1.0780690908432007,0.5716766715049744
1761371033748939000,6.53993896484375,-0.6175665855407715,-1.042639970779419,0.2137201875448227
1761371033767551700,6.5585517578125,-0.7140804529190063,-0.3303920030593872,0.00786465872079134
1761371033786163000,6.577162841796875,-0.9248227477073669,0.3268796503543854,-0.02641914412379265
1761371033804775700,6.595775634765625,-1.1734375953674316,0.6530720591545105,0.034131091088056564
1761371033823387000,6.614386962890625,-1.1771026849746704,0.6298598647117615,0.25892287492752075
1761371033841999600,6.63299951171875,-0.9150491952896118,0.19738002121448517,0.666968822479248
1761371033860610800,6.65161083984375,-0.6572716236114502,-0.1330883502960205,1.272929310798645
1761371033879223600,6.6702236328125,-0.5668662786483765,-0.022524992004036903,2.101238250732422
1761371033897834500,6.68883447265625,-0.70308518409729,0.3091650605201721,2.3779520988464355
1761371033916447200,6.707447265625,-0.6560499668121338,0.023899398744106293,2.0651981830596924
1761371033935058400,6.726058349609375,-0.522885262966156,-0.5435777306556702,1.6540980339050293
1761371033953671200,6.744671142578125,-0.5589252710342407,-0.5900021195411682,1.324851393699646
1761371033972282400,6.763282470703125,-0.6499415040016174,-0.8422819972038269,0.8923714756965637
1761371033990895000,6.78189501953125,-0.6316160559654236,-0.6907919049263,0.6309288740158081
1761371034009506300,6.80050634765625,-0.46729815006256104,0.4185067415237427,0.4647783935070038
1761371034028119000,6.819119140625,-0.17958909273147583,0.8638143539428711,-0.21333840489387512
1761371034046730200,6.837730224609375,0.14721418917179108,-0.7488223910331726,-1.4808465242385864
1761371034065343000,6.856343017578125,0.5754181146621704,-2.400629758834839,-2.8290627002716064
1761371034083954200,6.8749541015625,0.444085955619812,-2.424452781677246,-3.9664602279663086
1761371034102567000,6.89356689453125,0.3921639323234558,-0.703619658946991,-4.34518575668335
1761371034121178000,6.91217822265625,0.7080483436584473,0.31954947113990784,-4.080078125
1761371034139790800,6.930790771484375,0.9291750192642212,0.6060368418693542,-3.125323534011841
1761371034158402000,6.949402099609375,0.8986326456069946,0.2077644169330597,-1.8559067249298096
1761371034177014800,6.968014892578125,0.4715740978717804,-0.3725404739379883,-0.8101361989974976
1761371034195626000,6.9866259765625,-0.034818295389413834,-0.3694862425327301,-0.22555534541606903
1761371034214238700,7.00523876953125,-0.1459924876689911,-0.054899897426366806,0.10071343928575516
1761371034232850000,7.023849853515625,-0.07330167293548584,0.4514924883842468,0.2760266065597534
1761371034251462700,7.042462646484375,-0.045202698558568954,0.8619818091392517,0.39208757877349854
1761371034270073900,7.061073974609375,-0.02504473738372326,1.0922712087631226,0.5124244689941406
1761371034288686300,7.079686279296875,-0.029320668429136276,1.0269105434417725,0.6700230836868286
1761371034307297500,7.098297607421875,-0.10078980028629303,0.5418978929519653,0.7818081378936768
1761371034325910300,7.11691015625,-0.09712471067905426,0.14729054272174835,0.9436826705932617
1761371034344521500,7.135521484375,0.07574506103992462,-0.031076854094862938,1.1501489877700806
1761371034363134200,7.15413427734375,0.15515519678592682,0.09475768357515335,1.4280844926834106
1761371034381745400,7.172745361328125,0.1056765764951706,0.4130091071128845,1.8294111490249634
1761371034400358100,7.191358154296875,0.004886778071522713,0.4136199355125427,2.1061248779296875
1761371034418969300,7.20996923828125,-0.1429382562637329,-0.2613662779331207,1.9980050325393677
1761371034437582000,7.22858203125,-0.3164188861846924,-1.0493592023849487,1.4054832458496094
1761371034456193300,7.247193359375,-0.4453076422214508,-1.0927294492721558,0.6883485317230225
1761371034474806000,7.265805908203125,-0.45508119463920593,-0.05306735634803772,0.11659546941518784
1761371034493417200,7.284417236328125,-0.22906772792339325,1.3916627168655396,-0.3849864900112152
1761371034512030000,7.303030029296875,0.12094775587320328,2.008007764816284,-0.8968765139579773
1761371034530641200,7.32164111328125,0.09651386737823486,0.428891122341156,-1.945090413093567
1761371034549254000,7.34025390625,-0.2498365342617035,-1.4445774555206299,-3.2804789543151855
1761371034567865000,7.358864990234375,-0.6426113247871399,-1.7506881952285767,-3.973179578781128
1761371034586477800,7.377477783203125,-0.712247908115387,-0.9558995962142944,-3.8387932777404785
1761371034605089000,7.396089111328125,-0.38727715611457825,0.053830914199352264,-2.8779304027557373
1761371034623701800,7.41470166015625,0.07696675509214401,0.21142950654029846,-1.4851224422454834
1761371034642313000,7.43331298828125,0.28037887811660767,-0.23143476247787476,-0.11682453751564026
1761371034660925700,7.45192578125,0.2235700935125351,-0.7469898462295532,0.8514447212219238
1761371034679537000,7.470536865234375,0.08796200156211853,-1.175804615020752,1.2142879962921143
1761371034698149600,7.489149658203125,-0.0647498071193695,-1.420754313468933,1.1086114645004272
1761371034716760800,7.5077607421875,-0.08490777015686035,-1.351117730140686,0.9247463941574097
1761371034735373600,7.52637353515625,0.021990500390529633,-0.9571213126182556,1.064630389213562
1761371034753984800,7.54498486328125,-0.038483377546072006,-0.5686224699020386,1.4054832458496094
1761371034772597500,7.563597412109375,-0.13682979345321655,-0.06528430432081223,1.7567203044891357
1761371034791208700,7.582208740234375,-0.09956810623407364,0.3354314863681793,2.0542030334472656
1761371034809821400,7.600821533203125,-0.022601349279284477,0.2187596708536148,2.214855909347534
1761371034828432600,7.6194326171875,0.07146912813186646,-0.07017108052968979,2.239900588989258
1761371034847045400,7.63804541015625,0.17714570462703705,-0.3145099878311157,2.2075257301330566
1761371034865656600,7.656656494140625,0.0525328628718853,-0.27113983035087585,2.1342239379882812
1761371034884269300,7.675269287109375,-0.45508119463920593,0.6744517087936401,1.6461570262908936
1761371034902880500,7.693880615234375,-0.938872218132019,2.2028679847717285,0.7335512042045593
1761371034921493200,7.7124931640625,-0.9309312105178833,3.489312171936035,0.07689040154218674
1761371034940104400,7.7311044921875,-0.6151232123374939,2.7178120613098145,-0.30985227227211
1761371034958717200,7.74971728515625,-0.4856235682964325,0.8186116814613342,-0.5890094637870789
1761371034977328400,7.768328369140625,-0.1459924876689911,0.33176642656326294,-0.6116108298301697
1761371034995941000,7.786941162109375,0.06291726976633072,0.05138752609491348,-0.5908420085906982
1761371035014552300,7.80555224609375,-0.08368607610464096,-0.6559736132621765,-1.0813523530960083
1761371035033165000,7.8241650390625,-0.03420744836330414,-1.0310338735580444,-2.131398916244507
1761371035051776300,7.8427763671875,0.23273280262947083,-0.6229878664016724,-2.7863035202026367
1761371035070389000,7.861388916015625,0.284654825925827,-0.34993913769721985,-2.52295184135437
1761371035089000200,7.880000244140625,0.13438639044761658,-0.7934142351150513,-1.608513593673706
1761371035107613000,7.898613037109375,-0.038483377546072006,-1.5662124156951904,-0.45645561814308167
1761371035126224100,7.91722412109375,-0.27976804971694946,-1.4482425451278687,0.255257785320282
1761371035144836900,7.9358369140625,-0.4874561131000519,-0.5600705742835999,0.39086589217185974
1761371035163448000,7.954447998046875,-0.42576053738594055,0.030007870867848396,0.27052897214889526
1761371035182060800,7.973060791015625,-0.17653486132621765,0.14301460981369019,0.2015032321214676
1761371035200672000,7.991672119140625,0.01832541823387146,0.043446511030197144,0.46600010991096497
1761371035219284700,8.01028466796875,-0.021379653364419937,-0.0231358390301466,1.0120975971221924
1761371035237896000,8.02889599609375,-0.2339545041322708,-0.07994463294744492,1.43480384349823
1761371035256508700,8.0475087890625,-0.393385648727417,-0.09888090193271637,1.5136032104492188
1761371035275119900,8.066119873046874,-0.4318690001964569,0.09536852687597275,1.329127311706543
1761371035293732900,8.08473291015625,-0.32069480419158936,0.3788016438484192,1.1330453157424927
1761371035312344000,8.103343994140625,-0.2241809368133545,0.516242265701294,1.2277265787124634
1761371035330956800,8.121956787109376,-0.37383851408958435,0.2682383060455322,1.6638715267181396
1761371035349568000,8.140568115234375,-0.6511631608009338,0.24746949970722198,2.338247060775757
1761371035368180700,8.1591806640625,-0.8875610828399658,0.3140518367290497,2.7402608394622803
1761371035386791700,8.177791748046875,-0.6456655263900757,0.5211290717124939,2.4408693313598633
1761371035405404400,8.196404296875,-0.06413896381855011,0.5913764834403992,1.8269678354263306
1761371035424015600,8.215015625,0.183865025639534,0.23952847719192505,1.3578370809555054
1761371035442628400,8.23362841796875,0.16798299551010132,-0.3700970709323883,0.7634826898574829
1761371035461239600,8.252239501953126,0.42698222398757935,-0.31145575642585754,0.05856497958302498
1761371035479852300,8.270852294921875,0.9957574009895325,-0.29679539799690247,-0.5633538961410522
1761371035498463500,8.28946337890625,1.3182847499847412,-0.6382590532302856,-1.2908729314804077
1761371035517076200,8.308076171875,1.5418548583984375,-0.6804074645042419,-1.5559806823730469
1761371035544994300,8.335994384765625,1.623097538948059,-0.37803810834884644,-1.5639216899871826
1761371035563605500,8.35460546875,1.7379368543624878,-0.5325824618339539,-1.806428074836731
1761371035582218200,8.37321826171875,1.6163781881332397,-1.426252007484436,-2.2175283432006836
1761371035600829400,8.391829345703124,1.0030875205993652,-1.6211886405944824,-2.574873924255371
1761371035619442200,8.410442138671876,0.12827792763710022,-0.19111883640289307,-2.3415303230285645
1761371035638053400,8.429053466796875,-0.5650337338447571,1.3763915300369263,-1.5865230560302734
1761371035656666000,8.447666015625,-0.8240329623222351,1.6451643705368042,-0.7026270627975464
1761371035675277300,8.46627734375,-0.8527427911758423,1.2114628553390503,0.15446799993515015
1761371035693890000,8.48489013671875,-0.7843278646469116,0.28961795568466187,0.7103390097618103
1761371035712501200,8.503501220703125,-0.7592831254005432,-0.47088688611984253,0.8661050796508789
1761371035731114200,8.5221142578125,-0.7776085734367371,-0.4507289230823517,0.7763105034828186
1761371035749725400,8.540725341796875,-0.763559103012085,0.18760646879673004,0.6962895393371582
1761371035768338200,8.559338134765625,-0.6939224600791931,0.6072585582733154,0.8606074452400208
1761371035786949400,8.577949462890626,-0.7104153633117676,0.5840463638305664,1.253993034362793
1761371035805562000,8.59656201171875,-0.7501204609870911,0.2578538954257965,1.6327183246612549
1761371035824173300,8.61517333984375,-0.7611156702041626,0.17355698347091675,1.7622179985046387
1761371035842786000,8.6337861328125,-0.6352811455726624,0.48753246665000916,1.628442406654358
1761371035861397200,8.652397216796874,-0.4220954477787018,0.46370941400527954,1.1226608753204346
1761371035880010000,8.671010009765626,-0.17531315982341766,0.2841203212738037,0.3456631898880005
1761371035898621200,8.68962109375,-0.21196399629116058,0.9536089301109314,-0.2017323076725006
1761371035917234200,8.708234130859376,-0.3512371778488159,1.3745590448379517,-0.677582323551178
1761371035935845000,8.72684521484375,-0.35978904366493225,1.5975183248519897,-0.8571714162826538
1761371035954458000,8.7454580078125,-0.555260181427002,0.8479323387145996,-1.1112838983535767
1761371035973069300,8.7640693359375,-1.0109522342681885,-0.7983010411262512,-2.0092294216156006
1761371035991682000,8.78268212890625,-1.2100883722305298,-1.2112337350845337,-3.3446178436279297
1761371036010293200,8.801293212890625,-1.2937744855880737,-0.24853847920894623,-4.701920509338379
1761371036028906000,8.819906005859375,-0.8515210747718811,0.2688491642475128,-5.160055637359619
1761371036047517200,8.83851708984375,-0.15332266688346863,0.13812783360481262,-4.273105621337891
1761371036066130000,8.8571298828125,-0.02748812735080719,-0.3169533610343933,-2.8748762607574463
1761371036084741000,8.8757412109375,-0.17958909273147583,-0.3719296157360077,-1.3000357151031494
1761371036103353900,8.894353759765625,-0.49234288930892944,0.0019088976550847292,-0.028251685202121735
1761371036121965000,8.912965087890624,-0.7916580438613892,0.36841726303100586,0.5625139474868774
1761371036140578000,8.931578125,-0.7922688722610474,0.23464170098304749,0.6804074645042419
1761371036159189200,8.950189208984375,-0.6969767212867737,-0.30901235342025757,0.6083275079727173
1761371036177802000,8.968802001953126,-0.5338805317878723,-0.7109498381614685,0.829454243183136
1761371036196413200,8.9874130859375,-0.29503923654556274,-0.62054443359375,1.352339506149292
1761371036215026000,9.00602587890625,-0.14782503247261047,-0.44156619906425476,1.9521914720535278
1761371036233637000,9.02463720703125,-0.1954711228609085,-0.06589514762163162,2.393223285675049
1761371036252249900,9.043249755859375,-0.3640649616718292,0.1265217363834381,2.5954136848449707
1761371036270861000,9.061861083984375,-0.4703523814678192,0.022677704691886902,2.6204583644866943
1761371036289474000,9.08047412109375,-0.4856235682964325,-0.0695602297782898,2.407883644104004
1761371036308085200,9.099085205078126,-0.5008947253227234,0.04405735805630684,1.902101993560791
1761371036326698000,9.117697998046875,-0.3518480062484741,-0.005421269219368696,1.0597436428070068
1761371036345309200,9.13630908203125,-0.028098974376916885,-0.13797512650489807,0.2650313675403595
1761371036363922000,9.154921875,0.16370706260204315,0.007406522985547781,-0.20906247198581696
1761371036382533000,9.173533203125,0.08002099394798279,0.2700708508491516,-0.39170581102371216
1761371036401145900,9.192145751953126,0.1453816443681717,0.5473955273628235,-0.2414373755455017
1761371036419757000,9.210757080078125,0.21196399629116058,0.09720107167959213,-0.08261708915233612
1761371036438370000,9.2293701171875,-0.06658235192298889,-0.9161945581436157,-0.5645755529403687
1761371036456981000,9.24798095703125,-0.12705622613430023,-1.6853275299072266,-1.4148749113082886
1761371036475594000,9.266593994140624,0.2241809368133545,-1.407315731048584,-2.1533892154693604
1761371036494205200,9.285205078125,0.44042086601257324,-0.34871742129325867,-2.444152593612671
1761371036512818000,9.30381787109375,0.3439069986343384,0.2193705290555954,-2.1161277294158936
1761371036531429000,9.32242919921875,0.28282228112220764,-0.13736428320407867,-1.3030898571014404
1761371036550041900,9.341041748046875,0.3158080279827118,-0.6871268153190613,-0.26281702518463135
1761371036568653000,9.359653076171876,0.18753011524677277,-0.8771002888679504,0.6944569945335388
1761371036587266000,9.37826611328125,-0.06352811306715012,-0.7048413753509521,1.2955306768417358
1761371036605877200,9.396877197265624,-0.28037887811660767,-0.2821350693702698,1.5050512552261353
1761371036624490000,9.415489990234375,-0.363454133272171,0.11613733321428299,1.4195326566696167
1761371036643101200,9.43410107421875,-0.4837910234928131,0.47470468282699585,1.1336561441421509
1761371036661714000,9.4527138671875,-0.5405998229980469,0.7996754050254822,0.8099071383476257
1761371036680325000,9.4713251953125,-0.3781144618988037,1.1625187397003174,0.6138251423835754
1761371036698937900,9.489937744140626,0.0397050715982914,1.215127944946289,0.5570163726806641
1761371036717549000,9.508549072265625,0.2870981991291046,0.8607601523399353,0.7317186594009399
1761371036736162000,9.527162109375,0.2632751762866974,-0.23632153868675232,0.9253572225570679
1761371036754773200,9.545773193359375,0.37200596928596497,-0.574120044708252,1.129380226135254
1761371036773386000,9.564385986328125,0.2351761907339096,-0.6266529560089111,1.4189218282699585
