time,seconds_elapsed,z,y,x
1761370276465143300,0.090143310546875,0,0,0
1761370276483754000,0.10875390625,0.18997955322265625,-0.0455622673034668,0.028675734996795654
1761370276502366000,0.127365966796875,0.2895469665527344,-0.016564369201660156,-0.08866012096405029
1761370276520976400,0.145976318359375,0.13465404510498047,0.055783987045288086,-0.14983594417572021
1761370276539588400,0.16458837890625,0.1450939178466797,0.1366732120513916,-0.16079926490783691
1761370276558198800,0.18319873046875,0.3307046890258789,0.09117341041564941,-0.03071272373199463
1761370276576810800,0.201810791015625,0.08856487274169922,-0.11493754386901855,-0.06331723928451538
1761370276595421200,0.220421142578125,-0.3811359405517578,0.07589578628540039,-0.01321178674697876
1761370276614033200,0.239033203125,-0.4715557098388672,0.247206449508667,0.02084481716156006
1761370276632643600,0.2576435546875,-0.35080432891845703,0.36629295349121094,-0.018106698989868164
1761370276651255600,0.276255615234375,-0.5938301086425781,0.19452261924743652,0.1780027151107788
1761370276669866200,0.2948662109375,-0.3188028335571289,0.07653617858886719,0.174150288105011
1761370276688478200,0.313478271484375,-0.33115100860595703,0.08881926536560059,-0.018093198537826538
1761370276707088600,0.332088623046875,-0.65802001953125,0.12511944770812988,-0.1044115424156189
1761370276725700600,0.35070068359375,-1.0289440155029297,0.08116912841796875,-0.22343234717845917
1761370276744311000,0.36931103515625,-1.0088911056518555,0.12302780151367188,-0.5075864791870117
1761370276762923000,0.387923095703125,-0.8185033798217773,0.39362025260925293,-0.243753120303154
1761370276781533400,0.406533447265625,-1.0699520111083984,0.5182204246520996,0.23109227418899536
1761370276800145400,0.4251455078125,-1.1913347244262695,0.615593671798706,0.2617299556732178
1761370276818756000,0.443756103515625,-0.7312345504760742,0.9278082847595215,-0.41068434715270996
1761370276837368000,0.4623681640625,-0.40343189239501953,1.2760472297668457,-1.2067763805389404
1761370276855978500,0.480978515625,-0.38715648651123047,1.3809781074523926,-1.7341758012771606
1761370276874590500,0.499590576171875,0.051136016845703125,0.7350776195526123,-1.2827937602996826
1761370276893201000,0.518200927734375,0.5005807876586914,0.24834990501403809,-0.9698859453201294
1761370276911812900,0.536812744140625,0.5149564743041992,0.4584920406341553,-0.7716681957244873
1761370276930423300,0.55542333984375,0.4671916961669922,0.5342698097229004,-0.24590182304382324
1761370276949035300,0.57403515625,1.3063850402832031,0.2462003231048584,-0.5283588171005249
1761370276967646000,0.59264599609375,2.026578903198242,-0.2809593677520752,-0.33941543102264404
1761370276986258000,0.6112578125,1.882150650024414,-0.32081127166748047,0.26624369621276855
1761370277004868400,0.629868408203125,2.0037364959716797,-0.12332892417907715,0.3880521059036255
1761370277023480300,0.648480224609375,1.7509355545043945,-0.31404829025268555,0.5598760843276978
1761370277042090800,0.6670908203125,1.1789474487304688,-1.1122444868087769,0.7847017645835876
1761370277060702700,0.68570263671875,0.15928173065185547,-1.7494275569915771,0.5132184028625488
1761370277079313400,0.7043134765625,-0.9028568267822266,-1.9421039819717407,-0.01837778091430664
1761370277097925400,0.72292529296875,-1.7323012351989746,-1.7028533220291138,-0.4977879524230957
1761370277116535800,0.741535888671875,-2.0677404403686523,-1.187352180480957,-0.8982875347137451
1761370277135147800,0.760147705078125,-1.8620257377624512,-0.7180428504943848,-1.0151653289794922
1761370277153758200,0.77875830078125,-1.4015989303588867,-0.5595505237579346,-0.7787103652954102
1761370277172370200,0.7973701171875,-0.8405437469482422,-0.5475301742553711,-0.5680606365203857
1761370277190980600,0.815980712890625,-0.38868236541748047,-0.649014949798584,-0.4568166732788086
1761370277209592800,0.8345927734375,-0.3828134536743164,-0.8000767230987549,-0.4885115623474121
1761370277228203300,0.853203369140625,-0.7031593322753906,-0.8641262054443359,-0.5959575176239014
1761370277246815200,0.871815185546875,-0.8978471755981445,-0.849585771560669,-0.6700916290283203
1761370277265425700,0.89042578125,-0.8528013229370117,-0.8848776817321777,-0.6446919441223145
1761370277284037600,0.90903759765625,-0.7105321884155273,-1.0650887489318848,-0.4992218017578125
1761370277302648000,0.92764794921875,-0.6459980010986328,-1.1860191822052002,-0.35103893280029297
1761370277321260000,0.946260009765625,-0.7454986572265625,-1.2548696994781494,-0.21202802658081055
1761370277339870700,0.96487060546875,-1.1637654304504395,-1.1568231582641602,-0.18195581436157227
1761370277358482700,0.983482666015625,-1.5951223373413086,-0.7908332347869873,-0.4723665714263916
1761370277377093000,1.002093017578125,-1.7411079406738281,-0.34913015365600586,-0.8239998817443848
1761370277395705000,1.020705078125,-1.6662702560424805,-0.06926941871643066,-0.8289837837219238
1761370277414315500,1.0393154296875,-1.3041863441467285,0.12776803970336914,-0.7136614322662354
1761370277432927500,1.057927490234375,-0.7719926834106445,0.25893115997314453,-0.5666453838348389
1761370277451538200,1.0765380859375,-0.3027477264404297,0.2984025478363037,-0.39337706565856934
1761370277470150100,1.095150146484375,-0.07167530059814453,0.23129677772521973,-0.31990575790405273
1761370277488760600,1.113760498046875,-0.04797935485839844,0.31641101837158203,-0.2515401840209961
1761370277507372500,1.13237255859375,-0.028588294982910156,0.37811970710754395,-0.4580373764038086
1761370277525983000,1.15098291015625,0.18399906158447266,0.29715991020202637,-0.6891272068023682
1761370277544595000,1.169594970703125,0.6477317810058594,0.21607303619384766,-0.7789008617401123
1761370277563205400,1.188205322265625,1.0721359252929688,0.1745891571044922,-0.8601982593536377
1761370277581817600,1.206817626953125,1.3240900039672852,0.15450692176818848,-0.8342869281768799
1761370277600428000,1.225427978515625,1.2783660888671875,0.2575864791870117,-0.6285278797149658
1761370277619040000,1.2440400390625,1.10919189453125,0.35610461235046387,-0.3091006278991699
1761370277637650400,1.262650390625,1.2250823974609375,0.2776644229888916,-0.038491010665893555
1761370277656262400,1.281262451171875,1.4448575973510742,0.07125616073608398,0.05124068260192871
1761370277674872800,1.299872802734375,1.376561164855957,-0.11901974678039551,0.015752792358398438
1761370277693485000,1.318485107421875,0.9849519729614258,-0.1549527645111084,0.02511119842529297
1761370277712095500,1.337095458984375,0.5123376846313477,-0.01941823959350586,0.15793895721435547
1761370277730707500,1.35570751953125,0.12400627136230469,0.12170219421386719,0.2372877597808838
1761370277749318000,1.37431787109375,-0.12283039093017578,0.1375422477722168,0.28372788429260254
1761370277767929900,1.392929931640625,-0.15286922454833984,0.052931785583496094,0.3090379238128662
1761370277786540500,1.41154052734375,-0.035132408142089844,-0.11223340034484863,0.3429546356201172
1761370277805152500,1.430152587890625,0.24521541595458984,-0.4332413673400879,0.3597729206085205
1761370277823763000,1.448762939453125,0.6146678924560547,-0.7429430484771729,0.34652042388916016
1761370277842375000,1.467375,0.7377586364746094,-0.9370402097702026,0.2801029682159424
1761370277860985300,1.4859853515625,0.3172750473022461,-0.9513188600540161,0.23869633674621582
1761370277879597300,1.504597412109375,-0.44240760803222656,-0.7278815507888794,0.11312675476074219
1761370277898207700,1.523207763671875,-1.0535469055175781,-0.32852983474731445,0.09624028205871582
1761370277916820000,1.541820068359375,-1.3503293991088867,0.04291367530822754,0.23383307456970215
1761370277935430400,1.560430419921875,-1.2393183708190918,0.20330405235290527,0.5516781806945801
1761370277954042400,1.57904248046875,-0.9401073455810547,0.1964094638824463,0.9972074031829834
1761370277972652800,1.59765283203125,-0.7021369934082031,0.0979316234588623,1.2570714950561523
1761370277991264800,1.6162646484375,-0.6241292953491211,-0.05862784385681152,1.2868931293487549
1761370278009875200,1.634875244140625,-0.6801986694335938,-0.2079622745513916,1.1191329956054688
1761370278028487200,1.653487060546875,-0.6166439056396484,-0.30597925186157227,0.8391892910003662
1761370278047097900,1.672097900390625,-0.4373941421508789,-0.3640916347503662,0.5813229084014893
1761370278065709800,1.690709716796875,-0.18434715270996094,-0.3993961811065674,0.28996801376342773
1761370278084320300,1.7093203125,0.021216392517089844,-0.4123169183731079,0.04790067672729492
1761370278102932200,1.72793212890625,0.21381378173828125,-0.319644570350647,-0.04765462875366211
1761370278121542700,1.746542724609375,0.4233989715576172,-0.2015146017074585,0.11435747146606445
1761370278140155000,1.76515478515625,0.6002597808837891,-0.03747272491455078,0.41460537910461426
1761370278158765300,1.783765380859375,0.4911212921142578,0.0778656005859375,0.6512937545776367
1761370278177377300,1.802377197265625,0.21755027770996094,0.1675264835357666,0.6318717002868652
1761370278195987700,1.82098779296875,0.046179771423339844,0.16065096855163574,0.5334289073944092
1761370278214599700,1.839599609375,0.0811910629272461,0.07700991630554199,0.36176490783691406
1761370278233210000,1.858210205078125,0.3448324203491211,-0.023552894592285156,0.14061284065246582
1761370278251822300,1.876822265625,0.47684669494628906,-0.09820055961608887,-0.14755749702453613
1761370278270432800,1.895432861328125,0.34482765197753906,-0.0045986175537109375,-0.5606160163879395
1761370278289044700,1.914044677734375,0.004276275634765625,0.2373676300048828,-0.9899930953979492
1761370278307655200,1.9326552734375,-0.16612720489501953,0.5241262912750244,-1.0908641815185547
1761370278326267100,1.95126708984375,0.3232564926147461,0.7051553726196289,-0.6526615619659424
1761370278344877800,1.9698779296875,1.2731132507324219,0.5412945747375488,0.23703575134277344
1761370278363489800,1.98848974609375,2.2258729934692383,0.18750858306884766,0.6463718414306641
1761370278382100200,2.007100341796875,2.2471981048583984,-0.31347060203552246,0.5234715938568115
1761370278400712200,2.025712158203125,1.495091438293457,-0.5930860042572021,-0.0034003257751464844
1761370278419322600,2.044322509765625,0.4768810272216797,-0.5957412719726562,-0.42951059341430664
1761370278437934600,2.0629345703125,0.024888038635253906,-0.5960586071014404,-0.6169466972351074
1761370278456545300,2.081545166015625,0.06780147552490234,-0.918274998664856,-0.42592692375183105
1761370278475157200,2.1001572265625,0.20128345489501953,-1.1359825134277344,-0.22587156295776367
1761370278493767700,2.118767578125,-0.2236166000366211,-1.106024146080017,-0.16347122192382812
1761370278512379600,2.137379638671875,-1.005702018737793,-0.7811274528503418,-0.4238293170928955
1761370278530990000,2.155989990234375,-1.5159687995910645,-0.33599233627319336,-0.6544055938720703
1761370278549602000,2.17460205078125,-1.5384902954101562,0.08632683753967285,-0.6118941307067871
1761370278568212500,2.19321240234375,-1.1284136772155762,0.2661008834838867,-0.29865193367004395
1761370278586824700,2.21182470703125,-0.38040637969970703,0.17054224014282227,0.04765915870666504
1761370278605435100,2.23043505859375,0.3808259963989258,-0.10041928291320801,0.2915611267089844
1761370278624047000,2.249047119140625,0.6923093795776367,-0.5912911891937256,0.4539198875427246
1761370278642657500,2.267657470703125,0.44957733154296875,-0.9323654174804688,0.10223078727722168
1761370278661269500,2.28626953125,-0.19687938690185547,-1.0241446495056152,-0.3899235725402832
1761370278679880000,2.3048798828125,-0.749755859375,-0.9491722583770752,-0.44687747955322266
1761370278698492200,2.3234921875,-1.0499005317687988,-0.8242511749267578,-0.3739933967590332
1761370278717102600,2.3421025390625,-1.0020580291748047,-0.6836698055267334,-0.27869534492492676
1761370278735714600,2.360714599609375,-0.8747138977050781,-0.6430110931396484,-0.07962226867675781
1761370278754325000,2.379324951171875,-0.6431503295898438,-0.6475205421447754,0.031430721282958984
1761370278772937000,2.39793701171875,-0.4743499755859375,-0.6845541000366211,-0.0028009414672851562
1761370278791547600,2.416547607421875,-0.49260902404785156,-0.6579010486602783,-0.02142190933227539
1761370278810159600,2.43515966796875,-0.3825721740722656,-0.5411040782928467,0.003756284713745117
1761370278828770000,2.45377001953125,-0.10912036895751953,-0.41909193992614746,0.0869297981262207
1761370278847382000,2.472382080078125,0.2153778076171875,-0.3219754695892334,0.10372662544250488
1761370278865992400,2.490992431640625,0.44121360778808594,-0.27694058418273926,0.07619965076446533
1761370278884604400,2.5096044921875,0.8169546127319336,-0.24090313911437988,0.18278217315673828
1761370278903215000,2.528215087890625,1.1282787322998047,-0.2840442657470703,0.41571950912475586
1761370278921827000,2.5468271484375,1.2770624160766602,-0.21893000602722168,0.28154945373535156
1761370278940437500,2.5654375,1.1996545791625977,-0.19449853897094727,0.1906452178955078
1761370278959049500,2.584049560546875,1.1058759689331055,-0.1788330078125,0.2824535369873047
1761370278977660000,2.602659912109375,1.118220329284668,-0.23193955421447754,0.6186875104904175
1761370278996271900,2.62127197265625,1.1727066040039062,-0.4429147243499756,0.9822954535484314
1761370279014882600,2.639882568359375,1.1046981811523438,-0.7130484580993652,1.0779638290405273
1761370279033494500,2.65849462890625,0.8098173141479492,-0.899024248123169,0.9133197069168091
1761370279052105000,2.67710498046875,0.3370075225830078,-1.0127861499786377,0.8091681003570557
1761370279070717000,2.695717041015625,-0.03433990478515625,-1.0364205837249756,0.7533026933670044
1761370279089327400,2.714327392578125,-0.07752323150634766,-1.0084950923919678,0.7600773572921753
1761370279107939300,2.732939208984375,0.024150848388671875,-1.0340638160705566,0.979749321937561
1761370279126550000,2.751550048828125,0.20121479034423828,-1.0423674583435059,1.1056935787200928
1761370279145162000,2.770161865234375,0.2355365753173828,-0.9671499729156494,1.1319448947906494
1761370279163772400,2.7887724609375,0.18739604949951172,-0.7713336944580078,1.0867286920547485
1761370279182384400,2.80738427734375,0.0932159423828125,-0.5364518165588379,1.1526212692260742
1761370279200994800,2.825994873046875,-0.13814258575439453,-0.27842259407043457,1.327410101890564
1761370279219607000,2.84460693359375,-0.3317537307739258,-0.02027153968811035,1.5342581272125244
1761370279238217500,2.863217529296875,-0.4022560119628906,0.09883928298950195,1.7575963735580444
1761370279256829400,2.881829345703125,-0.3488941192626953,0.07320737838745117,1.8072504997253418
1761370279275439900,2.90043994140625,-0.240692138671875,-0.0950918197631836,1.6450644731521606
1761370279294051800,2.9190517578125,-0.2053365707397461,-0.29991984367370605,1.3269126415252686
1761370279312662300,2.937662353515625,-0.2692899703979492,-0.34465861320495605,0.8138936161994934
1761370279331274500,2.9562744140625,-0.26665687561035156,-0.24384260177612305,0.2554529905319214
1761370279349885000,2.974885009765625,-0.05992698669433594,-0.09386038780212402,-0.028688669204711914
1761370279368497000,2.993496826171875,0.2315683364868164,0.03102874755859375,0.015462398529052734
1761370279387107300,3.012107421875,0.41200923919677734,0.11448955535888672,0.15871381759643555
1761370279405719300,3.03071923828125,0.5250949859619141,0.13210725784301758,0.314056396484375
1761370279424329700,3.049329833984375,0.6366367340087891,0.0932779312133789,0.27535533905029297
1761370279442942000,3.06794189453125,0.5661764144897461,0.08594536781311035,0.20548772811889648
1761370279461552400,3.086552490234375,0.28569984436035156,0.1182866096496582,0.14921021461486816
1761370279480164400,3.105164306640625,0.06043815612792969,0.22760558128356934,0.024364948272705078
1761370279498774800,3.12377490234375,0.08726882934570312,0.287581205368042,-0.03525280952453613
1761370279517386800,3.14238671875,0.38543033599853516,0.2819342613220215,-0.08733963966369629
1761370279535997200,3.1609970703125,0.6884965896606445,0.23879265785217285,-0.19858300685882568
1761370279554609200,3.179609130859375,0.8979644775390625,0.32193732261657715,-0.3078620433807373
1761370279573219800,3.1982197265625,0.9793987274169922,0.36668920516967773,-0.1899341344833374
1761370279591831800,3.216831787109375,1.1458015441894531,0.42493152618408203,-0.18413901329040527
1761370279610442200,3.235442138671875,1.2483997344970703,0.5235085487365723,-0.25084638595581055
1761370279629054200,3.25405419921875,1.3592538833618164,0.6201841831207275,-0.2052171230316162
1761370279647664600,3.27266455078125,1.6523361206054688,0.5578632354736328,0.13616609573364258
1761370279666276900,3.29127685546875,1.8722896575927734,0.13707947731018066,0.6189243793487549
1761370279684887300,3.30988720703125,1.6616621017456055,-0.4481170177459717,0.787753701210022
1761370279703499300,3.328499267578125,0.834259033203125,-0.923694372177124,0.639232873916626
1761370279722109700,3.347109619140625,-0.20636844635009766,-1.15098237991333,0.3098423480987549
1761370279740721700,3.3657216796875,-0.8790493011474609,-1.1096837520599365,0.107330322265625
1761370279759332000,3.38433203125,-1.0302014350891113,-1.0391514301300049,0.21149682998657227
1761370279777944300,3.4029443359375,-0.889744758605957,-1.2349913120269775,0.47303080558776855
1761370279796554800,3.4215546875,-0.7181234359741211,-1.4490265846252441,0.5541272163391113
1761370279815166700,3.440166748046875,-0.6666965484619141,-1.6729114055633545,0.6257221698760986
1761370279833777200,3.458777099609375,-0.8629570007324219,-1.807835340499878,0.5493614673614502
1761370279852389000,3.47738916015625,-1.2543129920959473,-1.7360236644744873,0.2660057544708252
1761370279870999600,3.49599951171875,-1.6667184829711914,-1.521944522857666,0.0894622802734375
1761370279889611800,3.51461181640625,-1.8101825714111328,-1.2184574604034424,0.0514683723449707
1761370279908222200,3.53322216796875,-1.5979022979736328,-1.0050721168518066,0.1865382194519043
1761370279926834200,3.551834228515625,-1.0617642402648926,-0.9054036140441895,0.43111085891723633
1761370279945444600,3.570444580078125,-0.43541622161865234,-0.8810229301452637,0.6671494245529175
1761370279964056600,3.589056640625,-0.10523700714111328,-0.927868127822876,0.8586304187774658
1761370279982667300,3.607667236328125,-0.12309837341308594,-1.0431196689605713,0.8064767122268677
1761370280001279200,3.626279296875,-0.2491006851196289,-1.1430227756500244,0.2656433582305908
1761370280019889700,3.6448896484375,-0.36253929138183594,-1.0894949436187744,-0.37484288215637207
1761370280038501600,3.663501708984375,-0.49343204498291016,-0.8253054618835449,-0.7042138576507568
1761370280057112000,3.682112060546875,-0.4879474639892578,-0.41690945625305176,-0.730292797088623
1761370280075724000,3.70072412109375,-0.26753997802734375,-0.06970071792602539,-0.49823594093322754
1761370280094334500,3.71933447265625,0.18278884887695312,0.10064077377319336,-0.22984671592712402
1761370280112946700,3.73794677734375,0.6114568710327148,0.12295842170715332,-0.10723328590393066
1761370280131557000,3.75655712890625,0.7196455001831055,0.10676741600036621,-0.15555524826049805
1761370280150169000,3.775169189453125,0.5260772705078125,0.1074213981628418,-0.4016835689544678
1761370280168779500,3.793779541015625,0.3807811737060547,0.11002230644226074,-0.6470410823822021
1761370280187391500,3.8123916015625,0.5554647445678711,0.12018299102783203,-0.8654332160949707
1761370280206002000,3.831001953125,0.8831796646118164,0.1838679313659668,-0.882239818572998
1761370280224614000,3.84961376953125,1.1080217361450195,0.304837703704834,-0.8772072792053223
1761370280243224600,3.868224609375,1.2749977111816406,0.3889949321746826,-0.925786018371582
1761370280261836500,3.88683642578125,1.526627540588379,0.4260437488555908,-0.928131103515625
1761370280280447000,3.905447021484375,1.5445728302001953,0.4091219902038574,-0.862429141998291
1761370280299059000,3.924058837890625,1.3001747131347656,0.41591358184814453,-0.7939035892486572
1761370280317669400,3.94266943359375,1.0353937149047852,0.49184417724609375,-0.6787970066070557
1761370280336281300,3.96128125,0.7766084671020508,0.6149449348449707,-0.4189276695251465
1761370280354892000,3.97989208984375,0.6582460403442383,0.6082582473754883,0.01362454891204834
1761370280373504000,3.99850390625,0.6670589447021484,0.548877477645874,0.20547199249267578
1761370280392114400,4.017114501953125,0.5676679611206055,0.3288452625274658,0.2394465208053589
1761370280410726400,4.035726318359375,0.3488912582397461,0.08458423614501953,0.13364458084106445
1761370280429336800,4.0543369140625,0.1403522491455078,-0.1059865951538086,-0.05356740951538086
1761370280447948800,4.07294873046875,-0.08799362182617188,-0.17251062393188477,-0.21144354343414307
1761370280466559500,4.0915595703125,-0.26985740661621094,-0.16106510162353516,-0.22628092765808105
1761370280485171500,4.11017138671875,-0.08264923095703125,-0.13450121879577637,0.013165473937988281
1761370280503782000,4.128781982421875,0.4026021957397461,-0.17569851875305176,0.43646275997161865
1761370280522393900,4.147393798828125,0.8398914337158203,-0.3155851364135742,0.7134034633636475
1761370280541004300,4.16600439453125,1.08038330078125,-0.5391519069671631,0.835839569568634
1761370280559616300,4.1846162109375,0.9918508529663086,-0.7750523090362549,0.9281579256057739
1761370280578226700,4.203226806640625,0.544398307800293,-0.8378138542175293,0.799157977104187
1761370280596839000,4.2218388671875,-0.1204214096069336,-0.7168118953704834,0.6765165328979492
1761370280615449300,4.240449462890625,-0.6755800247192383,-0.44640493392944336,0.7520816326141357
1761370280634061300,4.259061279296875,-0.9682407379150391,-0.16201281547546387,0.8948217630386353
1761370280652671700,4.277671630859375,-0.8935565948486328,0.05761528015136719,1.0109632015228271
1761370280671283700,4.29628369140625,-0.4335165023803711,0.23020720481872559,1.233442783355713
1761370280689894100,4.31489404296875,0.17705249786376953,0.3054196834564209,1.762017011642456
1761370280708506000,4.333506103515625,0.4997835159301758,0.19284939765930176,2.2683677673339844
1761370280727116500,4.352116455078125,0.3355875015258789,-0.04094338417053223,2.3416221141815186
1761370280745728800,4.370728759765625,-0.07104969024658203,-0.1913447380065918,1.8443174362182617
1761370280764339200,4.389339111328125,-0.3753242492675781,-0.26500821113586426,1.1428636312484741
1761370280782951200,4.407951171875,-0.5242443084716797,-0.284212589263916,0.6969527006149292
1761370280801561600,4.4265615234375,-0.4780254364013672,-0.17934894561767578,0.44037187099456787
1761370280820173600,4.445173583984375,-0.2747631072998047,-0.07722640037536621,0.46358537673950195
1761370280838784000,4.463783935546875,-0.059722900390625,-0.031052827835083008,0.6608492136001587
1761370280857396200,4.482396240234375,0.07240104675292969,-0.017494678497314453,0.708242654800415
1761370280876006700,4.501006591796875,0.08296585083007812,-0.06264305114746094,0.6227761507034302
1761370280894618600,4.51961865234375,-0.10091972351074219,-0.19392943382263184,0.5678267478942871
1761370280913229000,4.53822900390625,-0.3604269027709961,-0.33411574363708496,0.43714451789855957
1761370280931841000,4.556841064453125,-0.4361104965209961,-0.45210957527160645,0.3217567205429077
1761370280950451500,4.575451416015625,-0.29894447326660156,-0.5845460891723633,0.231054425239563
1761370280969063400,4.5940634765625,-0.23667430877685547,-0.6866872310638428,0.0733557939529419
1761370280987674000,4.612674072265625,-0.28606414794921875,-0.6957745552062988,-0.09229719638824463
1761370281006286000,4.6312861328125,-0.39357566833496094,-0.6293432712554932,-0.20903944969177246
1761370281024896500,4.649896484375,-0.3390359878540039,-0.5374448299407959,-0.38664960861206055
1761370281043508500,4.668508544921875,0.015450477600097656,-0.4820692539215088,-0.42171335220336914
1761370281062119000,4.687118896484375,0.3203544616699219,-0.4035532474517822,-0.5525503158569336
1761370281080731000,4.70573095703125,0.24210453033447266,-0.28342318534851074,-0.9906792640686035
1761370281099341300,4.72434130859375,-0.04427528381347656,-0.1556851863861084,-1.3674736022949219
1761370281117953300,4.742953369140625,-0.22214508056640625,-0.06185317039489746,-1.3239314556121826
1761370281136564000,4.76156396484375,0.2513437271118164,-0.2165665626525879,-0.6766440868377686
1761370281155176000,4.780176025390625,1.2231206893920898,-0.5128529071807861,-0.07765340805053711
1761370281173786400,4.798786376953125,2.058248519897461,-0.8711075782775879,0.031231284141540527
1761370281192398300,4.8173984375,2.1801061630249023,-1.1070506572723389,-0.14412963390350342
1761370281211008800,4.8360087890625,1.9380407333374023,-1.0971870422363281,-0.36940813064575195
1761370281229620700,4.854620849609375,1.0881214141845703,-0.964179277420044,-0.3726463317871094
1761370281248231200,4.873231201171875,0.3291463851928711,-0.636185884475708,-0.4266582727432251
1761370281266843400,4.891843505859375,-0.1295003890991211,-0.49285149574279785,-0.29293084144592285
1761370281285453800,4.910453857421875,-0.25398731231689453,-0.4418926239013672,-0.2207416296005249
1761370281304065800,4.929065673828125,-0.3234062194824219,-0.4169797897338867,-0.2657454013824463
1761370281322676200,4.94767626953125,-0.4491443634033203,-0.35654497146606445,-0.42356419563293457
1761370281341288200,4.9662880859375,-0.5706357955932617,-0.28081512451171875,-0.6170364618301392
1761370281359898600,4.984898681640625,-0.5972576141357422,-0.23508977890014648,-0.7653446197509766
1761370281378510600,5.003510498046875,-0.5019912719726562,-0.22695112228393555,-0.7082746028900146
1761370281397121000,5.02212109375,-0.44251346588134766,-0.28534793853759766,-0.5041542053222656
1761370281415733200,5.040733154296875,-0.3607664108276367,-0.3934786319732666,-0.37658143043518066
1761370281434343700,5.05934375,-0.17611408233642578,-0.6111760139465332,-0.3672935962677002
1761370281452955600,5.07795556640625,-0.037077903747558594,-0.8069491386413574,-0.5667965412139893
1761370281471566000,5.096566162109375,-0.07848453521728516,-0.9363329410552979,-0.7756069898605347
1761370281490178000,5.115177978515625,-0.2783546447753906,-0.9284296035766602,-0.8552918434143066
1761370281508788500,5.13378857421875,-0.44315528869628906,-0.7138237953186035,-0.8894412517547607
1761370281527400400,5.152400390625,-0.38819217681884766,-0.5163266658782959,-0.6487307548522949
1761370281546011000,5.171010986328125,-0.1587686538696289,-0.3781754970550537,-0.3695436716079712
1761370281564622800,5.189622802734375,0.17598342895507812,-0.3057088851928711,-0.04400444030761719
1761370281583233500,5.208233642578125,0.5187606811523438,-0.2116868495941162,0.14827191829681396
1761370281601845500,5.226845458984375,0.6769905090332031,-0.15286588668823242,0.16874217987060547
1761370281620456000,5.2454560546875,0.44339942932128906,-0.07776665687561035,0.07695329189300537
1761370281639068000,5.26406787109375,0.08136272430419922,-0.0005486011505126953,-0.058634042739868164
1761370281657678300,5.28267822265625,-0.1731433868408203,0.08073782920837402,-0.07246828079223633
1761370281676290300,5.301290283203125,-0.3262615203857422,0.1456902027130127,0.00966954231262207
1761370281694900700,5.319900634765625,-0.3310527801513672,0.20845270156860352,0.07254457473754883
1761370281713512700,5.3385126953125,-0.3118133544921875,0.2066481113433838,0.027121305465698242
1761370281732123400,5.357123291015625,-0.24972057342529297,0.18270039558410645,-0.15598726272583008
1761370281750735400,5.3757353515625,-0.09801864624023438,0.10877799987792969,-0.3379995822906494
1761370281769345800,5.394345703125,0.1755542755126953,-0.028470754623413086,-0.5129678249359131
1761370281787957800,5.412957763671875,0.5177688598632812,-0.180084228515625,-0.5170013904571533
1761370281806568200,5.431568115234375,0.8394765853881836,-0.32926034927368164,-0.4289870262145996
1761370281825180200,5.45018017578125,1.1016521453857422,-0.3459615707397461,-0.4602174758911133
1761370281843790600,5.46879052734375,1.1735506057739258,-0.28081846237182617,-0.38922595977783203
1761370281862402600,5.487402587890625,1.0920219421386719,-0.19638586044311523,-0.16810178756713867
1761370281881013200,5.50601318359375,0.9076118469238281,0.10244131088256836,-0.28088808059692383
1761370281899625200,5.524625244140625,0.6886587142944336,0.18984246253967285,-0.13004374504089355
1761370281918235600,5.543235595703125,0.7272834777832031,0.10142207145690918,0.1591320037841797
1761370281936847600,5.56184765625,1.016545295715332,-0.15928173065185547,0.36917054653167725
1761370281955458000,5.5804580078125,1.1933298110961914,-0.5984435081481934,0.4411003589630127
1761370281974070000,5.599070068359375,1.1171197891235352,-0.9989316463470459,0.2885282039642334
1761370281992680400,5.617680419921875,0.6747369766235352,-1.4124951362609863,0.1341862678527832
1761370282011292400,5.63629248046875,0.04401206970214844,-1.6198904514312744,-0.08799457550048828
1761370282029902800,5.65490283203125,-0.6270990371704102,-1.599977970123291,-0.305647611618042
1761370282048514800,5.673514892578125,-1.2481417655944824,-1.3208045959472656,-0.6557986736297607
1761370282067125200,5.692125244140625,-1.7493510246276855,-0.9188048839569092,-0.9748938083648682
1761370282085737500,5.710737548828125,-2.0149927139282227,-0.44593167304992676,-1.2235701084136963
1761370282104348000,5.729347900390625,-1.8724079132080078,0.029618024826049805,-1.2130744457244873
1761370282122960000,5.7479599609375,-1.353391170501709,0.3024790287017822,-0.6956460475921631
1761370282141570300,5.7665703125,-0.6489858627319336,0.3583064079284668,0.057907819747924805
1761370282160182300,5.785182373046875,0.012097358703613281,0.1268317699432373,0.7275209426879883
1761370282178792700,5.803792724609375,0.5100774765014648,-0.3124430179595947,0.8662559986114502
1761370282197404700,5.82240478515625,0.7516822814941406,-0.754910945892334,0.5583239793777466
1761370282216015000,5.84101513671875,0.6958961486816406,-1.133941888809204,0.06883859634399414
1761370282234627000,5.859626953125,0.38672447204589844,-1.3178167343139648,-0.5512492656707764
1761370282253237500,5.878237548828125,-0.23366355895996094,-1.2755036354064941,-0.8480916023254395
1761370282271849500,5.896849365234375,-0.7642621994018555,-1.0091216564178467,-0.7848107814788818
1761370282290460200,5.915460205078125,-0.9088134765625,-0.6942901611328125,-0.4349825382232666
1761370282309072100,5.934072021484375,-0.8023777008056641,-0.5003998279571533,-0.011036396026611328
1761370282327682600,5.9526826171875,-0.7243595123291016,-0.36288952827453613,0.3138456344604492
1761370282346294500,5.97129443359375,-0.7736692428588867,-0.17044639587402344,0.42800819873809814
1761370282364905000,5.989905029296875,-0.9567451477050781,0.06762957572937012,0.31761622428894043
1761370282383517000,6.008516845703125,-1.065615177154541,0.2688000202178955,0.091552734375
1761370282402127400,6.02712744140625,-1.007308006286621,0.36844825744628906,-0.048547983169555664
1761370282420739300,6.0457392578125,-0.871699333190918,0.3294699192047119,-0.11641716957092285
1761370282439349800,6.064349853515625,-0.6302700042724609,0.2555398941040039,-0.20811772346496582
1761370282457961700,6.082961669921875,-0.3031787872314453,0.14803719520568848,-0.30285167694091797
1761370282476572400,6.101572509765625,0.1450939178466797,0.026337623596191406,-0.46355152130126953
1761370282495184400,6.120184326171875,0.6334857940673828,-0.085662841796875,-0.7546367645263672
1761370282513794800,6.138794921875,1.0477561950683594,-0.20667648315429688,-1.0071630477905273
1761370282532406800,6.15740673828125,1.2918415069580078,-0.3214237689971924,-1.0831401348114014
1761370282551017200,6.176017333984375,1.195185661315918,-0.3097045421600342,-1.0505759716033936
1761370282569629200,6.194629150390625,0.7712974548339844,-0.20630717277526855,-1.0293166637420654
1761370282588239600,6.213239501953125,0.3674592971801758,-0.06887221336364746,-1.0981569290161133
1761370282606851600,6.2318515625,0.1618795394897461,0.21547675132751465,-1.4053277969360352
1761370282625462000,6.2504619140625,0.15485477447509766,0.5284695625305176,-1.6177992820739746
1761370282644074000,6.269073974609375,0.5011425018310547,0.5124573707580566,-1.167182207107544
1761370282662684400,6.287684326171875,1.4537992477416992,0.05483102798461914,-0.24686384201049805
1761370282681296600,6.306296630859375,2.5037708282470703,-0.6229472160339355,0.2166886329650879
1761370282699907000,6.324906982421875,2.5874834060668945,-1.3809840679168701,0.16660332679748535
1761370282718519000,6.34351904296875,2.01181697845459,-1.8439475297927856,-0.27284717559814453
1761370282737129500,6.36212939453125,0.9852457046508789,-2.2053091526031494,-0.3831949234008789
1761370282755741400,6.380741455078125,-0.04572010040283203,-2.2953906059265137,-0.34415316581726074
1761370282774352000,6.399351806640625,-0.9638900756835938,-2.2872092723846436,-0.3288440704345703
1761370282792963800,6.4179638671875,-1.760063648223877,-2.148630142211914,-0.4286808967590332
1761370282811574300,6.43657421875,-2.343322277069092,-1.9029902219772339,-0.5695853233337402
1761370282830186200,6.455186279296875,-2.5535125732421875,-1.4777424335479736,-0.8067455291748047
1761370282848796700,6.473796630859375,-2.3044586181640625,-1.0334804058074951,-1.0013203620910645
1761370282867408600,6.49240869140625,-1.6694908142089844,-0.746302604675293,-0.9683682918548584
1761370282886019300,6.511019287109375,-0.7541027069091797,-0.6610457897186279,-0.7261831760406494
1761370282904631300,6.52963134765625,0.4123106002807617,-0.8194112777709961,-0.531902551651001
1761370282923241700,6.54824169921875,1.493464469909668,-1.1221094131469727,-0.7829782962799072
1761370282941853700,6.566853759765625,2.207498550415039,-1.5207679271697998,-1.2605211734771729
1761370282960464100,6.585464111328125,2.171332359313965,-1.8034523725509644,-1.6534450054168701
1761370282979076000,6.604076171875,1.4223270416259766,-1.82642662525177,-1.907832145690918
1761370282997686500,6.6226865234375,0.3622407913208008,-1.6026086807250977,-1.9713399410247803
1761370283016298500,6.641298583984375,-0.29384613037109375,-1.2552249431610107,-1.7669901847839355
1761370283034909000,6.659908935546875,-0.3757486343383789,-1.0393476486206055,-1.3689570426940918
1761370283053521000,6.67852099609375,0.10828208923339844,-0.9647119045257568,-1.1145823001861572
1761370283072131600,6.697131591796875,0.6709775924682617,-1.015127420425415,-1.0322225093841553
1761370283090743600,6.71574365234375,0.8891887664794922,-1.1148648262023926,-0.8388676643371582
1761370283109354000,6.73435400390625,0.7716484069824219,-1.1171066761016846,-0.7002568244934082
1761370283127966000,6.752966064453125,0.5694036483764648,-1.0432237386703491,-0.5428934097290039
1761370283146576400,6.771576416015625,0.4289693832397461,-0.9475213289260864,-0.25867509841918945
1761370283165188400,6.790188232421875,0.28499698638916016,-0.8807485103607178,0.01984548568725586
1761370283183798800,6.808798828125,0.08163928985595703,-0.7809333801269531,0.25316381454467773
1761370283202410800,6.82741064453125,-0.18768024444580078,-0.6915044784545898,0.48407554626464844
1761370283221021200,6.846021240234375,-0.40587615966796875,-0.5847346782684326,0.7254436016082764
1761370283239633200,6.864633056640625,-0.5466299057006836,-0.45776939392089844,0.8007020950317383
1761370283258243600,6.88324365234375,-0.7172269821166992,-0.26276683807373047,0.7008755207061768
1761370283276855600,6.90185546875,-0.9059081077575684,-0.014031410217285156,0.6879620552062988
1761370283295466200,6.92046630859375,-1.0216717720031738,0.21060776710510254,0.7641048431396484
1761370283314078200,6.939078125,-0.8430256843566895,0.3460533618927002,1.0163893699645996
1761370283332688600,6.957688720703125,-0.3313789367675781,0.28914666175842285,1.2193548679351807
1761370283351300600,6.976300537109375,0.23443031311035156,0.08166146278381348,1.0845088958740234
1761370283369911000,6.9949111328125,0.5391216278076172,-0.10325407981872559,0.859504222869873
1761370283388523000,7.01352294921875,0.7545957565307617,-0.2008073329925537,0.6308057308197021
1761370283407133400,7.032133544921875,0.9205398559570312,-0.22669386863708496,0.38863706588745117
1761370283425745400,7.050745361328125,1.0767173767089844,-0.16996383666992188,0.20650434494018555
1761370283444355800,7.06935595703125,1.2388954162597656,-0.05385255813598633,0.2484889030456543
1761370283462967800,7.0879677734375,1.432652473449707,0.10262656211853027,0.4829092025756836
1761370283481578500,7.10657861328125,1.5184955596923828,0.23949050903320312,0.8459179401397705
1761370283500190500,7.1251904296875,1.6693944931030273,0.2720506191253662,1.1978986263275146
1761370283518801000,7.14380078125,1.776627540588379,0.16729116439819336,1.5571980476379395
1761370283537412900,7.162412841796875,1.6442193984985352,-0.07824921607971191,1.6695148944854736
1761370283556023300,7.181023193359375,1.1624736785888672,-0.29526662826538086,1.433250904083252
1761370283574635300,7.19963525390625,0.3567361831665039,-0.4087793827056885,1.2115600109100342
1761370283593245700,7.21824560546875,-0.4559755325317383,-0.2333998680114746,1.1573400497436523
1761370283611857700,7.236857666015625,-1.21266508102417,0.058083295822143555,1.025979995727539
1761370283630468000,7.255468017578125,-1.7559185028076172,0.3641033172607422,0.8342342376708984
1761370283649080000,7.274080078125,-1.801987648010254,0.6131000518798828,0.5498538017272949
1761370283667690800,7.292690673828125,-1.2707619667053223,0.7272000312805176,0.3538072109222412
1761370283686302700,7.311302734375,-0.4096393585205078,0.6343512535095215,0.35774898529052734
1761370283704913200,7.3299130859375,0.4624767303466797,0.44270944595336914,0.4366030693054199
1761370283723525000,7.348525146484375,1.0158052444458008,0.2215571403503418,0.39778995513916016
1761370283742135600,7.367135498046875,1.4338674545288086,-0.05190300941467285,0.4600217342376709
1761370283760747500,7.38574755859375,1.3536205291748047,-0.33684873580932617,0.47229504585266113
1761370283779358000,7.40435791015625,0.8045730590820312,-0.45227932929992676,0.25224924087524414
1761370283797970000,7.422969970703125,-0.021010398864746094,-0.3913877010345459,-0.05756807327270508
1761370283816580400,7.441580322265625,-0.7316169738769531,-0.33759236335754395,-0.07517528533935547
1761370283835192600,7.460192626953125,-1.2088737487792969,-0.12952113151550293,-0.0028488636016845703
1761370283853803000,7.478802978515625,-1.5267596244812012,0.11615109443664551,0.26174116134643555
1761370283872415000,7.4974150390625,-1.5665655136108398,0.45848560333251953,0.6089787483215332
1761370283891025400,7.516025390625,-1.148420810699463,0.7427020072937012,0.7204440832138062
1761370283909637400,7.534637451171875,-0.5593900680541992,0.6241714954376221,0.8057701587677002
1761370283928247800,7.553247802734375,-0.09501171112060547,0.44600510597229004,0.6842925548553467
1761370283946859800,7.57185986328125,0.044757843017578125,0.390761137008667,0.4463334083557129
1761370283965470200,7.59047021484375,0.06816959381103516,0.38237714767456055,0.17458391189575195
1761370283984082200,7.609082275390625,0.19038772583007812,0.33346104621887207,0.03320932388305664
1761370284002692600,7.627692626953125,0.39781951904296875,0.3314478397369385,-0.12303876876831055
1761370284021304600,7.6463046875,0.45186614990234375,0.39351439476013184,-0.34479379653930664
1761370284039915300,7.664915283203125,0.2543487548828125,0.5339069366455078,-0.5093743801116943
1761370284058527200,7.68352734375,0.061715126037597656,0.7100229263305664,-0.4410524368286133
1761370284077137700,7.7021376953125,0.3241739273071289,0.7908008098602295,-0.062085866928100586
1761370284095749600,7.72074951171875,1.0833406448364258,0.623267650604248,0.34918951988220215
1761370284114360000,7.739360107421875,1.8526039123535156,0.17569684982299805,0.6746439933776855
1761370284132972000,7.757971923828125,1.9510812759399414,-0.32028746604919434,0.7822816371917725
1761370284151582500,7.77658251953125,1.2971611022949219,-0.6940610408782959,0.6788475513458252
1761370284170194400,7.7951943359375,0.3498659133911133,-0.8473401069641113,0.4787437915802002
1761370284188804900,7.813804931640625,-0.4639739990234375,-0.7687201499938965,0.343808650970459
1761370284207416800,7.832416748046875,-1.1465559005737305,-0.6471927165985107,0.2746450901031494
1761370284226027500,7.851027587890625,-1.7224769592285156,-0.48814821243286133,0.24997615814208984
1761370284244639500,7.869639404296875,-1.8379888534545898,-0.17177104949951172,0.2862107753753662
1761370284263250000,7.88825,-1.334040641784668,-0.0935359001159668,0.6504056453704834
1761370284281862000,7.90686181640625,-0.3816671371459961,-0.2987942695617676,0.8279240131378174
1761370284300472300,7.925472412109375,0.3424196243286133,-0.5632572174072266,0.6001832485198975
1761370284319084300,7.944084228515625,0.6679620742797852,-0.7314419746398926,0.4462614059448242
1761370284337694700,7.96269482421875,0.5098400115966797,-0.6664128303527832,0.3070547580718994
1761370284356306700,7.981306640625,0.14472579956054688,-0.4055957794189453,0.19463133811950684
1761370284374917000,7.999917236328125,-0.013968467712402344,-0.12515544891357422,0.2724306583404541
1761370284393529000,8.018529052734374,-0.12798309326171875,0.031345367431640625,0.43175506591796875
1761370284412139500,8.037139404296875,-0.11054420471191406,0.05681467056274414,0.47387075424194336
1761370284430751700,8.055751708984374,-0.18666648864746094,-0.08275890350341797,0.5114552974700928
1761370284449362200,8.074362060546875,-0.25882434844970703,-0.25945568084716797,0.27163267135620117
1761370284467974100,8.09297412109375,-0.32154273986816406,-0.4048271179199219,-0.2399897575378418
1761370284486584600,8.11158447265625,-0.40320587158203125,-0.4526405334472656,-0.6827456951141357
1761370284505196500,8.130196533203126,-0.4810190200805664,-0.3934316635131836,-0.9515974521636963
1761370284523807000,8.148806884765625,-0.4351930618286133,-0.2810342311859131,-1.05250883102417
1761370284542419000,8.1674189453125,-0.27618980407714844,-0.14058685302734375,-0.8974263668060303
1761370284561029400,8.186029296875,-0.12827777862548828,-0.06352090835571289,-0.7641022205352783
1761370284579641300,8.204641357421876,-0.21777820587158203,-0.08432531356811523,-0.7412481307983398
1761370284598251800,8.223251708984375,-0.4519672393798828,-0.1336662769317627,-0.7490413188934326
1761370284616863700,8.24186376953125,-0.6242847442626953,-0.07605171203613281,-0.7681107521057129
1761370284635474200,8.26047412109375,-0.5526857376098633,0.027713775634765625,-0.6968357563018799
1761370284654086100,8.279086181640626,-0.3048124313354492,0.08073234558105469,-0.5851938724517822
1761370284672696800,8.29769677734375,-0.09711551666259766,0.12174177169799805,-0.49384093284606934
1761370284691308800,8.316308837890626,0.09420204162597656,0.17513608932495117,-0.38840556144714355
1761370284709919200,8.334919189453124,0.32346630096435547,0.22713279724121094,-0.16520357131958008
1761370284728531200,8.35353125,0.5239591598510742,0.2631106376647949,0.026510953903198242
1761370284747141600,8.3721416015625,0.6898460388183594,0.27327775955200195,0.18233144283294678
1761370284765753600,8.390753662109375,0.7864017486572266,0.23523187637329102,0.2554187774658203
1761370284784364000,8.409364013671874,0.760523796081543,0.22153329849243164,0.2745213508605957
1761370284802976000,8.42797607421875,0.5960626602172852,0.26423168182373047,0.276841402053833
1761370284821586400,8.44658642578125,0.4923982620239258,0.2732105255126953,0.3367464542388916
1761370284840198400,8.465198486328125,0.5858497619628906,0.17941761016845703,0.4283543825149536
1761370284858809000,8.48380908203125,0.7672433853149414,0.03568315505981445,0.5426157712936401
1761370284877421000,8.502421142578125,0.692082405090332,0.05845165252685547,0.5319201946258545
1761370284896031500,8.521031494140624,0.40048885345458984,0.2093672752380371,0.5313123464584351
1761370284914643500,8.5396435546875,0.15288066864013672,0.2883782386779785,0.7154854536056519
1761370284933254000,8.55825390625,0.19639968872070312,0.1770153045654297,1.0265895128250122
1761370284951865900,8.576865966796875,0.5387735366821289,-0.07912683486938477,1.24687659740448
1761370284970476300,8.595476318359376,0.6727323532104492,-0.279752254486084,1.19337797164917
1761370284989088300,8.614088134765625,0.3093900680541992,-0.2646040916442871,1.0188343524932861
1761370285007698700,8.63269873046875,-0.434906005859375,-0.0905313491821289,0.7835818529129028
1761370285026310700,8.651310546875,-1.0181093215942383,0.19840002059936523,0.5215620994567871
1761370285044921000,8.669921142578126,-1.328202724456787,0.41004133224487305,0.423447847366333
1761370285063533000,8.688532958984375,-1.1037721633911133,0.514132022857666,0.5073210000991821
1761370285082143500,8.7071435546875,-0.6699638366699219,0.3968849182128906,0.8179372549057007
1761370285100755500,8.72575537109375,-0.3233757019042969,0.27947282791137695,0.9781984090805054
1761370285119366100,8.7443662109375,-0.18512725830078125,0.1994614601135254,0.9247113466262817
1761370285137977900,8.762977783203125,-0.25079822540283203,0.1760716438293457,0.6411157846450806
1761370285156588500,8.781588623046876,-0.5788812637329102,0.28352928161621094,0.26565563678741455
1761370285175200500,8.800200439453125,-0.9644861221313477,0.4828958511352539,0.07225799560546875
1761370285193811000,8.81881103515625,-1.029693603515625,0.6791172027587891,0.06367015838623047
1761370285212423000,8.8374228515625,-0.6265468597412109,0.760807991027832,0.17018389701843262
1761370285231033300,8.856033447265625,-0.09491348266601562,0.711951732635498,0.32937026023864746
1761370285249645300,8.874645263671875,0.2698383331298828,0.6533298492431641,0.4159994125366211
1761370285268255700,8.893255859375,0.21933460235595703,0.5913782119750977,0.4430314302444458
1761370285286867700,8.91186767578125,-0.04001903533935547,0.5863261222839355,0.37947070598602295
1761370285305478100,8.93047802734375,-0.08826732635498047,0.6066317558288574,0.32167184352874756
1761370285324090000,8.949090087890625,0.1967763900756836,0.531548023223877,0.3787275552749634
1761370285342700500,8.967700439453125,0.5896720886230469,0.3626084327697754,0.3819526433944702
1761370285361312500,8.9863125,0.6713476181030273,0.25016117095947266,0.35338640213012695
1761370285379923200,9.004923095703125,0.33516502380371094,0.30710458755493164,0.24198031425476074
1761370285398535200,9.02353515625,-0.2019510269165039,0.47219085693359375,0.15926289558410645
1761370285417145300,9.042145263671875,-0.5087757110595703,0.6436905860900879,0.09712076187133789
1761370285435757600,9.060757568359374,-0.5480690002441406,0.7210450172424316,0.16632556915283203
1761370285454368000,9.079367919921875,-0.4031858444213867,0.7800655364990234,0.24422621726989746
1761370285472980000,9.09797998046875,-0.1100168228149414,0.7401647567749023,0.35467302799224854
1761370285491590400,9.11659033203125,0.2965373992919922,0.4699435234069824,0.5076755285263062
1761370285510202400,9.135202392578124,0.44870662689208984,0.20059823989868164,0.3770822286605835
1761370285528812800,9.153812744140625,0.26369762420654297,0.0027899742126464844,0.11299610137939453
1761370285547424800,9.1724248046875,-0.0922384262084961,-0.07785701751708984,-0.16882753372192383
1761370285566035200,9.19103515625,-0.18209266662597656,-0.0446314811706543,-0.2626826763153076
1761370285584647200,9.209647216796874,-0.033600807189941406,0.008960723876953125,-0.16459059715270996
1761370285603257600,9.228257568359375,0.11340904235839844,0.08917522430419922,-0.09144043922424316
1761370285621869600,9.24686962890625,0.1965780258178711,0.12368488311767578,-0.18009281158447266
1761370285640480000,9.26547998046875,0.1923084259033203,0.05877208709716797,-0.2276325225830078
1761370285659092000,9.284092041015626,0.24222946166992188,-0.12369775772094727,0.053071022033691406
1761370285677702400,9.302702392578125,0.5770292282104492,-0.37927818298339844,0.49288880825042725
1761370285696314400,9.321314453125,1.0265769958496094,-0.6817188262939453,0.667996883392334
1761370285714925000,9.339925048828125,1.0602216720581055,-0.9491839408874512,0.4637647867202759
1761370285733537000,9.358537109375,0.5882682800292969,-1.0691149234771729,0.011604547500610352
1761370285752147500,9.3771474609375,0.0057830810546875,-1.0327463150024414,-0.3369382619857788
1761370285770759400,9.395759521484376,-0.48168468475341797,-0.8879909515380859,-0.506016731262207
1761370285789369900,9.414369873046875,-0.6166419982910156,-0.6775796413421631,-0.42957305908203125
1761370285807981800,9.43298193359375,-0.4155149459838867,-0.5834236145019531,-0.09566426277160645
1761370285826592300,9.45159228515625,-0.042929649353027344,-0.5501854419708252,0.15358495712280273
1761370285845204200,9.470204345703126,0.18418598175048828,-0.5593240261077881,0.2667797803878784
1761370285863814700,9.488814697265624,0.14943408966064453,-0.6022026538848877,0.23223567008972168
1761370285882426600,9.507426513671875,0.05846214294433594,-0.6164326667785645,0.05553698539733887
1761370285901037000,9.526037109375,-0.1387462615966797,-0.5793821811676025,0.017214179039001465
1761370285919649000,9.54464892578125,-0.2626171112060547,-0.40969371795654297,0.09048175811767578
1761370285938259500,9.563259521484374,-0.3253355026245117,-0.277493953704834,0.2696782350540161
1761370285956871400,9.581871337890625,-0.28632450103759766,-0.20086431503295898,0.3513178825378418
1761370285975481900,9.60048193359375,-0.29583263397216797,-0.1754913330078125,0.3375976085662842
1761370285994093800,9.61909375,-0.38052845001220703,-0.12371206283569336,0.19459974765777588
1761370286012704300,9.637704345703124,-0.5427932739257812,-0.0955972671508789,0.013418436050415039
1761370286031316200,9.656316162109375,-0.6474332809448242,-0.014615058898925781,-0.21298694610595703
1761370286049926700,9.6749267578125,-0.5476856231689453,0.08472633361816406,-0.3075065612792969
1761370286068539000,9.693538818359375,-0.3095207214355469,0.16573810577392578,-0.25451064109802246
1761370286087149300,9.7121494140625,-0.029848098754882812,0.20843744277954102,-0.16939997673034668
1761370286105761000,9.730760986328125,0.1495685577392578,0.25821876525878906,-0.09148812294006348
1761370286124371700,9.749371826171876,0.18613147735595703,0.25934696197509766,-0.0651702880859375
1761370286142983700,9.767983642578125,0.3443727493286133,0.3564131259918213,-0.04249262809753418
1761370286161594000,9.786593994140626,0.39052391052246094,0.2172834873199463,-0.007623434066772461
1761370286180206000,9.8052060546875,0.27663421630859375,0.2912149429321289,0.05593085289001465
1761370286198816500,9.82381640625,0.08947563171386719,0.3724205493927002,0.07962656021118164
1761370286217428500,9.842428466796875,-0.02701568603515625,0.4611995220184326,0.04015374183654785
1761370286236039000,9.861038818359376,-0.033527374267578125,0.49278807640075684,0.0013568401336669922
1761370286254651000,9.87965087890625,0.1284646987915039,0.4536247253417969,0.15638947486877441
1761370286273261300,9.89826123046875,0.3147411346435547,0.40297508239746094,0.30914103984832764
1761370286291873300,9.916873291015625,0.3537330627441406,0.3083951473236084,0.4804292917251587
1761370286310483700,9.935483642578125,0.3662118911743164,0.12958002090454102,0.5693655014038086
1761370286329095700,9.954095703125,0.47025489807128906,-0.1688542366027832,0.35602235794067383
1761370286347706000,9.9727060546875,0.25872039794921875,-0.2972586154937744,0.14156365394592285
1761370286366318000,9.991318115234375,-0.06267452239990234,-0.21051645278930664,-0.10088968276977539
1761370286384928500,10.009928466796875,-0.26068973541259766,0.04242753982543945,-0.17766451835632324
1761370286403540500,10.02854052734375,-0.15262794494628906,0.3324904441833496,-0.03794121742248535
1761370286422151000,10.04715087890625,0.2976245880126953,0.32274484634399414,0.49291014671325684
1761370286440763000,10.065762939453125,0.9283638000488281,0.08153915405273438,0.9537712335586548
1761370286459373300,10.084373291015625,1.4649658203125,-0.23558473587036133,1.0068600177764893
1761370286477985300,10.1029853515625,1.4622306823730469,-0.5200233459472656,0.890904426574707
1761370286496595700,10.121595703125,0.6080293655395508,-0.5404820442199707,0.6814860105514526
1761370286515207700,10.140207763671874,-0.44086360931396484,-0.15465879440307617,0.3774315118789673
1761370286533818000,10.158818115234375,-1.039504051208496,0.20811223983764648,0.09101498126983643
1761370286552430000,10.17743017578125,-1.1021857261657715,0.4480743408203125,-0.03301191329956055
1761370286571040500,10.19604052734375,-0.8416366577148438,0.5726313591003418,0.07749319076538086
1761370286589652500,10.214652587890624,-0.6421756744384766,0.6657247543334961,0.299033522605896
1761370286608263000,10.233262939453125,-0.696162223815918,0.7195954322814941,0.27807140350341797
1761370286626875000,10.251875,-0.824915885925293,0.7039875984191895,0.022866010665893555
1761370286645485600,10.270485595703125,-0.8799734115600586,0.6248722076416016,-0.22391200065612793
1761370286664097300,10.28909716796875,-0.7586650848388672,0.5379242897033691,-0.2720930576324463
1761370286682708000,10.3077080078125,-0.4311046600341797,0.35602712631225586,-0.07115745544433594
1761370286701320000,10.32631982421875,-0.008510589599609375,0.10846996307373047,0.07408583164215088
1761370286719930400,10.344930419921875,0.2650146484375,-0.16511869430541992,0.02871572971343994
1761370286738542300,10.363542236328126,0.2444772720336914,-0.32730817794799805,-0.18806171417236328
1761370286757152800,10.38215283203125,-0.05414104461669922,-0.29783153533935547,-0.3922196626663208
1761370286775764700,10.4007646484375,-0.34682273864746094,-0.14218950271606445,-0.47750043869018555
1761370286794375200,10.419375244140625,-0.37256813049316406,0.06207752227783203,-0.332302451133728
1761370286812987100,10.437987060546876,-0.13814258575439453,0.20592308044433594,-0.20126080513000488
1761370286831597600,10.45659765625,-0.07532787322998047,0.2643566131591797,0.023056983947753906
1761370286850209500,10.47520947265625,-0.36971092224121094,0.3941521644592285,0.1386047601699829
1761370286868820000,10.493820068359375,-0.743013858795166,0.44313716888427734,0.18063831329345703
1761370286887432000,10.512431884765626,-0.9194979667663574,0.5500860214233398,0.08769619464874268
1761370286906042400,10.53104248046875,-0.8847560882568359,0.6782045364379883,-0.12921380996704102
1761370286924654300,10.549654296875,-0.7546920776367188,0.7614302635192871,-0.3316948413848877
1761370286943264800,10.5682646484375,-0.36156749725341797,0.6504330635070801,-0.2698090076446533
1761370286961876700,10.586876708984375,0.31679439544677734,0.28333520889282227,0.0004734992980957031
1761370286980487200,10.605487060546874,0.9441442489624023,-0.27501821517944336,0.22517085075378418
1761370286999099100,10.62409912109375,1.051687240600586,-0.7861311435699463,0.2219158411026001
1761370287017709600,10.64270947265625,0.6687192916870117,-1.0770156383514404,-0.00611424446105957
1761370287036321500,10.661321533203125,-0.0366668701171875,-1.1221609115600586,-0.25876307487487793
1761370287054932000,10.679931884765624,-0.6057844161987305,-1.0234808921813965,-0.3526594638824463
1761370287073544000,10.6985439453125,-0.9140024185180664,-0.9303364753723145,-0.24771356582641602
1761370287092154400,10.717154296875,-0.9865608215332031,-0.8009850978851318,-0.09731769561767578
1761370287110766300,10.735766357421875,-0.9362773895263672,-0.7655596733093262,0.04771280288696289
1761370287129376800,10.754376708984376,-0.9520297050476074,-0.7950522899627686,0.06636786460876465
1761370287147988700,10.77298876953125,-1.0277085304260254,-0.8104984760284424,-0.00752711296081543
1761370287166599200,10.79159912109375,-0.9568204879760742,-0.881709098815918,-0.12196230888366699
1761370287185211100,10.810211181640625,-0.6842098236083984,-0.9359791278839111,-0.5029462575912476
1761370287203821600,10.828821533203126,-0.36743640899658203,-0.9342446327209473,-0.896754264831543
1761370287222433500,10.84743359375,-0.2560882568359375,-0.7638216018676758,-0.9686695337295532
1761370287241044000,10.8660439453125,-0.2496967315673828,-0.6574227809906006,-1.0097123384475708
1761370287259656000,10.884656005859375,0.1529102325439453,-0.6729762554168701,-0.9076255559921265
1761370287278266400,10.903266357421876,0.8404874801635742,-0.7553057670593262,-0.8896827697753906
1761370287296878300,10.92187841796875,1.2519760131835938,-0.815924882888794,-1.0190279483795166
1761370287315488800,10.94048876953125,1.0997953414916992,-0.6971986293792725,-1.1095186471939087
1761370287334100700,10.959100830078125,0.7904834747314453,-0.6939458847045898,-1.370987892150879
1761370287352711200,10.977711181640625,0.5152673721313477,-0.7461800575256348,-1.5380480289459229
1761370287371323100,10.9963232421875,1.1114015579223633,-0.7232675552368164,-1.458341360092163
1761370287389933600,11.01493359375,1.4898414611816406,-0.5785133838653564,-1.0749273300170898
1761370287408545500,11.033545654296875,2.0285940170288086,-0.7746987342834473,-0.3496781587600708
