time,seconds_elapsed,z,y,x
1761369571131330300,0.289330322265625,0.014112472534179688,0.07537460327148438,-0.17854145169258118
1761369571149940500,0.3079404296875,-0.19550609588623047,0.20899510383605957,-0.33870548009872437
1761369571168552000,0.326552001953125,-0.32457923889160156,0.17112350463867188,0.033629268407821655
1761369571187162000,0.345162109375,-0.2577371597290039,0.16109299659729004,0.28764620423316956
1761369571205773800,0.36377392578125,-0.16931533813476562,0.08215880393981934,0.2865360975265503
1761369571224383700,0.3823837890625,-0.5790901184082031,-0.025748252868652344,-0.1097952127456665
1761369571242995500,0.400995361328125,-0.6555995941162109,0.24599218368530273,0.11326932907104492
1761369571261605600,0.419605712890625,-0.953709602355957,0.15435552597045898,0.21685346961021423
1761369571280217000,0.438217041015625,-0.9229440689086914,0.08587265014648438,0.0015465021133422852
1761369571298827300,0.4568271484375,-0.8766050338745117,0.15178155899047852,0.1347384750843048
1761369571317438700,0.475438720703125,-0.4807310104370117,0.21132993698120117,0.29030919075012207
1761369571336049000,0.494048828125,-0.1159210205078125,0.11970233917236328,-0.08359801769256592
1761369571354660600,0.51266064453125,-0.06345653533935547,0.08282613754272461,-0.08819341659545898
1761369571373270500,0.5312705078125,-0.12713623046875,0.09461116790771484,0.12677592039108276
1761369571391882200,0.54988232421875,-0.23295211791992188,0.16422271728515625,0.2952633500099182
1761369571410492400,0.568492431640625,0.04889392852783203,0.13168597221374512,0.10292202234268188
1761369571429103900,0.587103759765625,0.5717916488647461,0.09170961380004883,0.11144798994064331
1761369571447714000,0.605714111328125,0.8419179916381836,0.01901078224182129,0.025967955589294434
1761369571466325500,0.624325439453125,0.847294807434082,0.03965425491333008,-0.12781190872192383
1761369571484935700,0.642935791015625,0.7217988967895508,0.051386356353759766,-0.13277772068977356
1761369571503547400,0.66154736328125,0.4116373062133789,0.04564785957336426,-0.22825509309768677
1761369571522157300,0.6801572265625,0.011926651000976562,0.10077381134033203,-0.3468765616416931
1761369571540769000,0.69876904296875,-0.1204681396484375,0.10314130783081055,-0.4519999623298645
1761369571559379200,0.717379150390625,0.10105705261230469,0.07740497589111328,-0.12617138028144836
1761369571577990700,0.73599072265625,0.1666879653930664,0.1481473445892334,0.1725231409072876
1761369571596600800,0.754600830078125,-0.12509822845458984,0.13770055770874023,-0.06435286998748779
1761369571615212300,0.77321240234375,-0.43819236755371094,0.16838693618774414,-0.3960629105567932
1761369571633822500,0.791822509765625,-0.6857938766479492,0.10730385780334473,-0.2612072825431824
1761369571652434200,0.81043408203125,-0.7660942077636719,0.12944364547729492,0.12443754076957703
1761369571671044000,0.829044189453125,-0.5049562454223633,0.08980870246887207,0.38553836941719055
1761369571689655800,0.84765576171875,0.006422996520996094,0.09697318077087402,0.5185675621032715
1761369571708266000,0.866265869140625,0.4310636520385742,0.10911369323730469,0.4650815427303314
1761369571726877400,0.88487744140625,0.5714263916015625,0.046138763427734375,0.22287410497665405
1761369571745487600,0.903487548828125,0.42444896697998047,-0.0228424072265625,-0.015774935483932495
1761369571764099000,0.92209912109375,0.2474985122680664,-0.04359626770019531,-0.3174475133419037
1761369571782709200,0.940709228515625,0.27188873291015625,-0.025197982788085938,-0.4609137773513794
1761369571801321000,0.959321044921875,0.46214771270751953,-0.04104113578796387,-0.3843413293361664
1761369571819931000,0.977930908203125,0.5460777282714844,0.01496577262878418,-0.15870437026023865
1761369571838542600,0.99654248046875,0.32579898834228516,0.08044958114624023,0.09544673562049866
1761369571857152800,1.01515283203125,-0.0038976669311523438,0.0949256420135498,-0.0014817118644714355
1761369571875764200,1.03376416015625,-0.12041568756103516,-0.05865645408630371,0.017302483320236206
1761369571894374400,1.05237451171875,-0.17391681671142578,0.0199582576751709,0.1067865788936615
1761369571912986000,1.070986083984375,-0.28267574310302734,0.006056547164916992,0.2305619716644287
1761369571931596000,1.089595947265625,-0.3164663314819336,0.10134339332580566,0.18308386206626892
1761369571950207700,1.108207763671875,-0.29979991912841797,0.0006039142608642578,0.015241831541061401
1761369571968818000,1.12681787109375,-0.38269710540771484,0.08082127571105957,-0.19721440970897675
1761369571987429400,1.145429443359375,-0.46614742279052734,0.009598731994628906,-0.14967228472232819
1761369572006039600,1.16403955078125,-0.4836568832397461,0.14784932136535645,0.058769047260284424
1761369572024651000,1.182651123046875,-0.40199851989746094,0.15094971656799316,0.24441412091255188
1761369572043261200,1.20126123046875,-0.08501434326171875,0.049721479415893555,0.20170694589614868
1761369572061873000,1.219872802734375,0.13528728485107422,0.0704493522644043,0.09179067611694336
1761369572080482800,1.23848291015625,0.41356754302978516,0.08604168891906738,0.23760443925857544
1761369572099094500,1.257094482421875,0.6869964599609375,-0.028064250946044922,0.35216841101646423
1761369572117704700,1.27570458984375,0.6931791305541992,0.0014119148254394531,0.072978675365448
1761369572136316200,1.294316162109375,0.5824413299560547,-0.18062376976013184,-0.27367788553237915
1761369572154926300,1.31292626953125,0.3394289016723633,0.08147239685058594,-0.3011566996574402
1761369572173538000,1.3315380859375,0.06481647491455078,-0.07125377655029297,-0.39063209295272827
1761369572192148000,1.35014794921875,0.0066852569580078125,0.048597097396850586,-0.4333692193031311
1761369572210759700,1.368759765625,0.0956277847290039,-0.011559247970581055,-0.25676998496055603
1761369572229369900,1.387369873046875,0.17881202697753906,-0.05749797821044922,-0.2620601952075958
1761369572247981300,1.405981201171875,0.02420806884765625,-0.10161137580871582,-0.2622280716896057
1761369572266591500,1.424591552734375,-0.04691791534423828,-0.08788108825683594,-0.20082776248455048
1761369572285203200,1.443203125,-0.2937583923339844,-0.08570361137390137,0.00735531747341156
1761369572303813000,1.461813232421875,-0.35225868225097656,0.312091588973999,-0.08437984436750412
1761369572322424800,1.4804248046875,-0.2885274887084961,0.02205061912536621,-0.6708272099494934
1761369572341034800,1.49903466796875,-0.32122135162353516,-0.026707172393798828,0.08314292132854462
1761369572359646500,1.517646484375,-0.2606163024902344,0.10556364059448242,0.5047905445098877
1761369572378256600,1.536256591796875,0.02404499053955078,-0.20044732093811035,1.2246546745300293
1761369572396868000,1.5548681640625,0.41921424865722656,0.2973322868347168,0.7499039173126221
1761369572415478300,1.573478271484375,0.6618680953979492,-0.00898432731628418,0.01222306489944458
1761369572434090000,1.592090087890625,0.5823841094970703,-0.11019539833068848,-0.04943731427192688
1761369572452700000,1.610699951171875,0.46886730194091797,0.12473440170288086,0.1827288269996643
1761369572471311600,1.6293115234375,0.2359476089477539,0.026296377182006836,0.04992169141769409
1761369572489921800,1.647921875,0.20403671264648438,-0.0696861743927002,-0.8310799598693848
1761369572508533200,1.666533203125,0.3357877731323242,-0.06756448745727539,-0.8714122176170349
1761369572527143400,1.685143310546875,0.41318225860595703,-0.07301998138427734,-0.38667190074920654
1761369572545755100,1.703755126953125,0.2996072769165039,-0.04860401153564453,-0.07230150699615479
1761369572564365000,1.722364990234375,0.20829105377197266,-0.009150028228759766,0.03248840570449829
1761369572582976800,1.740976806640625,0.09158802032470703,-0.05844831466674805,0.0682682991027832
1761369572601586700,1.759586669921875,-0.16176509857177734,-0.14324426651000977,-0.05511879920959473
1761369572620198400,1.778198486328125,-0.46201229095458984,-0.041695594787597656,0.1028897762298584
1761369572638808600,1.79680859375,-0.6507377624511719,-0.10511112213134766,0.14949339628219604
1761369572657420000,1.815419921875,-0.8332223892211914,-0.021429061889648438,-0.1060706377029419
1761369572676030200,1.8340302734375,-0.8237733840942383,0.025673389434814453,-0.06442540884017944
1761369572694642000,1.852641845703125,-0.5924301147460938,-0.000621795654296875,0.3813830018043518
1761369572713251800,1.871251953125,-0.47788238525390625,-0.015880107879638672,0.5798973441123962
1761369572731863600,1.889863525390625,-0.45878124237060547,-0.025475025177001953,0.30080753564834595
1761369572750473700,1.9084736328125,-0.4645051956176758,0.04083871841430664,0.013733744621276855
1761369572769085200,1.927085205078125,-0.22926998138427734,0.056099891662597656,0.0051271915435791016
1761369572787695400,1.9456953125,-0.053612709045410156,0.03780984878540039,0.2152465581893921
1761369572806306800,1.964306884765625,0.04631328582763672,0.04414844512939453,0.276730477809906
1761369572824917000,1.9829169921875,0.07109832763671875,0.027591705322265625,0.02232050895690918
1761369572843528700,2.00152880859375,0.10375308990478516,0.019689083099365234,-0.2394695281982422
1761369572862138600,2.020138671875,0.3642082214355469,-0.00018596649169921875,-0.09409275650978088
1761369572880750300,2.038750244140625,0.4197959899902344,0.020162105560302734,0.03295499086380005
1761369572899360500,2.057360595703125,0.19397926330566406,0.02420663833618164,-0.049362361431121826
1761369572917972000,2.075971923828125,0.0024929046630859375,-0.0056610107421875,-0.20094549655914307
1761369572936582100,2.09458203125,-0.014675140380859375,-0.013750553131103516,-0.05954673886299133
1761369572955193900,2.11319384765625,0.07649803161621094,-0.007792472839355469,0.22873669862747192
1761369572973803800,2.1318037109375,0.0043659210205078125,-0.07103872299194336,0.15013030171394348
1761369572992415500,2.15041552734375,-0.3046131134033203,0.005980014801025391,-0.02501124143600464
1761369573011025700,2.169025634765625,-0.6105184555053711,0.06459951400756836,-0.13290786743164062
1761369573029637000,2.18763720703125,-0.5948486328125,0.029373645782470703,0.06522446870803833
1761369573048247300,2.206247314453125,-0.2687339782714844,0.03141975402832031,0.3309077024459839
1761369573066858800,2.224858642578125,-0.1914224624633789,0.06853723526000977,0.26589250564575195
1761369573085469000,2.243468994140625,-0.23770713806152344,0.09305143356323242,-0.035409748554229736
1761369573104080600,2.26208056640625,-0.1166219711303711,0.0633397102355957,-0.2610681653022766
1761369573122690600,2.280690673828125,0.06839656829833984,0.06585168838500977,-0.28741949796676636
1761369573141302300,2.29930224609375,0.3411064147949219,0.07347345352172852,-0.13311895728111267
1761369573159912400,2.317912353515625,0.7115774154663086,0.05742645263671875,0.05655848979949951
1761369573178524000,2.33652392578125,0.7559957504272461,0.04564380645751953,0.09022781252861023
1761369573197134000,2.355134033203125,0.4980583190917969,0.0419306755065918,-0.024180948734283447
1761369573215745500,2.37374560546875,0.2545614242553711,0.004689693450927734,-0.10420700907707214
1761369573234355700,2.392355712890625,0.10665512084960938,-0.003269672393798828,0.010526478290557861
1761369573252967400,2.410967529296875,0.0012292861938476562,-0.011713981628417969,0.08929866552352905
1761369573271577300,2.429577392578125,-0.1524820327758789,-0.002956867218017578,0.06535261869430542
1761369573290189000,2.44818896484375,-0.31957340240478516,-0.019527435302734375,0.01627272367477417
1761369573308799200,2.46679931640625,-0.3540229797363281,-0.025810718536376953,-0.040245652198791504
1761369573327410700,2.48541064453125,-0.3041238784790039,-0.04892110824584961,-0.059517741203308105
1761369573346020900,2.504020751953125,-0.25817012786865234,-0.03463411331176758,0.08570665121078491
1761369573364632300,2.52263232421875,-0.2743263244628906,-0.02105093002319336,0.1609782576560974
1761369573383242500,2.541242431640625,-0.3018789291381836,-0.009730815887451172,0.1290927529335022
1761369573401854200,2.559854248046875,-0.2591257095336914,0.009044647216796875,0.12975084781646729
1761369573420464000,2.578464111328125,-0.22947216033935547,0.010962486267089844,0.1647053360939026
1761369573439075800,2.597075927734375,-0.17044544219970703,-0.010437965393066406,0.18295717239379883
1761369573457686000,2.61568603515625,-0.12692928314208984,0.021706581115722656,0.13857430219650269
1761369573476297500,2.63429736328125,-0.04173469543457031,0.0489654541015625,0.06156092882156372
1761369573494907600,2.65290771484375,0.106597900390625,0.055203914642333984,0.053486645221710205
1761369573513519400,2.671519287109375,0.20343303680419922,0.0614471435546875,0.06928598880767822
1761369573532129300,2.69012939453125,0.28334808349609375,0.040679931640625,-0.001038968563079834
1761369573550741000,2.708740966796875,0.3283376693725586,0.06128072738647461,-0.06514203548431396
1761369573569351000,2.727350830078125,0.32349395751953125,-0.004836082458496094,-0.08094620704650879
1761369573587962600,2.745962646484375,0.21156692504882812,0.12569475173950195,-0.060943424701690674
1761369573606572500,2.764572509765625,0.25748729705810547,0.02842855453491211,-0.10360762476921082
1761369573625184300,2.783184326171875,0.3412742614746094,0.0380101203918457,-0.33728963136672974
1761369573643794400,2.80179443359375,0.4714488983154297,0.011137962341308594,-0.3321489095687866
1761369573662406000,2.820406005859375,0.46682071685791016,-0.009088993072509766,-0.11293178796768188
1761369573681016000,2.83901611328125,0.3876972198486328,-0.050694942474365234,-0.07356575131416321
1761369573699627800,2.857627685546875,0.23302078247070312,-0.08093547821044922,-0.24650296568870544
1761369573718237700,2.87623779296875,0.10449028015136719,-0.11520195007324219,-0.32050570845603943
1761369573736849400,2.894849365234375,0.0020589828491210938,-0.10516500473022461,-0.1566523313522339
1761369573755459300,2.913459228515625,-0.21489715576171875,-0.1001901626586914,0.10862231254577637
1761369573774071000,2.932071044921875,-0.4895820617675781,-0.09865379333496094,0.2589414715766907
1761369573792681200,2.95068115234375,-0.6943187713623047,-0.10017585754394531,0.25873225927352905
1761369573811292700,2.969292724609375,-0.7718687057495117,-0.08333683013916016,0.23948627710342407
1761369573829902800,2.98790283203125,-0.7594394683837891,-0.07679414749145508,0.21447700262069702
1761369573848514600,3.0065146484375,-0.6386699676513672,-0.053801536560058594,0.3119148015975952
1761369573867124500,3.02512451171875,-0.5520782470703125,-0.04047060012817383,0.29503560066223145
1761369573885736200,3.043736083984375,-0.3819751739501953,0.00017023086547851562,0.14364826679229736
1761369573904346000,3.06234619140625,0.13680076599121094,0.049013614654541016,0.11062359809875488
1761369573922957800,3.080957763671875,0.5711250305175781,0.039322853088378906,0.21709465980529785
1761369573941568000,3.099568115234375,0.7233572006225586,0.022550106048583984,0.21877622604370117
1761369573960179500,3.118179443359375,0.5482540130615234,0.04060554504394531,0.07508736848831177
1761369573978789600,3.13678955078125,0.4887857437133789,0.037151336669921875,-0.11627024412155151
1761369573997401000,3.155401123046875,0.3905754089355469,0.006352901458740234,-0.2051278054714203
1761369574016011300,3.17401123046875,0.15368938446044922,-0.0039157867431640625,-0.21861183643341064
1761369574034623000,3.192623046875,0.13687896728515625,0.008244037628173828,-0.15578091144561768
1761369574053233000,3.21123291015625,0.3257160186767578,-0.013647079467773438,0.0071236491203308105
1761369574071844600,3.2298447265625,0.3296937942504883,-0.0321803092956543,0.025925099849700928
1761369574090454500,3.24845458984375,0.0942983627319336,-0.06835603713989258,-0.1508895754814148
1761369574109066200,3.267066162109375,-0.08919906616210938,-0.07162046432495117,-0.10641777515411377
1761369574127676400,3.285676513671875,-0.15674781799316406,-0.02986621856689453,0.18644380569458008
1761369574146287900,3.304287841796875,-0.0655050277709961,-0.06137275695800781,0.48325639963150024
1761369574164898000,3.32289794921875,-0.55224609375,-0.059282779693603516,0.1253185272216797
1761369574183509800,3.341509765625,-0.7082624435424805,-0.0005154609680175781,-0.14887410402297974
1761369574202119700,3.36011962890625,-0.6776208877563477,0.050864219665527344,-0.17957720160484314
1761369574220731400,3.3787314453125,-0.3458433151245117,-0.026653289794921875,0.17877787351608276
1761369574239341300,3.39734130859375,-0.28995800018310547,-0.038336753845214844,0.24007272720336914
1761369574257953000,3.415953125,-0.35838890075683594,-0.015598773956298828,0.017959535121917725
1761369574276563200,3.434563232421875,-0.21334171295166016,-0.0010066032409667969,0.020433008670806885
1761369574295174700,3.453174560546875,0.10030269622802734,0.012746334075927734,0.33417099714279175
1761369574313784800,3.471784912109375,0.21865558624267578,0.016570091247558594,0.3509988784790039
1761369574332396300,3.490396240234375,0.1272573471069336,0.022092819213867188,-0.01412731409072876
1761369574351006500,3.50900634765625,0.18366146087646484,-0.08872556686401367,-0.12787413597106934
1761369574369618000,3.527617919921875,0.2814912796020508,0.10762453079223633,-0.02475118637084961
1761369574388228000,3.54622802734375,0.4071626663208008,0.0011630058288574219,0.10059863328933716
1761369574406839800,3.56483984375,0.5184898376464844,0.0065975189208984375,-0.0712507963180542
1761369574425449700,3.58344970703125,0.5342588424682617,-0.0661478042602539,-0.3274441063404083
1761369574444061400,3.6020615234375,0.2352886199951172,0.03541278839111328,-0.3646583557128906
1761369574462671400,3.62067138671875,0.38762760162353516,-0.030663013458251953,-0.17512211203575134
1761369574481283000,3.639282958984375,0.5896587371826172,0.05365180969238281,0.32816243171691895
1761369574499893200,3.657893310546875,1.0624446868896484,-0.15848016738891602,0.6062368154525757
1761369574518504700,3.676504638671875,0.7299938201904297,-0.07520580291748047,0.5552049875259399
1761369574537115000,3.695114990234375,0.18871212005615234,-0.13526582717895508,0.05424317717552185
1761369574555726600,3.7137265625,-0.2950916290283203,-0.09069347381591797,-0.27814823389053345
1761369574574336500,3.73233642578125,-0.5554370880126953,-0.06506919860839844,-0.41465848684310913
1761369574592948200,3.7509482421875,-0.7707090377807617,-0.020956993103027344,-0.32817238569259644
1761369574611558100,3.76955810546875,-0.6380167007446289,0.008202552795410156,-0.22512224316596985
1761369574630169900,3.788169921875,-0.3728189468383789,-0.0848846435546875,-0.11399277299642563
1761369574648780000,3.806780029296875,-0.3933391571044922,-0.012427806854248047,0.10148470103740692
1761369574667391500,3.8253916015625,-0.30316162109375,-0.009771347045898438,0.18068745732307434
1761369574686001700,3.844001708984375,-0.06365489959716797,-0.004246234893798828,0.20876134932041168
1761369574704613000,3.862613037109375,0.057471275329589844,-0.018974781036376953,0.27623888850212097
1761369574723223300,3.881223388671875,0.13744640350341797,0.008113384246826172,0.21102404594421387
1761369574741834800,3.899834716796875,0.28250885009765625,-0.02994537353515625,0.05612006038427353
1761369574760445000,3.91844482421875,0.37311744689941406,-0.024581432342529297,0.16885842382907867
1761369574779056600,3.937056640625,0.3472414016723633,-0.06796503067016602,0.17007020115852356
1761369574797666600,3.95566650390625,0.35523128509521484,-0.06105232238769531,-0.05701601505279541
1761369574816278300,3.9742783203125,0.32658863067626953,-0.0436244010925293,-0.19891464710235596
1761369574834888200,3.99288818359375,0.17596435546875,-0.1006622314453125,-0.11803226917982101
1761369574853500000,4.0115,-0.014263153076171875,-0.12609338760375977,-0.20684051513671875
1761369574872110000,4.030110107421875,-0.028760910034179688,-0.09339380264282227,-0.05831433832645416
1761369574890721500,4.048721435546875,-0.013110160827636719,-0.15694856643676758,0.15316042304039001
1761369574909331700,4.067331787109375,-0.09039306640625,-0.13521385192871094,0.12061568349599838
1761369574927943200,4.085943115234375,-0.2721061706542969,-0.13993597030639648,0.0027428269386291504
1761369574946553300,4.10455322265625,-0.4630441665649414,-0.12183380126953125,0.13439682126045227
1761369574965164800,4.123164794921875,-0.6024165153503418,-0.08850717544555664,0.21313227713108063
1761369574983775000,4.14177490234375,-0.8316864967346191,-0.0794062614440918,-0.07421700656414032
1761369575002386400,4.160386474609375,-0.9130959510803223,-0.04541158676147461,-0.22940751910209656
1761369575020996600,4.17899658203125,-0.837458610534668,-0.047963619232177734,-0.018164128065109253
1761369575039608300,4.1976083984375,-0.7187399864196777,-0.0929713249206543,0.334924578666687
1761369575058218200,4.21621826171875,-0.544060230255127,-0.050652503967285156,0.5482905507087708
1761369575076830000,4.234829833984375,-0.25288963317871094,0.0870513916015625,0.5062857866287231
1761369575095440000,4.25343994140625,0.1996164321899414,-0.32338714599609375,0.5262490510940552
1761369575114051600,4.272051513671875,0.16647815704345703,0.044190406799316406,0.9989246129989624
1761369575132661500,4.29066162109375,0.4636707305908203,0.06105756759643555,0.6382965445518494
1761369575151273200,4.309273193359375,0.655482292175293,0.16555309295654297,-0.058551669120788574
1761369575169883400,4.32788330078125,0.9391260147094727,-0.45076847076416016,-0.41872090101242065
1761369575188494800,4.346494873046875,0.3861885070800781,0.10586023330688477,-0.28182509541511536
1761369575207105000,4.36510498046875,0.15217113494873047,0.05260419845581055,-0.6441831588745117
1761369575225716500,4.383716552734375,0.08028030395507812,0.20618915557861328,-0.86323082447052
1761369575244326700,4.40232666015625,0.5838279724121094,-0.31513547897338867,-0.34445685148239136
1761369575262938000,4.420938232421875,0.2765235900878906,0.09779644012451172,0.20764513313770294
1761369575281548300,4.43954833984375,0.04790306091308594,0.010569095611572266,-0.13520881533622742
1761369575300159700,4.45815966796875,-0.025167465209960938,-0.022902965545654297,-0.30546802282333374
1761369575318770000,4.47677001953125,0.11416387557983398,-0.059056758880615234,-0.004518657922744751
1761369575337381600,4.495381591796875,0.10028696060180664,-0.08337116241455078,0.2772423028945923
1761369575355991600,4.513991455078125,0.013117790222167969,-0.06740140914916992,0.1540013700723648
1761369575374603300,4.532603271484375,-0.05350542068481445,-0.02779102325439453,-0.03020840883255005
1761369575393213200,4.551213134765625,-0.08377408981323242,-0.04023408889770508,0.05284717679023743
1761369575411825000,4.569824951171875,-0.09906339645385742,-0.04768562316894531,0.12014314532279968
1761369575430434800,4.588434814453125,-0.1815505027770996,-0.0534210205078125,0.144197016954422
1761369575449046500,4.607046630859375,-0.14251995086669922,-0.04582357406616211,0.0709114670753479
1761369575467656700,4.62565673828125,-0.04460906982421875,-0.07784128189086914,0.06683185696601868
1761369575486268200,4.64426806640625,0.013111591339111328,-0.08103466033935547,0.05307549238204956
1761369575504878300,4.66287841796875,-0.06615972518920898,-0.07111644744873047,0.018986105918884277
1761369575523489800,4.68148974609375,-0.1872110366821289,-0.03525972366333008,-0.013238608837127686
1761369575542100000,4.700099853515625,-0.19374418258666992,-0.04468488693237305,-0.03564739227294922
1761369575560711400,4.71871142578125,-0.14029741287231445,-0.04561185836791992,-0.0656108558177948
1761369575579321600,4.737321533203125,-0.08876180648803711,-0.024669647216796875,0.025854527950286865
1761369575597933000,4.75593310546875,-0.04797935485839844,-0.03708600997924805,0.1540251225233078
1761369575616543200,4.774543212890625,0.004849433898925781,-0.008693695068359375,0.2391873449087143
1761369575635154700,4.79315478515625,0.08040857315063477,-0.01941537857055664,0.15635740756988525
1761369575653764900,4.811764892578125,0.1131443977355957,-0.0343017578125,-0.03625825047492981
1761369575672376600,4.83037646484375,0.11632204055786133,-0.051024436950683594,0.02053120732307434
1761369575690986500,4.848986572265625,0.06488990783691406,-0.04266929626464844,0.11086875200271606
1761369575709598200,4.86759814453125,0.12880420684814453,-0.07461309432983398,0.028233349323272705
1761369575728208100,4.8862080078125,-0.1473221778869629,0.02046966552734375,-0.2520262897014618
1761369575746819800,4.90481982421875,-0.13581275939941406,0.0015454292297363281,-0.2334694266319275
1761369575765429800,4.9234296875,0.03274679183959961,-0.049570560455322266,0.016484767198562622
1761369575784041500,4.94204150390625,0.01907205581665039,-0.05763530731201172,0.14900465309619904
1761369575802651600,4.960651611328125,-0.07912635803222656,-0.005568504333496094,0.10034683346748352
1761369575821263000,4.97926318359375,-0.10405635833740234,0.03830575942993164,0.05768576264381409
1761369575839873300,4.997873291015625,-0.007764339447021484,-0.004643440246582031,0.14679504930973053
1761369575858484700,5.016484619140625,0.09846019744873047,-0.036312103271484375,0.2009166032075882
1761369575877095000,5.035094970703125,0.13321685791015625,-0.02945852279663086,0.20687836408615112
1761369575895706400,5.053706298828125,0.039299964904785156,-0.021785736083984375,0.11810275912284851
1761369575914316500,5.072316650390625,-0.16730976104736328,-0.014620780944824219,0.029695779085159302
1761369575932928000,5.090927978515625,-0.3115534782409668,-0.004107475280761719,-0.08601745963096619
1761369575951538200,5.1095380859375,-0.29144716262817383,0.006333351135253906,-0.12688282132148743
1761369575970149600,5.128149658203125,-0.03956747055053711,-0.017620086669921875,0.06080585718154907
1761369575988759800,5.146759765625,0.1681962013244629,-0.05695915222167969,0.24317747354507446
1761369576007371300,5.165371337890625,0.14814138412475586,-0.046776771545410156,0.17262022197246552
1761369576025981400,5.1839814453125,-0.008217811584472656,-0.03053903579711914,0.036354005336761475
1761369576044593200,5.20259326171875,-0.1054997444152832,-0.024112701416015625,-0.024849116802215576
1761369576063203000,5.221203125,-0.10191822052001953,0.011590003967285156,-0.09294924139976501
1761369576081814800,5.239814697265625,-0.03953838348388672,-0.013573169708251953,-0.099810391664505
1761369576100424700,5.2584248046875,-0.031491756439208984,0.0007596015930175781,-0.010165244340896606
1761369576119036400,5.277036376953125,0.08613443374633789,-0.0013813972473144531,0.11513613164424896
1761369576137646300,5.295646240234375,0.21583032608032227,0.0004429817199707031,0.16194936633110046
1761369576156258000,5.314258056640625,0.19750738143920898,0.02468729019165039,0.1523028463125229
1761369576174868000,5.332867919921875,0.16776466369628906,0.019765377044677734,0.06835740804672241
1761369576193479700,5.351479736328125,0.18774175643920898,0.033858299255371094,-0.019547969102859497
1761369576212089900,5.37008984375,0.2099471092224121,0.003973484039306641,-0.028365284204483032
1761369576230701300,5.388701416015625,0.16707897186279297,0.0017466545104980469,-0.04169648885726929
1761369576249311500,5.4073115234375,0.07388973236083984,-0.007553577423095703,-0.039869219064712524
1761369576267923000,5.4259228515625,-0.04655170440673828,-0.000030040740966796875,-0.017803579568862915
1761369576286533000,5.444533203125,-0.07300424575805664,-0.010274887084960938,-0.008514940738677979
1761369576305144600,5.46314453125,-0.11670970916748047,-0.006496429443359375,-0.025530487298965454
1761369576323754800,5.481754638671875,-0.1375732421875,0.009169578552246094,0.01907634735107422
1761369576342366200,5.5003662109375,-0.10358333587646484,-0.01103973388671875,0.11949658393859863
1761369576360976400,5.518976318359375,-0.07417964935302734,-0.017709732055664062,0.09433333575725555
1761369576379587800,5.537587890625,-0.09827661514282227,-0.017690181732177734,-0.03314509987831116
1761369576398198000,5.556197998046875,-0.06462907791137695,0.013875961303710938,-0.04326090216636658
1761369576416809500,5.5748095703125,-0.06354045867919922,0.003898143768310547,0.13106480240821838
1761369576435419600,5.593419677734375,-0.06130838394165039,-0.020673751831054688,0.22056570649147034
1761369576454031400,5.61203125,-0.011018753051757812,0.04369497299194336,0.086504265666008
1761369576472641300,5.630641357421875,0.08010339736938477,0.04694318771362305,-0.013877332210540771
1761369576491253000,5.6492529296875,0.13269376754760742,0.004923343658447266,-0.03063639998435974
1761369576509863000,5.66786279296875,0.024403095245361328,-0.01880025863647461,-0.024164676666259766
1761369576528474600,5.686474609375,-0.03828620910644531,-0.010998249053955078,-0.05453747510910034
1761369576547084500,5.70508447265625,0.014716148376464844,0.009219646453857422,-0.028254210948944092
1761369576565696300,5.7236962890625,0.09409809112548828,-0.0047130584716796875,-0.0627814531326294
1761369576584306400,5.742306396484375,0.06668615341186523,-0.0030813217163085938,0.03596779704093933
1761369576602918000,5.76091796875,0.03845691680908203,0.015031814575195312,0.01229548454284668
1761369576621528000,5.779528076171875,0.09362936019897461,-0.008739948272705078,-0.05744439363479614
1761369576640139500,5.798139404296875,0.17533016204833984,-0.03500223159790039,-0.07245177030563354
1761369576658749700,5.816749755859375,0.09240102767944336,-0.024680137634277344,-0.010428935289382935
1761369576677361200,5.835361083984375,0.07107305526733398,-0.012758255004882812,-0.06961730122566223
1761369576695971300,5.853971435546875,0.06046295166015625,-0.004639148712158203,-0.1855645477771759
1761369576714582800,5.872582763671875,0.06378936767578125,-0.03176259994506836,-0.18139022588729858
1761369576733193000,5.89119287109375,0.021568775177001953,-0.05521392822265625,-0.15806055068969727
1761369576751804700,5.9098046875,-0.11817073822021484,-0.02074432373046875,-0.0031479299068450928
1761369576770414600,5.92841455078125,-0.1393265724182129,0.004691123962402344,0.16718655824661255
1761369576789026300,5.9470263671875,0.00880575180053711,0.031209945678710938,0.2818728983402252
1761369576807636200,5.96563623046875,0.1365985870361328,0.006255149841308594,0.2820948362350464
1761369576826248000,5.984248046875,0.06754446029663086,-0.021553516387939453,0.21112360060214996
1761369576844857900,6.00285791015625,-0.08865833282470703,0.0020580291748046875,0.15278936922550201
1761369576863469600,6.021469482421875,-0.17492437362670898,0.0004048347473144531,0.12796738743782043
1761369576882079500,6.04007958984375,-0.09018325805664062,-0.0030565261840820312,0.07165992259979248
1761369576900691200,6.058691162109375,0.06210041046142578,-0.002246856689453125,-0.02171909809112549
1761369576919301400,6.07730126953125,0.06817054748535156,-0.01980876922607422,0.04187154769897461
1761369576937912800,6.095912841796875,-0.014045238494873047,-0.018552303314208984,-0.026360809803009033
1761369576956523000,6.11452294921875,-0.17247629165649414,0.008410930633544922,-0.12024062871932983
1761369576975134500,6.133134521484375,-0.33521604537963867,0.04546070098876953,-0.1421695053577423
1761369576993744600,6.15174462890625,-0.2881588935852051,0.018512725830078125,0.05872654914855957
1761369577012356000,6.170356201171875,-0.01645803451538086,-0.011937618255615234,0.22624455392360687
1761369577030966300,6.18896630859375,0.2277545928955078,0.02390766143798828,0.2619428038597107
1761369577049577700,6.20757763671875,0.28894662857055664,-0.007967472076416016,0.08392119407653809
1761369577068188000,6.22618798828125,0.2263469696044922,0.0007777214050292969,-0.14138662815093994
1761369577086799400,6.24479931640625,0.22568225860595703,0.02538585662841797,-0.2868029773235321
1761369577105409500,6.263409423828125,0.26167869567871094,0.008330821990966797,-0.3526962399482727
1761369577124021000,6.28202099609375,0.23349666595458984,-0.02823352813720703,-0.22436320781707764
1761369577142631200,6.300631103515625,0.0926060676574707,0.0072479248046875,-0.05382600426673889
1761369577161243000,6.319242919921875,-0.1213531494140625,0.0030164718627929688,0.08143496513366699
1761369577179852800,6.337852783203125,-0.1623096466064453,-0.028765201568603516,-0.06792736053466797
1761369577198464500,6.356464599609375,-0.09395360946655273,0.0033659934997558594,-0.08938971161842346
1761369577217074400,6.375074462890625,-0.14317893981933594,-0.0298919677734375,0.08752623200416565
1761369577235686100,6.39368603515625,-0.306734561920166,-0.029497623443603516,0.2630477845668793
1761369577254296000,6.412296142578125,-0.400454044342041,-0.004610538482666016,0.24974139034748077
1761369577272907800,6.43090771484375,-0.3975558280944824,-0.009573936462402344,0.39418625831604004
1761369577291518000,6.44951806640625,-0.25380373001098633,-0.025707721710205078,0.47938308119773865
1761369577310129400,6.46812939453125,-0.16567659378051758,-0.002766132354736328,0.4292721748352051
1761369577328739600,6.486739501953125,-0.11768007278442383,0.0367741584777832,0.28668147325515747
1761369577347351000,6.50535107421875,-0.05162668228149414,0.033878326416015625,0.09162595868110657
1761369577365961200,6.523961181640625,0.0465083122253418,-0.004063606262207031,-0.04265624284744263
1761369577384572700,6.54257275390625,0.22969293594360352,0.0040149688720703125,-0.25512224435806274
1761369577403182800,6.561182861328125,0.5199990272521973,0.007722377777099609,-0.34675246477127075
1761369577421794300,6.579794189453125,0.5928564071655273,-0.003386974334716797,-0.21386706829071045
1761369577440404500,6.598404541015625,0.4502887725830078,0.010935783386230469,-0.22881102561950684
1761369577459016000,6.617015869140625,0.2880086898803711,-0.010933399200439453,-0.3114178776741028
1761369577477626000,6.635626220703125,0.17239713668823242,0.00238800048828125,-0.2956344485282898
1761369577496237600,6.654237548828125,0.032212257385253906,-0.0055637359619140625,-0.28882914781570435
1761369577514847700,6.67284765625,-0.04030799865722656,-0.006714344024658203,-0.1793137788772583
1761369577533459500,6.69145947265625,-0.06018686294555664,0.021338462829589844,0.013631999492645264
1761369577552069400,6.7100693359375,-0.021463394165039062,0.01656627655029297,0.149857759475708
1761369577570681000,6.72868115234375,0.023303508758544922,-0.01644754409790039,0.2796894311904907
1761369577589291000,6.747291015625,0.018405914306640625,-0.023673534393310547,0.2922104299068451
1761369577607902700,6.76590283203125,-0.054166316986083984,-0.011423110961914062,0.215140700340271
1761369577626512600,6.7845126953125,-0.1939544677734375,-0.017992496490478516,-0.001844257116317749
1761369577645124400,6.803124267578125,-0.24838495254516602,-0.015147686004638672,-0.06185314059257507
1761369577663734300,6.821734375,-0.2398681640625,0.013772010803222656,-0.04045778512954712
1761369577682346000,6.840345947265625,-0.1692032814025879,0.007594108581542969,-0.118277907371521
1761369577700956000,6.858955810546875,-0.08121681213378906,0.014887332916259766,-0.031479448080062866
1761369577719567600,6.877567626953125,-0.05059194564819336,-0.005219936370849609,0.21106871962547302
1761369577738177800,6.896177734375,-0.07154989242553711,-0.04121685028076172,0.1286645233631134
1761369577756789200,6.914789306640625,-0.30193328857421875,0.006030559539794922,0.004404991865158081
1761369577775399400,6.9333994140625,-0.4678177833557129,0.05811643600463867,-0.10929027199745178
1761369577794011000,6.952010986328125,-0.11047506332397461,-0.03625154495239258,0.09693282842636108
1761369577812621000,6.97062109375,0.3413081169128418,-0.029369354248046875,0.49803704023361206
1761369577831232500,6.989232421875,0.4778456687927246,0.006613731384277344,0.23956838250160217
1761369577849842700,7.0078427734375,0.2923145294189453,-0.021514892578125,-0.25327250361442566
1761369577868454100,7.0264541015625,0.21730947494506836,-0.011231422424316406,-0.47045689821243286
1761369577887064300,7.045064208984375,0.27402496337890625,0.007030487060546875,-0.43384137749671936
1761369577905675800,7.06367578125,0.31038808822631836,-0.00039386749267578125,-0.10916018486022949
1761369577924286000,7.082285888671875,0.24264907836914062,0.026277542114257812,0.034685760736465454
1761369577942897400,7.1008974609375,0.09518623352050781,0.010134696960449219,-0.08405843377113342
1761369577961507600,7.119507568359375,0.02998495101928711,-0.0037174224853515625,-0.08754262328147888
1761369577980119000,7.138119140625,-0.07056140899658203,-0.012461662292480469,0.056176334619522095
1761369577998729200,7.156729248046875,-0.15729427337646484,-0.03771686553955078,0.14132770895957947
1761369578017340700,7.175340576171875,-0.18317508697509766,0.0572514533996582,0.11628460884094238
1761369578035950800,7.193950927734375,-0.0367121696472168,0.01830005645751953,-0.07037630677223206
1761369578054562600,7.2125625,0.06852912902832031,0.016841411590576172,-0.013166189193725586
1761369578073172500,7.23117236328125,0.11643028259277344,0.0009427070617675781,0.0313359797000885
1761369578091784200,7.2497841796875,0.009566307067871094,0.004764556884765625,0.050944000482559204
1761369578110394000,7.26839404296875,-0.1739802360534668,-0.005960941314697266,-0.09964072704315186
1761369578129005800,7.287005859375,-0.21470212936401367,0.0020647048950195312,-0.08469164371490479
1761369578147615700,7.30561572265625,-0.12124490737915039,0.010848045349121094,0.05001610517501831
1761369578166227500,7.3242275390625,-0.022121429443359375,0.003364086151123047,0.10526469349861145
1761369578184837400,7.34283740234375,-0.02437591552734375,-0.03900861740112305,0.05874061584472656
1761369578203449000,7.361448974609375,-0.14478778839111328,-0.030819416046142578,0.026640266180038452
1761369578222059000,7.38005908203125,-0.13094377517700195,0.010968685150146484,0.12873044610023499
1761369578240670700,7.398670654296875,-0.08041620254516602,0.026265621185302734,0.16115471720695496
1761369578259280600,7.41728076171875,-0.0680093765258789,-0.022805213928222656,-0.021099776029586792
1761369578277892400,7.435892333984375,-0.15645360946655273,-0.013336658477783203,-0.06154707074165344
1761369578296502300,7.454502197265625,-0.1493086814880371,-0.0698099136352539,0.030219823122024536
1761369578315114000,7.473114013671875,-0.1310901641845703,0.013994693756103516,0.10164093971252441
1761369578333724000,7.491723876953125,0.0454096794128418,0.004029273986816406,0.14125820994377136
1761369578352335600,7.510335693359375,0.18372488021850586,0.014764785766601562,0.06574538350105286
1761369578370945800,7.52894580078125,0.27010345458984375,-0.024309158325195312,-0.1768224835395813
1761369578389557200,7.54755712890625,0.36835384368896484,0.005133628845214844,-0.19401514530181885
1761369578408167400,7.56616748046875,0.3218679428100586,-0.018010616302490234,-0.10542318224906921
1761369578426779000,7.58477880859375,0.1587057113647461,0.0070037841796875,-0.11371201276779175
1761369578445389000,7.60338916015625,0.041262149810791016,0.04694080352783203,-0.152890145778656
1761369578464000500,7.62200048828125,0.000046253204345703125,-0.012797355651855469,-0.08046391606330872
1761369578482610700,7.640610595703125,-0.049259185791015625,-0.02100849151611328,0.021049976348876953
1761369578501222100,7.65922216796875,-0.07897329330444336,0.006839752197265625,0.11968693137168884
1761369578519832300,7.677832275390625,-0.13727664947509766,0.026227474212646484,0.18390126526355743
1761369578538443800,7.69644384765625,-0.12581157684326172,0.05773448944091797,0.14292004704475403
1761369578557054000,7.715053955078125,0.024876117706298828,0.03261709213256836,0.19849956035614014
1761369578575665400,7.73366552734375,0.08808040618896484,-0.02669525146484375,0.14059579372406006
1761369578594275600,7.752275634765625,0.007576465606689453,-0.019555091857910156,0.02717214822769165
1761369578612887000,7.770886962890625,-0.038251399993896484,-0.006490230560302734,-0.057556748390197754
1761369578631497200,7.789497314453125,-0.02283000946044922,-0.002425670623779297,-0.07939136028289795
1761369578650108700,7.808108642578125,-0.026786327362060547,-0.02183055877685547,-0.08004620671272278
1761369578668718800,7.82671875,-0.00980520248413086,-0.01903390884399414,0.020576119422912598
1761369578687330300,7.845330322265625,0.08443832397460938,-0.026696205139160156,0.09982696175575256
1761369578705940500,7.8639404296875,0.022303104400634766,-0.01012420654296875,0.04357719421386719
1761369578724552000,7.882552001953125,-0.09914541244506836,0.0047855377197265625,-0.07096630334854126
1761369578743162000,7.901162109375,-0.16532325744628906,-0.01041269302368164,-0.08125731348991394
1761369578761773600,7.919773681640625,-0.17870712280273438,-0.018817901611328125,-0.0775594711303711
1761369578780383700,7.9383837890625,-0.16916513442993164,-0.0023660659790039062,-0.039200782775878906
1761369578798995200,7.9569951171875,-0.2616415023803711,0.009168148040771484,-0.0029184818267822266
1761369578817605400,7.97560546875,-0.3022933006286621,0.04120445251464844,0.06466570496559143
1761369578836216800,7.994216796875,-0.20570755004882812,0.08249664306640625,-0.0963783860206604
1761369578854827000,8.012826904296874,0.0899043083190918,-0.037001609802246094,0.2245989441871643
1761369578873438500,8.0314384765625,0.3475494384765625,0.04291248321533203,0.36736494302749634
1761369578892048600,8.050048583984376,0.548527717590332,-0.021304607391357422,0.4550689458847046
1761369578910660400,8.068660400390625,0.45844507217407227,0.00600433349609375,0.10634331405162811
1761369578929270300,8.087270263671876,0.3469405174255371,0.00720977783203125,-0.17255085706710815
1761369578947881700,8.1058818359375,0.21486186981201172,0.007749080657958984,-0.1635875701904297
1761369578966492000,8.124491943359375,0.1075582504272461,0.017617225646972656,-0.11371660232543945
1761369578985103400,8.143103271484375,-0.004764080047607422,-0.015842914581298828,-0.13850653171539307
1761369579003713500,8.161713623046875,-0.1333174705505371,-0.023406505584716797,-0.1658831536769867
1761369579022325200,8.1803251953125,-0.21808242797851562,-0.022307395935058594,-0.050626158714294434
1761369579040935200,8.19893505859375,-0.24264287948608398,-0.019785404205322266,0.09550987184047699
1761369579059546600,8.217546630859376,-0.28188085556030273,-0.021765708923339844,0.08639910817146301
1761369579078156800,8.23615673828125,-0.3264937400817871,-0.04123735427856445,-0.0033086836338043213
1761369579096768500,8.2547685546875,-0.32270145416259766,-0.02860879898071289,-0.044093549251556396
1761369579115378400,8.27337841796875,-0.1682448387145996,0.018420696258544922,0.07776321470737457
1761369579133990000,8.291989990234375,0.045746803283691406,0.029507160186767578,0.1548115462064743
1761369579152600000,8.31060009765625,0.14952707290649414,-0.0066318511962890625,0.12870678305625916
1761369579171211500,8.32921142578125,0.15419912338256836,-0.004414558410644531,0.0021723955869674683
1761369579189821700,8.34782177734375,0.18006563186645508,0.008349418640136719,-0.04764747619628906
1761369579208433400,8.366433349609375,0.22169923782348633,0.037932395935058594,0.0067784786224365234
1761369579227043300,8.385043212890626,0.21120500564575195,0.04206085205078125,0.06331850588321686
1761369579245655000,8.403655029296875,0.1448230743408203,-0.004076480865478516,-0.087368905544281
1761369579264265000,8.422264892578125,0.05419349670410156,-0.022404193878173828,-0.114927738904953
1761369579282876400,8.44087646484375,-0.023949623107910156,0.006868839263916016,-0.025112122297286987
1761369579301486600,8.459486572265625,-0.08449745178222656,-0.003395557403564453,0.07731777429580688
1761369579320098300,8.478098388671874,-0.11607599258422852,-0.0021691322326660156,0.03769208490848541
1761369579338708200,8.496708251953125,-0.16519594192504883,-0.0007028579711914062,-0.018457651138305664
1761369579357319700,8.515319580078126,-0.15213918685913086,-0.007244110107421875,-0.08717218041419983
1761369579375929900,8.533929931640625,-0.055191993713378906,0.0005693435668945312,-0.041150063276290894
1761369579394541300,8.552541259765626,0.08118581771850586,0.009276390075683594,0.06319165229797363
1761369579413151500,8.5711513671875,0.10515689849853516,0.022356033325195312,0.02508452534675598
1761369579431763000,8.589762939453125,0.05515289306640625,0.014380931854248047,-0.048691123723983765
1761369579450373000,8.608373046875,0.005057334899902344,-0.000957489013671875,0.005951225757598877
1761369579468984800,8.62698486328125,0.010532855987548828,0.004963874816894531,0.04638233780860901
1761369579487594800,8.6455947265625,-0.03334665298461914,0.0037865638732910156,0.11440169811248779
1761369579506206200,8.664206298828125,-0.08146047592163086,0.011046409606933594,0.10685154795646667
1761369579524816400,8.68281640625,-0.099212646484375,0.006195545196533203,0.09084407985210419
1761369579543427800,8.701427734375,-0.08078718185424805,0.03180980682373047,0.03143998980522156
1761369579562038000,8.7200380859375,0.011389732360839844,0.04994964599609375,0.10561113059520721
1761369579580649500,8.7386494140625,0.12311601638793945,0.018556594848632812,0.07781463861465454
1761369579599259600,8.757259765625,0.09295129776000977,0.0021538734436035156,0.03722405433654785
1761369579617871000,8.77587109375,0.02297496795654297,-0.0010190010070800781,0.006938517093658447
1761369579636481300,8.794481201171875,-0.02391338348388672,0.017264842987060547,-0.021503329277038574
1761369579655092700,8.8130927734375,-0.02525043487548828,-0.004328727722167969,-0.09496811032295227
1761369579673703000,8.831702880859375,-0.017526626586914062,-0.0199127197265625,-0.08917343616485596
1761369579692314400,8.850314453125,0.02495718002319336,-0.007533073425292969,-0.07079878449440002
1761369579710924500,8.868924560546875,0.03408670425415039,0.008257865905761719,0.004208475351333618
1761369579729536000,8.887535888671875,0.07420921325683594,0.017744064331054688,0.09024973213672638
1761369579748146200,8.906146240234374,0.06987667083740234,0.013520240783691406,0.11416974663734436
1761369579766757600,8.924757568359375,0.007839202880859375,-0.005065441131591797,0.03423735499382019
1761369579785367800,8.943367919921876,-0.03154945373535156,-0.017854690551757812,-0.011054247617721558
1761369579803979300,8.961979248046875,-0.032656192779541016,-0.003958225250244141,-0.03169110417366028
1761369579822589400,8.98058935546875,-0.00366973876953125,-0.004172801971435547,-0.0120144784450531
1761369579841201000,8.999200927734375,-0.0081787109375,-0.014277935028076172,0.002773672342300415
1761369579859811000,9.01781103515625,-0.10177373886108398,-0.020737648010253906,-0.0543290376663208
1761369579878422500,9.036422607421875,-0.12370109558105469,0.012168407440185547,-0.07918834686279297
1761369579897032700,9.05503271484375,-0.03609752655029297,0.02659749984741211,0.052734941244125366
1761369579915644200,9.07364404296875,0.039705753326416016,-0.011194705963134766,0.06157234311103821
1761369579934254300,9.09225439453125,0.07687520980834961,-0.028568744659423828,-0.02029097080230713
1761369579952865800,9.11086572265625,0.025146484375,0.004418373107910156,-0.06503519415855408
1761369579971476000,9.12947607421875,-0.06748819351196289,0.018590927124023438,-0.032595813274383545
1761369579990087400,9.14808740234375,-0.0703425407409668,0.016550540924072266,-0.007553547620773315
1761369580008697300,9.166697265625,0.1653757095336914,-0.05832958221435547,0.051839590072631836
1761369580027309000,9.18530908203125,0.2118387222290039,-0.041640281677246094,0.09563088417053223
1761369580045919000,9.2039189453125,0.1233057975769043,-0.028052330017089844,0.00917881727218628
1761369580064530700,9.22253076171875,-0.04929685592651367,-0.0348515510559082,-0.06032001972198486
1761369580083140600,9.241140625,-0.18906784057617188,-0.02288818359375,-0.04541391134262085
1761369580101752300,9.25975244140625,-0.16696786880493164,-0.023041248321533203,-0.043583035469055176
1761369580120362200,9.2783623046875,-0.07241153717041016,-0.012366294860839844,-0.0198671817779541
1761369580138974000,9.296973876953125,-0.018444538116455078,0.02851724624633789,0.06143316626548767
1761369580157584000,9.315583984375,0.029683589935302734,0.015987396240234375,0.13664518296718597
1761369580176195600,9.334195556640625,0.03562211990356445,-0.009342670440673828,0.07776317000389099
1761369580194805500,9.352805419921875,-0.0071239471435546875,0.0005130767822265625,-0.027233600616455078
1761369580213417200,9.371417236328124,-0.016232013702392578,0.0456700325012207,-0.04414430260658264
1761369580232027100,9.390027099609375,0.03525400161743164,0.04063224792480469,-0.004646241664886475
1761369580250638600,9.408638671875,0.1067667007446289,0.03268289566040039,0.10281570255756378
1761369580269248800,9.427248779296875,0.09075927734375,-0.00010728836059570312,0.14460311830043793
1761369580287860200,9.445860107421876,0.0767831802368164,0.022212505340576172,-0.009872645139694214
1761369580306470400,9.464470458984374,0.03870439529418945,0.009664058685302734,0.026416391134262085
1761369580325081900,9.483081787109375,0.05695962905883789,-0.008855819702148438,0.13858278095722198
1761369580343692000,9.501692138671874,0.022108078002929688,-0.016548633575439453,0.06949010491371155
1761369580362303500,9.520303466796875,-0.0418238639831543,-0.009770393371582031,0.000799030065536499
1761369580380913700,9.53891357421875,-0.09811258316040039,-0.004250049591064453,-0.04377478361129761
1761369580399525000,9.557525146484375,-0.1261124610900879,-0.008166790008544922,-0.0904308557510376
1761369580418135300,9.57613525390625,-0.12721681594848633,0.002342700958251953,-0.13347002863883972
1761369580436746800,9.594746826171875,-0.03095245361328125,-0.0004391670227050781,-0.04249575734138489
1761369580455357000,9.61335693359375,0.0791316032409668,-0.01841259002685547,0.1039809137582779
1761369580473968400,9.631968505859374,0.05613422393798828,-0.03290081024169922,0.02149832248687744
1761369580492578600,9.65057861328125,-0.017383098602294922,0.039958953857421875,-0.07840278744697571
1761369580511190000,9.66918994140625,-0.00261688232421875,0.04787588119506836,-0.05869069695472717
1761369580529800200,9.68780029296875,0.06093740463256836,0.017587661743164062,0.054457664489746094
1761369580548411600,9.70641162109375,0.10781335830688477,-0.016349315643310547,0.03091028332710266
1761369580567021600,9.725021484375,0.045238494873046875,-0.025954723358154297,-0.06638038158416748
1761369580585633300,9.74363330078125,-0.11339616775512695,-0.01132822036743164,-0.16096574068069458
1761369580604243200,9.7622431640625,-0.18723821640014648,-0.02458667755126953,-0.17213594913482666
1761369580622855000,9.78085498046875,-0.12107419967651367,0.010243892669677734,-0.0079592764377594
1761369580641464800,9.79946484375,0.042851924896240234,0.02292013168334961,0.1996864229440689
1761369580660076500,9.81807666015625,0.10211467742919922,-0.008601188659667969,0.20482811331748962
1761369580678686500,9.8366865234375,0.03891754150390625,-0.016178131103515625,0.08782938122749329
1761369580697298000,9.8552978515625,-0.024907588958740234,0.02126169204711914,0.04900604486465454
1761369580715908000,9.873908203125,-0.06661176681518555,0.011813163757324219,0.10673326253890991
1761369580734519600,9.89251953125,-0.08750152587890625,-0.009045124053955078,0.0005017220973968506
1761369580753129700,9.911129638671875,-0.08105278015136719,-0.01317739486694336,-0.12419447302818298
1761369580771741200,9.9297412109375,0.00693511962890625,0.01717090606689453,-0.04720917344093323
1761369580790351400,9.948351318359375,0.07230472564697266,0.0072765350341796875,0.09176942706108093
1761369580808962800,9.966962890625,0.04562520980834961,0.010755538940429688,-0.00859186053276062
1761369580827573000,9.985572998046875,0.010160446166992188,0.030651569366455078,-0.07549089193344116
1761369580846184400,10.004184326171876,-0.06294727325439453,0.054245948791503906,0.0722898542881012
1761369580864794600,10.022794677734375,0.022352218627929688,0.0023560523986816406,0.07219234108924866
1761369580883406000,10.041406005859375,0.061171531677246094,0.030832290649414062,0.1467694491147995
1761369580902016000,10.06001611328125,0.07464408874511719,0.007735252380371094,0.12313908338546753
1761369580920627700,10.078627685546875,0.070281982421875,-0.0029931068420410156,0.013278603553771973
1761369580939237600,10.097237548828126,-0.0028562545776367188,0.006571769714355469,-0.08690553903579712
1761369580957849300,10.115849365234375,-0.045662879943847656,0.011557579040527344,-0.09861445426940918
1761369580976459300,10.134459228515626,-0.03372621536254883,0.016611576080322266,-0.06489655375480652
1761369580995071000,10.153071044921875,-0.05294036865234375,0.012805461883544922,-0.05867350101470947
1761369581013681000,10.171680908203125,-0.07433271408081055,-0.006571769714355469,-0.08479666709899902
1761369581032292600,10.190292724609375,-0.07065200805664062,-0.02816915512084961,-0.10953110456466675
1761369581050902500,10.208902587890625,-0.011723041534423828,0.003055095672607422,-0.046580612659454346
1761369581069514200,10.22751416015625,0.0642538070678711,0.016116619110107422,0.0694379210472107
1761369581088124200,10.246124267578125,0.10680294036865234,-0.04799318313598633,0.15081769227981567
1761369581106735600,10.264735595703126,0.04132509231567383,-0.005428791046142578,0.0351545512676239
1761369581125345800,10.283345703125,0.024822711944580078,0.018925189971923828,-0.05276182293891907
1761369581143957200,10.301957275390626,0.06298398971557617,0.018444538116455078,-0.061970055103302
1761369581162567400,10.3205673828125,0.12045621871948242,-0.019617557525634766,-0.029798567295074463
1761369581181179000,10.339178955078125,0.05888175964355469,-0.021374225616455078,0.11408720910549164
1761369581199789000,10.3577890625,-0.05210447311401367,-0.029790401458740234,0.11021445691585541
1761369581218400500,10.376400390625,-0.10456562042236328,-0.031047344207763672,0.0002771317958831787
1761369581237010700,10.3950107421875,-0.11510515213012695,-0.000012874603271484375,-0.07742074131965637
1761369581255622100,10.4136220703125,-0.10396432876586914,0.020527362823486328,0.008779674768447876
1761369581274232000,10.432232177734376,-0.07147216796875,-0.004470348358154297,0.12640829384326935
1761369581292843800,10.45084375,-0.10014581680297852,-0.01906585693359375,0.09563657641410828
1761369581311453700,10.46945361328125,-0.0095062255859375,0.003310680389404297,0.13818129897117615
1761369581330065400,10.4880654296875,0.09240913391113281,-0.006450653076171875,0.19659875333309174
1761369581348675300,10.50667529296875,0.08928918838500977,-0.009801387786865234,0.07006910443305969
1761369581367287000,10.525287109375,0.021084308624267578,0.0075130462646484375,0.009971439838409424
1761369581385897000,10.54389697265625,-0.017072200775146484,-0.008054733276367188,-0.0344010591506958
1761369581404508400,10.56250830078125,-0.03808784484863281,-0.04651498794555664,-0.06256437301635742
1761369581423118600,10.58111865234375,-0.0733041763305664,0.013719558715820312,0.0958949476480484
1761369581441730000,10.59972998046875,0.010943412780761719,0.019435882568359375,0.15878459811210632
1761369581460340200,10.61834033203125,0.06532144546508789,-0.03263139724731445,0.014699339866638184
1761369581478951700,10.63695166015625,-0.021679401397705078,0.002955913543701172,-0.01838865876197815
1761369581497561900,10.655561767578124,-0.04368448257446289,0.010853290557861328,0.009193211793899536
1761369581516173300,10.67417333984375,0.011504650115966797,0.012050151824951172,-0.000006943941116333008
1761369581534783200,10.692783203125,0.1291975975036621,-0.007495403289794922,0.021411627531051636
1761369581553395000,10.71139501953125,0.09770917892456055,0.0038919448852539062,0.0373254120349884
1761369581572004900,10.7300048828125,0.0072269439697265625,0.007137775421142578,0.049454569816589355
1761369581590616600,10.748616455078125,-0.047652244567871094,-0.0009770393371582031,-0.07672470808029175
1761369581609226500,10.7672265625,-0.06499814987182617,0.0374751091003418,-0.20046597719192505
1761369581627838200,10.785838134765624,0.02336883544921875,-0.009880542755126953,-0.12120777368545532
1761369581646448000,10.8044482421875,0.09153985977172852,-0.0015511512756347656,-0.048900336027145386
1761369581665059600,10.8230595703125,0.1055154800415039,-0.0073375701904296875,-0.003884434700012207
1761369581683669800,10.841669677734375,0.06202363967895508,0.01558828353881836,-0.037367284297943115
