time,seconds_elapsed,z,y,x
1761371050773438700,0.114438720703125,0.7752415537834167,1.2065759897232056,-0.890157163143158
1761371050782952000,0.123951904296875,0.7544727325439453,1.55170476436615,-0.7502731680870056
1761371050801975600,0.1429755859375,0.5570927262306213,2.154611110687256,-0.5505260825157166
1761371050811486000,0.15248583984375,0.4172086715698242,2.326259136199951,-0.47050508856773376
1761371050820995300,0.161995361328125,0.2773246467113495,2.3824570178985596,-0.3965925872325897
1761371050830504000,0.17150390625,0.15271180868148804,2.3183181285858154,-0.33001023530960083
1761371050840011500,0.181011474609375,0.053143709897994995,2.1882076263427734,-0.2707580327987671
1761371050849518600,0.1905185546875,0.004886778071522713,2.0574862957000732,-0.2157817929983139
1761371050859025000,0.20002490234375,0.005497625097632408,1.977465271949768,-0.17241163551807404
1761371050868530700,0.20953076171875,0.04031591862440109,1.9383710622787476,-0.1363716572523117
1761371050878035500,0.219035400390625,0.09529217332601547,1.9017202854156494,-0.10705098509788513
1761371050887540000,0.2285400390625,0.15271180868148804,1.8589608669281006,-0.10521844029426575
1761371050897043700,0.238043701171875,0.20035789906978607,1.848576545715332,-0.15347537398338318
1761371050906547000,0.247546875,0.23212195932865143,1.9004985094070435,-0.2658712565898895
1761371050916049400,0.25704931640625,0.24494975805282593,2.022057056427002,-0.44484952092170715
1761371050925551600,0.266551513671875,0.25533416867256165,2.201646327972412,-0.6720846891403198
1761371050935053300,0.27605322265625,0.27976804971694946,2.3592448234558105,-0.9542961120605469
1761371050944554500,0.285554443359375,0.3414636254310608,2.4221620559692383,-1.2566654682159424
1761371050954055400,0.295055419921875,0.4355340898036957,2.406280040740967,-1.5022261142730713
1761371050963555800,0.304555908203125,0.5357130169868469,2.357412338256836,-1.6476078033447266
1761371050982555400,0.323555419921875,0.6665107011795044,2.2205824851989746,-1.6164546012878418
1761371051001553700,0.3425537109375,0.7275954484939575,1.9059962034225464,-1.2792668342590332
1761371051020550700,0.361550537109375,0.9658258557319641,1.3476817607879639,-0.6384881138801575
1761371051039487500,0.380487548828125,1.223603367805481,0.5877113938331604,0.15202461183071136
1761371051058098700,0.3990986328125,1.1845091581344604,-0.08727480471134186,0.7500441074371338
1761371051076711700,0.417711669921875,0.7825716733932495,-0.7396596670150757,0.907642662525177
1761371051095323100,0.4363232421875,0.13560809195041656,-1.5985872745513916,0.5728983879089355
1761371051113936100,0.45493603515625,-0.5118899941444397,-2.455605983734131,0.043293800204992294
1761371051132547300,0.47354736328125,-0.9565867781639099,-2.5734994411468506,-0.388651579618454
1761371051151160300,0.492160400390625,-1.2229162454605103,-1.8856854438781738,-0.6525375843048096
1761371051169771800,0.510771728515625,-1.3255385160446167,-0.911918580532074,-0.747218906879425
1761371051188384800,0.529384765625,-1.2174185514450073,-0.23571068048477173,-0.835180938243866
1761371051206996000,0.547995849609375,-0.9364288449287415,-1.4690113067626953,-1.1216683387756348
1761371051225609000,0.56660888671875,-0.6224533319473267,-3.150750160217285,-1.3354648351669312
1761371051244220400,0.585220458984375,0.0024433890357613564,-2.8098974227905273,-0.7111788988113403
1761371051262833400,0.60383349609375,1.1124292612075806,-1.2197855710983276,0.666968822479248
1761371051281444600,0.622444580078125,1.7819178104400635,-0.250981867313385,1.6064519882202148
1761371051300057600,0.6410576171875,1.806962490081787,-0.4372902810573578,1.9735711812973022
1761371051318669000,0.6596689453125,1.1716814041137695,-1.2020710706710815,1.9479155540466309
1761371051337282000,0.678281982421875,0.46546560525894165,-1.8294875621795654,1.6571522951126099
1761371051355893200,0.696893310546875,0.23334364593029022,-2.2583022117614746,1.2527713775634766
1761371051374506200,0.71550634765625,0.30603447556495667,-2.444610834121704,0.7347729206085205
1761371051393117700,0.73411767578125,0.32252734899520874,-2.4751532077789307,0.17096087336540222
1761371051411730700,0.752730712890625,0.13621893525123596,-2.4366698265075684,-0.3489464819431305
1761371051430342000,0.771341796875,-0.14110571146011353,-2.1306352615356445,-0.80280601978302
1761371051448955000,0.789954833984375,-0.4563029110431671,-1.572320818901062,-1.3806675672531128
1761371051467566300,0.80856640625,-0.577861487865448,-1.0841774940490723,-1.9023311138153076
1761371051486179300,0.827179443359375,-0.40071579813957214,-0.782418966293335,-1.9762436151504517
1761371051504790500,0.84579052734375,-0.1820324808359146,-0.4733302593231201,-1.6201196908950806
1761371051523403500,0.864403564453125,-0.22051586210727692,-0.10498937219381332,-1.0135482549667358
1761371051542015000,0.883014892578125,-0.2987042963504791,-0.36582115292549133,-0.3855973184108734
1761371051560628000,0.9016279296875,-0.28037887811660767,-0.9131402969360352,0.27175068855285645
1761371051579239400,0.920239501953125,-0.1704263836145401,-1.6761648654937744,1.0169843435287476
1761371051597852400,0.938852294921875,0.17775654792785645,-2.199050188064575,1.8636186122894287
1761371051616463600,0.957463623046875,0.49417543411254883,-2.0933735370635986,2.541048288345337
1761371051635076600,0.97607666015625,0.5619794726371765,-1.3847143650054932,2.9784913063049316
1761371051653688000,0.99468798828125,0.555260181427002,-0.5918346643447876,3.225273609161377
1761371051672301000,1.013301025390625,0.5913001298904419,-0.40430453419685364,3.2680327892303467
1761371051690912300,1.031912353515625,0.577861487865448,-0.46600010991096497,3.1550261974334717
1761371051709525200,1.050525146484375,0.41537612676620483,-0.47882789373397827,2.9406187534332275
1761371051728136700,1.06913671875,0.17653486132621765,-0.2931303381919861,2.768359661102295
1761371051746749700,1.087749755859375,0.09407047927379608,-0.2540360987186432,2.7097184658050537
1761371051765361000,1.10636083984375,0.1692046970129013,-0.648643434047699,2.613128185272217
1761371051783974000,1.124973876953125,0.09529217332601547,-1.342565894126892,2.3290841579437256
1761371051802585300,1.14358544921875,-0.44042086601257324,-1.596754789352417,1.7701590061187744
1761371051821198300,1.1621982421875,-0.767224133014679,-1.3431767225265503,1.1727503538131714
1761371051839809500,1.1808095703125,-0.291374146938324,-0.5356366634368896,0.6975111961364746
1761371051858422500,1.199422607421875,0.7080483436584473,0.13385190069675446,-0.23410721123218536
1761371051877034000,1.218033935546875,1.3763152360916138,-0.663303792476654,-1.815590739250183
1761371051895647000,1.23664697265625,1.0892170667648315,-1.6492875814437866,-3.3562238216400146
1761371051914258200,1.255258056640625,0.5125008225440979,-1.7897825241088867,-4.262110233306885
1761371051932871200,1.27387109375,0.24250635504722595,-0.8471688032150269,-4.723299980163574
1761371051951482600,1.292482666015625,0.27121618390083313,0.27984440326690674,-4.800266742706299
1761371051970095600,1.311095703125,0.5467082858085632,0.5461738109588623,-4.407492160797119
1761371051988707000,1.32970703125,0.4312581717967987,0.3671955466270447,-3.593843460083008
1761371052007320000,1.348320068359375,0.0525328628718853,-0.09704835712909698,-2.6481754779815674
1761371052025931300,1.36693115234375,-0.21807247400283813,-0.4531722962856293,-1.943868637084961
1761371052044544300,1.385544189453125,-0.3671191930770874,-0.5124244689941406,-1.6897562742233276
1761371052063155700,1.40415576171875,-0.38727715611457825,-0.19111883640289307,-1.6469969749450684
1761371052081768700,1.422768798828125,-0.30603447556495667,0.34215080738067627,-1.3861651420593262
1761371052100380000,1.4413798828125,-0.28037887811660767,0.7312605381011963,-0.8846595287322998
1761371052118993000,1.459992919921875,-0.3658975064754486,0.9456679224967957,-0.3208475112915039
1761371052137604400,1.478604248046875,-0.4471401870250702,0.8210550546646118,0.14164020121097565
1761371052156217300,1.49721728515625,-0.45080527663230896,0.31649523973464966,0.5063160061836243
1761371052174828500,1.51582861328125,-0.2089097648859024,0.17783290147781372,0.8373952507972717
1761371052193441500,1.534441650390625,0.21501824259757996,0.4142307937145233,1.2521605491638184
1761371052212053000,1.553052978515625,0.499673068523407,0.6671215891838074,1.8587318658828735
1761371052230666000,1.571666015625,0.34818294644355774,0.46126604080200195,2.5373830795288086
1761371052249277200,1.590277099609375,-0.11178504675626755,-0.13003410398960114,3.2796390056610107
1761371052267890400,1.608890380859375,-0.5790832042694092,-0.8160156011581421,3.8465051651000977
1761371052286501600,1.627501708984375,-0.7061394453048706,-0.7170583009719849,3.7909181118011475
1761371052305114600,1.646114501953125,-0.6444438695907593,0.008017370477318764,3.0304131507873535
1761371052323726000,1.66472607421875,-0.7941014170646667,0.6127561330795288,1.6650933027267456
1761371052342339000,1.683339111328125,-1.1410627365112305,0.9682692885398865,0.4482855200767517
1761371052360950300,1.7019501953125,-1.3456965684890747,0.9847621321678162,-0.5865660905838013
1761371052379563300,1.720563232421875,-0.9523108601570129,0.3879643678665161,-1.5443745851516724
1761371052398174700,1.7391748046875,-0.2987042963504791,0.4985277056694031,-2.3409194946289062
1761371052416787700,1.75778759765625,0.2761029601097107,1.04401433467865,-2.673907518386841
1761371052435399000,1.77639892578125,0.37261682748794556,1.8003195524215698,-2.6983413696289062
1761371052454012000,1.795011962890625,0.13560809195041656,2.476527452468872,-2.766756296157837
1761371052472623400,1.813623291015625,-0.028098974376916885,2.1167385578155518,-2.7630913257598877
1761371052491236400,1.832236328125,0.14171656966209412,1.039738416671753,-2.5205085277557373
1761371052509847800,1.850847900390625,0.3549022674560547,-0.2925194799900055,-1.8045954704284668
1761371052528460800,1.869460693359375,0.418430358171463,-1.5827052593231201,-0.21822518110275269
1761371052547072000,1.888072021484375,0.4068242609500885,-1.946770191192627,1.4977210760116577
1761371052565685000,1.90668505859375,0.3695625960826874,-1.129991054534912,2.4872937202453613
1761371052584296400,1.92529638671875,0.45202696323394775,-0.09032903611660004,2.930845260620117
1761371052602909400,1.943909423828125,0.5577035546302795,0.4527141749858856,3.1513609886169434
1761371052621520600,1.962520751953125,0.418430358171463,0.13812783360481262,3.2277169227600098
1761371052640133600,1.981133544921875,0.1954711228609085,-0.40063944458961487,3.158691167831421
1761371052658745000,1.9997451171875,0.04825693368911743,-0.6559736132621765,2.8361637592315674
1761371052677358000,2.018358154296875,0.06780404597520828,-0.359712690114975,2.351074695587158
1761371052695969300,2.03696923828125,0.10628741979598999,0.22914408147335052,1.9430288076400757
1761371052714582300,2.055582275390625,0.03237490355968475,0.6206972002983093,1.698078989982605
1761371052733193700,2.07419384765625,-0.15210096538066864,0.5602232813835144,1.674866795539856
1761371052751806700,2.092806640625,-0.33291175961494446,0.4160633385181427,2.0242714881896973
1761371052770418200,2.111418212890625,-0.49173203110694885,0.19860170781612396,2.779355049133301
1761371052789031200,2.13003125,-0.5265503525733948,-0.31328830122947693,3.53191876411438
1761371052807642400,2.148642333984375,-0.6206207871437073,-0.23448899388313293,3.6180484294891357
1761371052826255400,2.16725537109375,-0.8038749694824219,0.4172850251197815,2.484239339828491
1761371052844866800,2.18586669921875,-0.656660795211792,0.6768951416015625,0.45622655749320984
1761371052863479800,2.204479736328125,0.03176405653357506,0.3928511440753937,-1.890725016593933
1761371052882091000,2.223091064453125,0.6353574991226196,0.08498412370681763,-3.843679904937744
1761371052900704000,2.2417041015625,0.6109235882759094,0.40812233090400696,-5.062931060791016
1761371052919315500,2.2603154296875,0.04031591862440109,1.2670499086380005,-5.1985392570495605
1761371052937928400,2.278928466796875,-0.06291726976633072,1.2688825130462646,-4.758118152618408
1761371052956539600,2.29753955078125,0.5326588153839111,-0.2008923888206482,-3.805807590484619
1761371052975152600,2.316152587890625,0.9389485716819763,-1.5155121088027954,-2.62435245513916
1761371052993764000,2.33476416015625,0.6793385148048401,-1.734195351600647,-1.870566964149475
1761371053012377000,2.353377197265625,0.24494975805282593,-1.068906307220459,-1.6586030721664429
1761371053030988500,2.371988525390625,-0.1710372269153595,-0.5112028121948242,-1.7135792970657349
1761371053049601500,2.3906015625,-0.182643324136734,-0.334057092666626,-1.5425420999526978
1761371053068212700,2.409212646484375,0.25777754187583923,-0.4531722962856293,-0.8645015954971313
1761371053086825700,2.42782568359375,0.53143709897995,-0.7818081378936768,0.07750124484300613
1761371053105437200,2.446437255859375,0.46485477685928345,-0.9620080590248108,0.8599965572357178
1761371053124050200,2.46505029296875,0.208298921585083,-1.1080005168914795,1.1220500469207764
1761371053142661400,2.483661376953125,0.03176405653357506,-0.9901070594787598,0.8862630128860474
1761371053161274400,2.5022744140625,-0.04886778071522713,-0.7494332194328308,0.41407808661460876
1761371053179885800,2.5208857421875,-0.12644538283348083,-0.32245099544525146,0.18256697058677673
1761371053198498800,2.539498779296875,-0.3390202224254608,0.07704310864210129,0.23693238198757172
1761371053217110000,2.558110107421875,-0.6065713167190552,0.3647521734237671,0.4776062071323395
1761371053235723000,2.576722900390625,-0.70308518409729,0.33054471015930176,0.676131546497345
1761371053254334500,2.59533447265625,-0.5986303091049194,0.2963372766971588,0.8380060791969299
1761371053272947500,2.613947509765625,-0.3432961702346802,0.47470468282699585,0.9791117906570435
1761371053291559000,2.632558837890625,-0.07146912813186646,0.7343147397041321,1.1593117713928223
1761371053310172000,2.651171875,0.1575985997915268,0.8613709807395935,1.3694431781768799
1761371053328783000,2.669783203125,0.41048935055732727,0.7282062768936157,1.579574704170227
1761371053347396000,2.68839599609375,0.7789065837860107,0.45088163018226624,1.5081055164337158
1761371053366007600,2.707007568359375,1.2529240846633911,-0.0029778804164379835,0.9693382382392883
1761371053384620500,2.72562060546875,1.598052740097046,-0.9430717825889587,0.04512634128332138
1761371053403231700,2.744231689453125,1.557736873626709,-1.0340880155563354,-0.9885035753250122
1761371053421844700,2.7628447265625,1.391586422920227,-0.1862320601940155,-2.181488275527954
1761371053440456200,2.781456298828125,1.0782217979431152,1.1020448207855225,-3.045302629470825
1761371053459069200,2.800069091796875,1.0317974090576172,2.039160966873169,-2.80157470703125
1761371053477680400,2.818680419921875,1.3225606679916382,1.9066070318222046,-1.7074707746505737
1761371053496293400,2.83729345703125,1.4990955591201782,0.7422557473182678,-0.462564080953598
1761371053514904800,2.85590478515625,1.5992745161056519,-0.2656421959400177,0.6645254492759705
1761371053533517800,2.874517822265625,1.5803382396697998,-0.406137079000473,1.1538140773773193
1761371053552129000,2.89312890625,1.6707435846328735,0.13385190069675446,1.3010282516479492
1761371053570742000,2.911741943359375,1.770311713218689,0.586489737033844,1.4757306575775146
1761371053589353500,2.930353515625,1.5913335084915161,0.7220978140830994,1.764661431312561
1761371053607966500,2.948966552734375,1.1857309341430664,0.5925981998443604,2.0132761001586914
1761371053626578000,2.967577880859375,0.6848361492156982,0.34215080738067627,2.0285472869873047
1761371053645191000,2.98619091796875,0.2602209448814392,0.29145050048828125,1.847125768661499
1761371053663802000,3.004802001953125,0.006108472589403391,0.46248772740364075,1.662039041519165
1761371053682415000,3.0234150390625,-0.2742704153060913,0.6634564995765686,1.485504150390625
1761371053701026600,3.042026611328125,-0.6187883019447327,0.739201545715332,1.301639199256897
1761371053719639600,3.0606396484375,-0.8582404255867004,0.47775891423225403,1.1770262718200684
1761371053738250800,3.079250732421875,-0.9119949340820312,-0.15446799993515015,1.2619340419769287
1761371053756863700,3.09786376953125,-0.8704573512077332,-0.8679376244544983,1.342565894126892
1761371053775475200,3.11647509765625,-1.0066763162612915,-1.2228398323059082,1.2796486616134644
1761371053794088200,3.135088134765625,-1.4422104358673096,-1.4512966871261597,1.2906439304351807
1761371053812699400,3.153699462890625,-2.084897994995117,-1.8783552646636963,1.6046193838119507
1761371053831312400,3.1723125,-2.5894579887390137,-2.024958610534668,1.8025338649749756
1761371053849923800,3.190923828125,-2.7598843574523926,-1.591257095336914,1.5752986669540405
1761371053868536800,3.209536865234375,-2.2657089233398438,-0.2131093442440033,0.9088643789291382
1761371053887148000,3.22814794921875,-1.1917630434036255,0.5009710788726807,-0.13331741094589233
1761371053905761000,3.246760986328125,-0.130721315741539,0.09170344471931458,-1.2389509677886963
1761371053924372500,3.26537255859375,0.5070032477378845,-0.639480710029602,-2.4520936012268066
1761371053942985500,3.2839853515625,1.1649620532989502,-0.5215871930122375,-3.327514171600342
1761371053961596700,3.3025966796875,1.4618338346481323,-0.1214822456240654,-3.7697675228118896
1761371053980209700,3.321209716796875,1.538800597190857,0.10392039269208908,-3.596897840499878
1761371053998821000,3.339821044921875,1.3457728624343872,0.19676917791366577,-2.8431122303009033
1761371054017434000,3.35843408203125,0.7880693078041077,-0.08360971510410309,-1.7728314399719238
1761371054036045300,3.37704541015625,0.20768806338310242,-0.8942040205001831,-0.5560237169265747
1761371054054658300,3.395658203125,-0.01710372418165207,-1.4959648847579956,0.6413132548332214
1761371054073269800,3.414269775390625,0.022601349279284477,-1.2735401391983032,1.3914337158203125
1761371054091882800,3.4328828125,0.062306419014930725,-0.5490753054618835,1.491001844406128
1761371054110494000,3.451493896484375,-0.06719319522380829,0.01901262067258358,1.148316502571106
1761371054129107000,3.47010693359375,-0.3151971995830536,0.3219928741455078,0.5967214107513428
1761371054147718400,3.488718505859375,-0.5326588153839111,0.3635304868221283,0.022524992004036903
1761371054166331400,3.507331298828125,-0.5448757410049438,0.3751365840435028,-0.4387410581111908
1761371054184942800,3.52594287109375,-0.41048935055732727,0.6029825806617737,-0.7258392572402954
1761371054203555600,3.5445556640625,-0.061084724962711334,0.9413920044898987,-0.9433009028434753
1761371054222167000,3.5631669921875,0.2987042963504791,1.151523470878601,-0.9567395448684692
1761371054240780000,3.581780029296875,0.28037887811660767,1.1167051792144775,-0.7038487792015076
1761371054259391500,3.6003916015625,-0.06902574002742767,0.6597914099693298,-0.6623111367225647
1761371054278004200,3.619004150390625,-0.5393781065940857,0.3623087704181671,-1.0837957859039307
1761371054296615700,3.63761572265625,-0.758672297000885,0.8204442262649536,-1.3379082679748535
1761371054315228700,3.656228759765625,-0.3817795515060425,2.079476833343506,-0.7704311013221741
1761371054333840100,3.674840087890625,0.13927318155765533,2.2694501876831055,-0.14736689627170563
1761371054352452900,3.693452880859375,0.2901524603366852,1.4154858589172363,0.2882435619831085
1761371054371064300,3.712064208984375,0.2919849753379822,-0.280913382768631,0.5753417611122131
1761371054389677300,3.73067724609375,0.448361873626709,-2.4281177520751953,-0.24815669655799866
1761371054408288800,3.749288818359375,0.6475744247436523,-2.6797869205474854,-1.2340642213821411
1761371054426901500,3.767901611328125,1.2791905403137207,-1.2820920944213867,-1.7154117822647095
1761371054445513000,3.786512939453125,1.8601062297821045,-0.4366794228553772,-1.9102721214294434
1761371054464126000,3.8051259765625,1.9865516424179077,-0.611992597579956,-1.7025840282440186
1761371054482737400,3.8237373046875,1.4435083866119385,-0.8209023475646973,-1.0172133445739746
1761371054501350100,3.84235009765625,0.8485432267189026,-0.62543123960495,-0.36360684037208557
1761371054519961600,3.860961669921875,0.6823927164077759,-0.04940227046608925,-0.02764083817601204
1761371054538574600,3.87957470703125,0.9090170860290527,0.6713975071907043,-0.049020491540431976
1761371054557185800,3.898185791015625,1.2303227186203003,1.2157387733459473,-0.21089501678943634
1761371054575798800,3.916798828125,1.4832135438919067,1.4332003593444824,-0.10949437320232391
1761371054594410200,3.93541015625,1.5009280443191528,1.1612969636917114,0.33833301067352295
1761371054613023200,3.954023193359375,1.0696699619293213,0.4649311304092407,0.8661050796508789
1761371054631634400,3.972634521484375,0.3518480062484741,-0.39208757877349854,1.3419550657272339
1761371054650247400,3.991247314453125,-0.365286648273468,-1.064630389213562,1.5484215021133423
1761371054668859000,4.00985888671875,-0.7898254990577698,-1.2014602422714233,1.4170893430709839
1761371054687471900,4.028471923828125,-0.836860716342926,-1.0163735151290894,1.1373212337493896
1761371054706083000,4.0470830078125,-0.8405258059501648,-0.8178481459617615,1.0530242919921875
1761371054724696000,4.065696044921875,-1.1874871253967285,-0.9839985966682434,1.0273687839508057
1761371054743307500,4.0843076171875,-1.6321839094161987,-1.2142879962921143,0.695067822933197
1761371054761920500,4.10292041015625,-1.7635160684585571,-0.6559736132621765,0.13064496219158173
1761371054780531700,4.12153173828125,-1.2821683883666992,0.4514924883842468,-0.10644013434648514
1761371054799144700,4.140144775390625,-0.5650337338447571,0.9829295873641968,0.08666395395994186
1761371054817756200,4.158756103515625,0.014660334214568138,1.0043092966079712,0.5032618045806885
1761371054836369200,4.177369140625,0.5418215394020081,0.5107446908950806,0.8380060791969299
1761371054854980400,4.19598046875,0.7300388216972351,-0.7799755930900574,0.2405974566936493
1761371054873593300,4.21459326171875,0.21196399629116058,-1.2979741096496582,-1.4863440990447998
1761371054892204800,4.233204833984375,-0.08368607610464096,-0.4470638334751129,-3.175413131713867
1761371054910817800,4.25181787109375,0.13988402485847473,0.5315134525299072,-3.871778964996338
1761371054929429000,4.270428955078125,0.497229665517807,0.900465190410614,-3.464343786239624
1761371054948042000,4.2890419921875,0.46363306045532227,0.47592636942863464,-2.5217301845550537
1761371054966653400,4.3076533203125,0.2522799074649811,-0.25709033012390137,-1.672041654586792
1761371054985266200,4.32626611328125,0.1973036676645279,-0.4464530050754547,-1.2328424453735352
1761371055003877600,4.344877685546875,0.2907632887363434,-0.023746687918901443,-1.0770764350891113
1761371055022490600,4.36349072265625,0.390942245721817,0.5675534605979919,-0.917645275592804
1761371055041101800,4.382101806640625,0.47585001587867737,0.9365051984786987,-0.5175403356552124
1761371055059714800,4.40071484375,0.49417543411254883,0.8619818091392517,0.0695602297782898
1761371055078326300,4.419326171875,0.4581354558467865,0.31527355313301086,0.671855628490448
1761371055096939300,4.437939208984375,0.36162158846855164,-0.4067479074001312,1.0908968448638916
1761371055115550500,4.456550537109375,0.12705622613430023,-0.981555163860321,1.158700942993164
1761371055134163500,4.47516357421875,-0.2357870489358902,-1.0346988439559937,0.9137511253356934
1761371055152775000,4.49377490234375,-0.6077930331230164,-0.6028298735618591,0.5820610523223877
1761371055171388000,4.512387939453125,-0.7831062078475952,-0.16729579865932465,0.5008183717727661
1761371055189999000,4.5309990234375,-0.9058864712715149,-0.006642963737249374,0.7146149277687073
1761371055208612000,4.549612060546875,-1.178935170173645,-0.08605311065912247,1.0902860164642334
1761371055227223600,4.5682236328125,-1.5662124156951904,-0.2515927255153656,1.4555726051330566
1761371055245836300,4.586836181640625,-1.6028631925582886,-0.5759525895118713,1.5814071893692017
1761371055264447700,4.60544775390625,-1.5759859085083008,-0.9552887678146362,1.5569733381271362
1761371055283060700,4.624060791015625,-1.7549642324447632,-0.9558995962142944,1.315077781677246
1761371055301672000,4.642671875,-1.9547111988067627,-0.45256146788597107,0.6651363372802734
1761371055320285000,4.661284912109375,-1.887518048286438,1.1246461868286133,0.07200361788272858
1761371055338896400,4.679896484375,-1.132510781288147,2.111240863800049,-0.669030487537384
1761371055357509400,4.69850927734375,-0.25350162386894226,1.7361806631088257,-1.0960127115249634
1761371055376120600,4.71712060546875,-0.0036650835536420345,0.4685961902141571,-1.3379082679748535
1761371055394733600,4.735733642578125,-0.09040539711713791,-0.6480326056480408,-1.344016671180725
1761371055413345000,4.754344970703125,0.20707722008228302,-0.8825979232788086,-1.000720500946045
1761371055431957800,4.772957763671875,0.8228875994682312,-0.45744824409484863,-0.8675557971000671
1761371055450569200,4.7915693359375,1.021412968635559,-0.0683385357260704,-1.1784770488739014
1761371055469182200,4.81018212890625,0.5131117105484009,0.0892600566148758,-1.6439427137374878
1761371055487793400,4.82879345703125,0.09895725548267365,0.8699228763580322,-1.612789511680603
1761371055506406400,4.847406494140625,0.16065283119678497,1.6512728929519653,-1.0330954790115356
1761371055525017900,4.866017822265625,0.42698222398757935,1.792378544807434,-0.16813570261001587
1761371055543630800,4.884630859375,0.8021187782287598,1.4099881649017334,0.8997016549110413
1761371055562242000,4.903241943359375,1.0886061191558838,0.641465961933136,2.0132761001586914
1761371055580855000,4.92185498046875,1.0452359914779663,-0.07261446863412857,2.7677488327026367
1761371055599466500,4.940466552734375,0.8473215103149414,-0.4098021686077118,3.054847240447998
1761371055618079200,4.959079345703125,0.6567371487617493,-0.5179221034049988,2.91374135017395
1761371055636690700,4.977690673828125,0.5375455617904663,-0.542356014251709,2.4243764877319336
1761371055655303700,4.9963037109375,0.4599680006504059,-0.6266529560089111,1.8581210374832153
1761371055673915000,5.014914794921875,0.2644968628883362,-0.5820610523223877,1.4574052095413208
1761371055692527900,5.03352783203125,-0.053143709897994995,-0.6620820760726929,1.3327924013137817
1761371055711139300,5.052139404296875,-0.5112791657447815,-0.7170583009719849,1.4592376947402954
1761371055729752000,5.070751953125,-1.1691616773605347,-1.1171633005142212,1.7781000137329102
1761371055748363500,5.089363525390625,-1.4654226303100586,-1.2026818990707397,1.7047983407974243
1761371055766976500,5.1079765625,-1.401283621788025,-0.5026509165763855,2.0688633918762207
1761371055785587700,5.126587646484375,-1.2198619842529297,0.06788039952516556,2.2392897605895996
1761371055804200700,5.14520068359375,-1.054322361946106,-0.013362283818423748,1.9277576208114624
1761371055822812200,5.163812255859375,-0.7537854909896851,0.13568444550037384,1.3156886100769043
1761371055841425000,5.1824248046875,-0.4037700295448303,0.4392755329608917,0.4348468780517578
1761371055860036400,5.201036376953125,-0.16065283119678497,0.3739148676395416,-0.6574243903160095
1761371055878649300,5.2196494140625,-0.16615045070648193,0.07337802648544312,-1.7716097831726074
1761371055897260500,5.238260498046875,-0.5302154421806335,0.30366745591163635,-2.426438093185425
1761371055915873500,5.25687353515625,-0.9773555994033813,0.9908705949783325,-2.7832491397857666
1761371055934485000,5.275485107421875,-1.032942771911621,1.4038797616958618,-2.772864818572998
1761371055953097700,5.29409765625,-0.8118160367012024,1.289040446281433,-2.184542417526245
1761371055971709200,5.312709228515625,-0.7831062078475952,0.9261208176612854,-1.177255392074585
1761371055990322200,5.331322265625,-0.9907942414283752,0.6402443051338196,-0.11682453751564026
1761371056008933400,5.349933349609375,-1.170383334159851,0.7819608449935913,0.7482115626335144
1761371056027546400,5.36854638671875,-1.159998893737793,0.7385907173156738,1.32362961769104
1761371056046157800,5.38715771484375,-1.0060654878616333,0.6029825806617737,1.564914345741272
1761371056064770800,5.405770751953125,-0.8557969927787781,0.4032355546951294,1.5471997261047363
1761371056083382000,5.424382080078125,-0.8490777015686035,0.3891860544681549,1.3395116329193115
1761371056101995000,5.4429951171875,-0.9657495021820068,0.5223507881164551,0.9968263506889343
1761371056120606200,5.461606201171875,-1.2009257078170776,0.6243622303009033,0.7543200254440308
1761371056139219200,5.48021923828125,-1.420219898223877,0.7013289928436279,0.7170583009719849
1761371056157830700,5.49883056640625,-1.4684767723083496,0.8448781371116638,0.9693382382392883
1761371056176443400,5.517443359375,-1.3701304197311401,0.7501968145370483,1.3853251934051514
1761371056195054800,5.536054931640625,-1.0616525411605835,0.43805384635925293,1.5807963609695435
1761371056213667800,5.554667724609375,-0.4599680006504059,0.06116108223795891,1.3718866109848022
1761371056232279000,5.573279052734375,0.08063183724880219,-0.3951418101787567,0.935130774974823
1761371056250892000,5.59189208984375,0.30725616216659546,-0.828843355178833,0.6779640913009644
1761371056269503200,5.610503173828125,0.3408527672290802,-0.7763105034828186,0.6193227767944336
1761371056288116200,5.6291162109375,0.5436540842056274,-0.3053472638130188,0.5753417611122131
1761371056306727700,5.647727783203125,1.0605071783065796,-0.17768019437789917,0.24426254630088806
1761371056325340400,5.66634033203125,1.4667205810546875,-1.5002409219741821,-0.39170581102371216
1761371056343952000,5.684951904296875,1.479548454284668,-2.161177635192871,-0.9616262912750244
1761371056362564900,5.70356494140625,1.2688060998916626,-1.3731082677841187,-1.5223840475082397
1761371056381176000,5.722176025390625,1.1167051792144775,-0.21921780705451965,-2.527838706970215
1761371056399789000,5.7407890625,1.2663626670837402,-0.18867544829845428,-3.2884199619293213
1761371056418400500,5.759400390625,1.419074535369873,-1.106778860092163,-2.8956451416015625
1761371056437013200,5.77801318359375,1.0482902526855469,-1.747023105621338,-1.888892412185669
1761371056455624700,5.796624755859375,0.42759308218955994,-1.5466653108596802,-1.2694933414459229
1761371056474237700,5.81523779296875,0.16492876410484314,-0.8325084447860718,-1.2255122661590576
1761371056492849000,5.833848876953125,0.29565006494522095,-0.18928629159927368,-1.518718957901001
1761371056511462000,5.8524619140625,0.6084802150726318,0.348259299993515,-1.7166335582733154
1761371056530073000,5.871072998046875,0.6133670210838318,0.3397074341773987,-1.4558017253875732
1761371056548686000,5.88968603515625,0.15026842057704926,0.08315158635377884,-0.798530101776123
1761371056567297500,5.908297607421875,-0.38788801431655884,0.00862821750342846,-0.10705098509788513
1761371056585910300,5.92691015625,-0.5913001298904419,0.33115556836128235,0.3010713458061218
1761371056604521700,5.945521728515625,-0.4220954477787018,0.7599703669548035,0.4488963782787323
1761371056623134700,5.964134765625,-0.12033691257238388,0.9059628248214722,0.5790068507194519
1761371056641746000,5.982745849609375,-0.013438640162348747,0.7343147397041321,0.9113077521324158
1761371056660359000,6.00135888671875,-0.07574506103992462,0.5418978929519653,1.4800065755844116
1761371056678970000,6.01997021484375,-0.16676130890846252,0.19004985690116882,2.17698335647583
1761371056697583000,6.0385830078125,-0.39949411153793335,-0.021914144977927208,2.634507894515991
1761371056716194600,6.057194580078125,-0.6212316751480103,-0.012751436792314053,2.5086734294891357
1761371056734807300,6.075807373046875,-0.5870242118835449,-0.28396761417388916,1.6718125343322754
1761371056753418800,6.094418701171875,-0.4477510452270508,0.03184041380882263,0.72683185338974
1761371056772031700,6.11303173828125,-0.1459924876689911,1.0006442070007324,0.6040515899658203
1761371056790643000,6.131642822265625,0.03420744836330414,1.469240427017212,0.8209023475646973
1761371056809256000,6.150255859375,0.17348061501979828,0.6585696935653687,1.083566665649414
1761371056827867100,6.1688671875,0.444085955619812,-0.6736881732940674,0.9192487597465515
1761371056846480100,6.187480224609375,0.4062134325504303,-1.3553937673568726,-0.029473381116986275
1761371056865091600,6.206091552734375,0.3567348122596741,-0.5997756719589233,-1.2530004978179932
1761371056883704300,6.224704345703125,0.38666632771492004,0.559001624584198,-2.1796557903289795
1761371056902315800,6.243315673828125,0.49295374751091003,0.7984537482261658,-2.3073227405548096
1761371056920928800,6.2619287109375,0.45324867963790894,0.3537569046020508,-1.7239636182785034
1761371056939540000,6.2805400390625,0.3530697226524353,-0.2143310308456421,-1.0172133445739746
1761371056958153000,6.299153076171875,0.13805148005485535,-0.33955472707748413,-0.6201626658439636
1761371056976764200,6.31776416015625,-0.12461283802986145,-0.0023670331574976444,-0.5285356044769287
1761371056995377200,6.336377197265625,-0.18081079423427582,0.30549997091293335,-0.5041016936302185
1761371057013988400,6.35498828125,-0.16798299551010132,0.39773792028427124,-0.34222719073295593
1761371057032601300,6.373601318359375,-0.2107423096895218,0.26640576124191284,-0.009315420873463154
1761371057051212800,6.392212890625,-0.4318690001964569,0.031229566782712936,0.3939201235771179
1761371057069825500,6.410825439453125,-0.7507312893867493,-0.14897038042545319,0.7408813834190369
1761371057088437000,6.42943701171875,-0.9083298444747925,-0.02008160389959812,0.9051992893218994
1761371057107050000,6.448050048828125,-0.8441908955574036,0.32871219515800476,0.8441145420074463
1761371057125661200,6.4666611328125,-0.6981984376907349,0.5076904296875,0.7543200254440308
1761371057144274200,6.485274169921875,-0.5192201733589172,0.47775891423225403,0.8862630128860474
1761371057162885400,6.503885498046875,-0.38788801431655884,0.25418880581855774,1.3352357149124146
1761371057181498400,6.522498291015625,-0.4080459773540497,-0.17645850777626038,1.796425461769104
1761371057200109600,6.541109619140625,-0.4874561131000519,-0.930854856967926,1.841017246246338
1761371057218722600,6.55972265625,-0.5961869359016418,-1.5155121088027954,1.3792167901992798
1761371057237333800,6.578333740234375,-0.5351021885871887,-1.2588798999786377,0.7494332194328308
1761371057255946800,6.59694677734375,-0.20096874237060547,-0.2760266065597534,0.33466795086860657
1761371057274558200,6.61555810546875,0.30603447556495667,0.48631078004837036,0.009697199799120426
1761371057293171000,6.6341708984375,0.6432985067367554,0.3867426812648773,-0.5352548956871033
1761371057311782400,6.652782470703125,1.031186580657959,-0.9015341997146606,-1.2493354082107544
1761371057330395400,6.6713955078125,1.0421817302703857,-1.9644848108291626,-2.0092294216156006
1761371057349006600,6.690006591796875,0.7734090089797974,-1.7971125841140747,-2.6396236419677734
1761371057367619600,6.70861962890625,0.5106683373451233,-0.722555935382843,-2.804018020629883
1761371057386230800,6.727230712890625,0.3158080279827118,0.39346200227737427,-2.3653533458709717
1761371057404843800,6.74584375,0.04947862774133682,0.872977077960968,-1.579192876815796
1761371057423455000,6.764455078125,-0.40132665634155273,0.9743777513504028,-0.8932114243507385
1761371057442068000,6.78306787109375,-0.7085828185081482,0.7269846200942993,-0.5651864409446716
1761371057460679200,6.80167919921875,-0.5815265774726868,0.2053210288286209,-0.5737382769584656
1761371057479292200,6.820292236328125,-0.26877278089523315,-0.3419981002807617,-0.5450284481048584
1761371057497903600,6.838903564453125,-0.006108472589403391,-0.7140040993690491,-0.10521844029426575
1761371057516516400,6.857516357421875,-0.062306419014930725,-0.8074637055397034,0.46600010991096497
1761371057535127800,6.8761279296875,-0.46607646346092224,-0.7585959434509277,0.7390488386154175
1761371057553740800,6.89474072265625,-0.9077190160751343,-0.588780403137207,0.7237776517868042
1761371057572352000,6.91335205078125,-1.1532796621322632,-0.4324035048484802,0.5649573802947998
1761371057590965000,6.931965087890625,-1.2467392683029175,-0.3664320111274719,0.46905434131622314
1761371057609576200,6.950576171875,-1.230857253074646,-0.22838051617145538,0.5515187382698059
1761371057628189200,6.969189208984375,-1.220472812652588,0.06360447406768799,0.9229138493537903
1761371057646800400,6.98780029296875,-1.2387982606887817,0.18882815539836884,1.4745088815689087
1761371057665413400,7.006413330078125,-1.3481398820877075,-0.08910734206438065,1.773213267326355
1761371057684024600,7.025024658203125,-1.4464863538742065,-0.6235986948013306,1.7854301929473877
1761371057702637600,7.043637451171875,-1.3426423072814941,-1.4122024774551392,1.8911067247390747
1761371057721248800,7.062248779296875,-0.9468132257461548,-1.7048747539520264,2.058478832244873
1761371057739861800,7.08086181640625,-0.5485408306121826,-1.5326157808303833,1.8856091499328613
1761371057758473200,7.09947314453125,-0.17286977171897888,-0.8703809976577759,1.3676106929779053
1761371057777086000,7.1180859375,0.30969956517219543,0.6408551335334778,0.9534562230110168
1761371057795697400,7.136697509765625,0.7966212034225464,0.16439427435398102,0.16851748526096344
1761371057814310400,7.155310302734375,0.9933140277862549,-1.7091506719589233,-0.9243646264076233
1761371057832921600,7.173921630859375,0.8680903315544128,-2.5032520294189453,-1.72823965549469
1761371057851534600,7.19253466796875,0.5332696437835693,-1.5118470191955566,-2.317096471786499
1761371057870145800,7.211145751953125,0.4031592011451721,0.12285665422677994,-2.9164137840270996
1761371057888758800,7.2297587890625,0.5161659121513367,1.077610969543457,-3.273759603500366
1761371057907370000,7.248369873046875,0.6665107011795044,1.1997803449630737,-2.9976565837860107
1761371057925983000,7.26698291015625,0.6378008723258972,0.9047411680221558,-2.3470277786254883
1761371057944594200,7.28559423828125,0.5234960913658142,0.6811710596084595,-1.6030158996582031
1761371057963207200,7.304207275390625,0.3671191930770874,0.33237725496292114,-0.8406785130500793
1761371057981818600,7.322818603515625,0.07513421028852463,0.02023431472480297,0.044515494257211685
1761371058000431400,7.341431396484375,-0.3011476993560791,-0.18928629159927368,0.805631160736084
1761371058019042800,7.360042724609375,-0.5656445622444153,-0.4354577362537384,1.194740891456604
1761371058037655600,7.378655517578125,-0.786160409450531,-0.4122455418109894,1.277205228805542
1761371058056267000,7.39726708984375,-0.9736905097961426,-0.19356222450733185,1.1996276378631592
1761371058074879700,7.415879638671875,-1.0659284591674805,-0.4464530050754547,1.0401965379714966
1761371058093491200,7.4344912109375,-1.0726478099822998,-0.8911498188972473,0.9296332001686096
1761371058112104200,7.453104248046875,-0.9517000317573547,-1.2649883031845093,1.028590440750122
1761371058130715400,7.47171533203125,-0.897334635257721,-1.4470207691192627,1.3694431781768799
1761371058149328400,7.490328369140625,-1.0958600044250488,-1.375551700592041,1.8355196714401245
1761371058167939600,7.508939697265625,-1.271173119544983,-1.157479166984558,1.9289792776107788
1761371058186552600,7.527552490234375,-1.290109395980835,-0.801355242729187,1.4934451580047607
1761371058205163800,7.546163818359375,-1.1490037441253662,0.006184828467667103,0.8251782655715942
1761371058223776800,7.56477685546875,-0.9932376146316528,1.031186580657959,0.40247198939323425
1761371058242388000,7.583387939453125,-0.9779664874076843,1.8504090309143066,0.11720632016658783
1761371058261001000,7.6020009765625,-1.0671501159667969,1.7422890663146973,-0.256708562374115
1761371058279612400,7.6206123046875,-1.0250016450881958,0.5235724449157715,-1.002553105354309
1761371058298225200,7.63922509765625,-0.7262973785400391,-0.4122455418109894,-1.6879236698150635
1761371058316836600,7.657836669921875,-0.17592400312423706,-1.11105477809906,-1.9475337266921997
1761371058335449300,7.676449462890625,0.20341213047504425,-1.2735401391983032,-1.6610463857650757
1761371058354060800,7.695060791015625,0.291374146938324,-1.158700942993164,-1.4008255004882812
1761371058372673500,7.713673583984375,0.2779355049133301,-1.2680425643920898,-1.636001706123352
1761371058391285000,7.732284912109375,0.3035911023616791,-1.6248537302017212,-2.0776443481445312
1761371058409898000,7.75089794921875,0.31031039357185364,-1.3169103860855103,-2.0464911460876465
1761371058428509200,7.76950927734375,0.2596100866794586,-1.042639970779419,-1.648829460144043
1761371058447122200,7.7881220703125,0.13438639044761658,-0.7604284882545471,-1.1711468696594238
1761371058465733400,7.8067333984375,0.00916270911693573,-0.718280017375946,-0.5657972693443298
1761371058484346400,7.825346435546875,-0.025655584409832954,-1.0768473148345947,0.16973918676376343
1761371058502957600,7.84395751953125,0.08796200156211853,-1.1568683385849,0.8746569156646729
1761371058521570600,7.862570556640625,0.21685077250003815,-1.0597436428070068,1.232613444328308
1761371058540181800,7.881181640625,0.1954711228609085,-0.875267744064331,1.2362785339355469
1761371058558794800,7.899794677734375,0.02993151545524597,-0.28702184557914734,1.1367104053497314
1761371058577406000,7.918406005859375,-0.13744063675403595,0.692777156829834,1.0273687839508057
1761371058596019000,7.93701904296875,-0.3530697226524353,1.4014363288879395,0.9510128498077393
1761371058614630400,7.95563037109375,-0.6584933400154114,1.5846904516220093,1.1104439496994019
1761371058633243100,7.9742431640625,-0.8741224408149719,0.4942517876625061,1.440301537513733
1761371058651854600,7.9928544921875,-1.0213366746902466,-0.5228089094161987,1.7518335580825806
1761371058670467300,8.01146728515625,-1.2852226495742798,0.17233528196811676,1.6858620643615723
1761371058689078800,8.030078857421875,-1.378682255744934,0.08192989230155945,0.7873057723045349
1761371058707691500,8.04869140625,-1.298661231994629,0.539454460144043,-0.2707580327987671
1761371058726303000,8.067302978515626,-0.8674030900001526,1.2059651613235474,-0.9976662993431091
1761371058744916000,8.085916015625,-0.33474430441856384,1.6378341913223267,-1.3617312908172607
1761371058763527200,8.104527099609374,-0.08246438205242157,1.2475028038024902,-1.606680989265442
1761371058782140200,8.12314013671875,0.09590301662683487,0.09353598952293396,-2.0269439220428467
1761371058800751400,8.14175146484375,0.10140064358711243,-0.778143048286438,-2.577317237854004
1761371058819364400,8.1603642578125,0.05070032179355621,-0.352993369102478,-2.7575936317443848
1761371058837975600,8.1789755859375,-0.1459924876689911,0.9297859072685242,-2.401393175125122
1761371058856588500,8.197588623046874,-0.2742704153060913,1.7056382894515991,-1.709914207458496
1761371058875199700,8.21619970703125,-0.18630841374397278,1.0452359914779663,-0.7637118101119995
1761371058893812700,8.234812744140624,-0.13499724864959717,-0.022524992004036903,0.10987614840269089
1761371058912424000,8.253423828125,-0.08551861345767975,-0.5643464922904968,0.8050203323364258
1761371058931037000,8.272036865234375,0.061084724962711334,-0.2772482931613922,0.9803335070610046
1761371058949648100,8.290648193359376,0.4367557764053345,0.3140518367290497,1.0249253511428833
1761371058968261000,8.30926123046875,0.7532510161399841,0.7416449189186096,1.1226608753204346
1761371058986872300,8.327872314453124,0.6982747912406921,0.7049940824508667,1.2185639142990112
1761371059005485300,8.3464853515625,0.34818294644355774,0.42339351773262024,1.3315706253051758
1761371059024096500,8.365096435546874,-0.0916270911693573,0.2682383060455322,1.4488533735275269
1761371059042709500,8.38370947265625,-0.4056025743484497,0.5113555192947388,1.6205013990402222
1761371059061321000,8.402321044921875,-0.44042086601257324,0.6964422464370728,1.7939820289611816
1761371059079933700,8.42093359375,-0.34757208824157715,0.6042042970657349,1.8697271347045898
1761371059098545000,8.439544921875,-0.28404396772384644,0.4973060190677643,1.8000905513763428
1761371059117158000,8.458157958984375,-0.30664533376693726,0.2969481348991394,1.518489956855774
1761371059135769300,8.476769287109375,-0.469741553068161,0.1527881771326065,1.024314522743225
1761371059154382000,8.495382080078125,-0.5479300022125244,0.322603702545166,0.3591018319129944
1761371059172993500,8.51399365234375,-0.4349232614040375,0.46187686920166016,-0.3196258246898651
1761371059191606300,8.532606201171875,-0.25289076566696167,0.269459992647171,-0.8247964978218079
1761371059210217700,8.5512177734375,0.07696675509214401,-0.06650599837303162,-1.0312628746032715
1761371059228830500,8.56983056640625,0.38605546951293945,-1.2576581239700317,-1.1968024969100952
1761371059247442000,8.58844189453125,0.577861487865448,-2.076880693435669,-1.2432268857955933
1761371059266054700,8.6070546875,0.29503923654556274,-2.276627779006958,-1.995790719985962
1761371059284666000,8.625666015625,-0.21196399629116058,-1.5857595205307007,-3.5113790035247803
1761371059303278800,8.64427880859375,0.11911521852016449,-0.5319716334342957,-4.521109580993652
1761371059321890300,8.662890380859375,0.901076078414917,0.25113457441329956,-4.129556655883789
1761371059340503000,8.6815029296875,0.9420028328895569,0.458822637796402,-2.8400580883026123
1761371059359114500,8.700114501953125,0.38605546951293945,0.09109259396791458,-1.6915887594223022
1761371059377727500,8.7187275390625,-0.1313321590423584,-0.5350258350372314,-0.8559496998786926
1761371059396338700,8.737338623046876,-0.3811686933040619,-0.8099071383476257,-0.16080553829669952
1761371059414951700,8.75595166015625,-0.4324798583984375,-0.6034407615661621,0.16424155235290527
1761371059433563000,8.77456298828125,-0.208298921585083,-0.2882435619831085,0.29496288299560547
1761371059452176000,8.79317578125,-0.04825693368911743,0.13751699030399323,0.34016555547714233
1761371059470787000,8.811787109375,-0.182643324136734,0.30488914251327515,0.359712690114975
1761371059489400000,8.830400146484376,-0.4960079789161682,0.3390965759754181,0.5014292597770691
1761371059508011300,8.84901123046875,-0.6456655263900757,0.5718293786048889,0.8642725348472595
1761371059526624300,8.867624267578124,-0.652384877204895,0.7935669422149658,1.1831347942352295
1761371059545235500,8.8862353515625,-0.6145123243331909,0.7801283001899719,1.443355679512024
1761371059563848400,8.904848388671875,-0.42392799258232117,0.7575269341468811,1.6327183246612549
1761371059582459600,8.923459716796875,-0.13744063675403595,0.5638883709907532,1.6363834142684937
1761371059601072600,8.94207275390625,0.17409147322177887,0.1020878478884697,1.3981530666351318
1761371059619683800,8.960683837890626,0.4343124032020569,0.13751699030399323,1.097616195678711
1761371059638296800,8.979296875,0.5528167486190796,0.6836144328117371,0.6095492243766785
1761371059656908000,8.997907958984374,0.4862344264984131,0.6164212226867676,-0.10949437320232391
1761371059675521000,9.01652099609375,0.24433889985084534,0.4148416519165039,-0.4784461259841919
1761371059694132200,9.03513232421875,0.6151995658874512,-0.27175068855285645,-0.51998370885849
1761371059712745200,9.0537451171875,0.9420028328895569,-1.614469289779663,-0.7771504521369934
1761371059731356400,9.0723564453125,0.6933879852294922,-2.010909080505371,-0.7124006152153015
1761371059749969400,9.090969482421874,0.0397050715982914,-1.0151517391204834,-0.30191126465797424
1761371059768580600,9.10958056640625,-0.624896764755249,0.26518407464027405,-0.3642176687717438
1761371059787193600,9.128193603515625,-0.7409577369689941,0.4655419588088989,-1.2096302509307861
1761371059805804800,9.1468046875,-0.342074453830719,-0.5075377225875854,-1.7477867603302002
1761371059824417800,9.165417724609375,0.01710372418165207,-0.9204704761505127,-1.2865970134735107
1761371059843029000,9.184029052734376,-0.02504473738372326,-0.7347729206085205,-0.23716144263744354
1761371059861642000,9.20264208984375,-0.13927318155765533,-0.46905434131622314,0.3554367423057556
1761371059880253200,9.221253173828124,-0.05375456064939499,-0.597943127155304,0.6535302400588989
1761371059898866200,9.2398662109375,0.09956810623407364,-0.6559736132621765,0.8880955576896667
1761371059917477400,9.258477294921875,0.183865025639534,-0.671855628490448,1.0340880155563354
1761371059936090400,9.27709033203125,0.06841489672660828,-0.26014456152915955,1.049970030784607
1761371059954701600,9.29570166015625,-0.1172826737165451,0.3928511440753937,0.9522345066070557
1761371059973314600,9.314314453125,-0.20219044387340546,0.8228875994682312,0.888706386089325
1761371059991925800,9.33292578125,-0.038483377546072006,0.8992435336112976,0.9516236782073975
1761371060010538500,9.35153857421875,0.24433889985084534,0.7807391285896301,1.1458730697631836
1761371060029150000,9.37014990234375,0.38788801431655884,0.7489750981330872,1.53620445728302
1761371060047763000,9.388762939453125,0.3897205591201782,0.9670475721359253,2.220964193344116
1761371060066374100,9.4073740234375,0.22906772792339325,1.2267340421676636,2.849602460861206
1761371060084987000,9.42598681640625,0.18814095854759216,1.0434035062789917,2.7549211978912354
1761371060103598300,9.444598388671874,0.32252734899520874,0.3384857475757599,1.8159725666046143
1761371060122211000,9.463211181640625,0.569309651851654,-0.46966519951820374,0.8001335263252258
1761371060140822500,9.481822509765625,0.6750625967979431,0.11613733321428299,0.45378315448760986
1761371060159435300,9.500435302734376,0.5021164417266846,0.9462787508964539,0.07322531193494797
1761371060178046700,9.519046630859375,0.7080483436584473,1.2499462366104126,0.043293800204992294
1761371060196659500,9.537659423828124,0.8632035255432129,0.053830914199352264,-0.06123743951320648
1761371060215271000,9.55627099609375,0.7184327244758606,-1.5839269161224365,-0.47355934977531433
1761371060233883600,9.574883544921875,0.47768256068229675,-1.9070651531219482,-0.9805625677108765
1761371060252495000,9.5934951171875,0.043981000781059265,-0.7854732275009155,-1.884616494178772
1761371060271107800,9.61210791015625,-0.2993151545524597,0.48569992184638977,-3.0715692043304443
1761371060289719300,9.63071923828125,0.1301104724407196,-0.020692450925707817,-3.5468082427978516
1761371060308332000,9.64933203125,0.8564842343330383,-1.2655991315841675,-2.5186760425567627
1761371060326943200,9.667943115234374,0.7471425533294678,-1.6914360523223877,-0.8339592218399048
1761371060345556200,9.68655615234375,0.04031591862440109,-1.1055572032928467,0.18378867208957672
1761371060364167400,9.70516748046875,-0.5748072862625122,-0.1361425817012787,0.06589514762163162
1761371060382780400,9.723780517578126,-0.8209787011146545,0.5901548266410828,-0.811357855796814
1761371060401391600,9.7423916015625,-0.8160919547080994,0.9316184520721436,-1.5730843544006348
1761371060420004600,9.761004638671874,-0.8637380003929138,1.1338088512420654,-1.6604355573654175
1761371060438615800,9.77961572265625,-0.833195686340332,0.8491540551185608,-1.0074398517608643
1761371060457228800,9.798228759765625,-0.8509102463722229,0.2706816792488098,-0.0032069480512291193
1761371060475840000,9.816840087890625,-1.0726478099822998,-0.12575818598270416,1.037142276763916
1761371060494453000,9.835452880859375,-1.2821683883666992,-0.1074327602982521,1.655930519104004
1761371060513064200,9.854064208984376,-1.2155860662460327,-0.05978667363524437,1.8068097829818726
1761371060531677200,9.87267724609375,-0.893058717250824,-0.013973130844533443,1.638826847076416
1761371060550288400,9.891288330078124,-0.2980934679508209,0.5296809077262878,1.6095061302185059
1761371060568901400,9.9099013671875,0.3133646547794342,1.2462811470031738,1.9027128219604492
1761371060587512600,9.9285126953125,0.6304707527160645,0.9688801169395447,1.8856091499328613
1761371060606125600,9.94712548828125,0.5845808386802673,-0.15446799993515015,1.384103536605835
1761371060624736800,9.96573681640625,0.3261924386024475,-0.22838051617145538,0.8850412964820862
1761371060643349800,9.984349853515624,0.33474430441856384,0.2969481348991394,0.3603235185146332
1761371060661961000,10.0029609375,0.7508076429367065,0.7538618445396423,-0.27442312240600586
1761371060680573700,10.02157373046875,1.2352094650268555,0.3335989713668823,-0.8376243114471436
1761371060699185200,10.04018505859375,1.1948935985565186,-0.5777851343154907,-1.2621631622314453
1761371060717798000,10.0587978515625,0.7153785228729248,-1.4739744663238525,-1.4991718530654907
1761371060736409300,10.077409423828126,-0.04703523963689804,-0.967505693435669,-1.7783291339874268
1761371060755022000,10.09602197265625,-0.3823903799057007,0.5895439386367798,-2.3268699645996094
1761371060773633300,10.11463330078125,-0.07635590434074402,1.6408884525299072,-2.769810438156128
1761371060792246300,10.133246337890625,0.5625903010368347,0.4411080777645111,-2.5241734981536865
1761371060810857500,10.151857421875,0.8289960622787476,-0.6688013672828674,-1.3965495824813843
1761371060829470500,10.170470458984376,0.4715740978717804,-1.0212602615356445,-0.1498102843761444
1761371060848081700,10.18908154296875,-0.02748812735080719,-0.640091598033905,0.3578801453113556
1761371060866694700,10.207694580078124,-0.29565006494522095,0.22303560376167297,0.0561215914785862
1761371060885305900,10.226305908203125,-0.2101314514875412,0.8448781371116638,-0.5279247164726257
1761371060903918800,10.2449189453125,-0.20035789906978607,1.389830231666565,-0.7429429888725281
1761371060922530000,10.263530029296875,-0.237008735537529,1.3091983795166016,-0.4369085133075714
1761371060941143000,10.28214306640625,-0.3268032968044281,0.6830036044120789,0.2821350693702698
1761371060959754200,10.300754150390626,-0.3823903799057007,-0.009697199799120426,1.04569411277771
1761371060978367200,10.3193671875,-0.35917818546295166,-0.37498384714126587,1.5710227489471436
1761371060996978400,10.337978515625,-0.20646637678146362,-0.19172967970371246,1.7200695276260376
1761371061015591400,10.35659130859375,0.031153209507465363,0.12163496017456055,1.7115176916122437
1761371061034202600,10.37520263671875,0.17714570462703705,0.29206135869026184,1.8080315589904785
1761371061052815400,10.3938154296875,0.3762819170951843,0.23708508908748627,1.8740030527114868
1761371061071426800,10.4124267578125,0.5118899941444397,-0.40063944458961487,1.6510437726974487
1761371061090039600,10.43103955078125,0.17836740612983704,-0.7427139282226562,1.375551700592041
1761371061108651000,10.449651123046875,-0.4318690001964569,-0.45500484108924866,0.9931612610816956
1761371061127263700,10.468263671875,-0.37139514088630676,-0.15202461183071136,0.5496861934661865
1761371061145875000,10.486875,0.3023693859577179,-0.04879142343997955,0.2143310308456421
1761371061164488000,10.505488037109375,0.5741963982582092,-0.36093437671661377,-0.008093725889921188
1761371061183099100,10.52409912109375,0.3054236173629761,-1.11105477809906,-0.32573428750038147
1761371061201712000,10.542712158203125,-0.023212196305394173,-1.7977235317230225,-0.8486195802688599
1761371061220323300,10.5613232421875,-0.4837910234928131,-1.1336561441421509,-1.6243956089019775
1761371061238936300,10.579936279296875,-0.7623373866081238,0.5718293786048889,-2.6910111904144287
1761371061257547500,10.598547607421875,-0.47707170248031616,1.282931923866272,-3.3696625232696533
1761371061276160300,10.61716015625,0.13438639044761658,-0.10010259598493576,-2.89992094039917
1761371061294771700,10.635771728515625,0.3555130958557129,-1.1519815921783447,-1.450914978981018
1761371061313384400,10.654384521484374,-0.013438640162348747,-1.1880215406417847,-0.09116895496845245
1761371061331996000,10.672995849609375,-0.49295374751091003,-0.5863370299339294,0.5649573802947998
1761371061350608600,10.691608642578124,-0.6157340407371521,0.2957264184951782,0.565568208694458
1761371061369219800,10.7102197265625,-0.45447036623954773,0.8302177786827087,0.16790664196014404
1761371061387832800,10.728832763671875,-0.34879377484321594,1.0910495519638062,-0.09483403712511063
1761371061406444000,10.747444091796876,-0.4691306948661804,0.9731560349464417,0.11415208131074905
1761371061425057000,10.76605712890625,-0.7562289237976074,0.8106706738471985,0.6840725541114807
1761371061443668200,10.784668212890624,-0.8741224408149719,0.6677324175834656,1.3950988054275513
1761371061462281200,10.80328125,-0.9504783153533936,0.36047622561454773,1.887441635131836
1761371061480892400,10.821892333984374,-1.068982720375061,0.13385190069675446,2.1006274223327637
1761371061499505200,10.840505126953126,-0.9321529269218445,-0.2937411665916443,2.133002281188965
1761371061518116600,10.85911669921875,-0.5741963982582092,0.09781191498041153,2.1922545433044434
1761371061536729300,10.877729248046874,-0.15332266688346863,0.794788658618927,2.1409432888031006
1761371061555340800,10.8963408203125,0.03787253051996231,-0.29618456959724426,1.5325393676757812
1761371061573953500,10.91495361328125,0.16309621930122375,-1.1635876893997192,0.8044095039367676
1761371061592564700,10.933564697265625,0.034818295389413834,-0.778143048286438,0.3322245478630066
1761371061611177700,10.952177734375,-0.08307522535324097,0.09720107167959213,-0.15347537398338318
