time,seconds_elapsed,z,y,x
1761311192538951400,0.248951416015625,0.01958465576171875,-0.006517693400382996,-0.010820060968399048
1761311192557562600,0.267562744140625,0.005705833435058594,0.0014049708843231201,-0.015172839164733887
1761311192576175600,0.286175537109375,0.013719558715820312,0.05694296956062317,-0.015270069241523743
1761311192594786800,0.304786865234375,0.014212608337402344,0.0013977214694023132,-0.011000707745552063
1761311192613399800,0.32339990234375,0.012585639953613281,-0.06457440555095673,-0.004832625389099121
1761311192632011000,0.342010986328125,0.013781547546386719,-0.10051670670509338,0.011199712753295898
1761311192650624000,0.3606240234375,0.010187149047851562,-0.06906288117170334,0.0008703321218490601
1761311192669235200,0.379235107421875,0.0137786865234375,0.010840870440006256,-0.023701608180999756
1761311192687848200,0.39784814453125,0.012845993041992188,0.06634848564863205,-0.0014862120151519775
1761311192706459400,0.41645947265625,0.007580757141113281,0.10020860284566879,0.0008308589458465576
1761311192725072400,0.435072265625,0.009174346923828125,0.059400446712970734,-0.019490227103233337
1761311192743683600,0.45368359375,0.013256072998046875,-0.007947713136672974,0.002269655466079712
1761311192762296600,0.472296630859375,0.017009735107421875,-0.06227351725101471,0.006707772612571716
1761311192780907800,0.49090771484375,0.013690948486328125,-0.08418436348438263,-0.009394600987434387
1761311192799520800,0.509520751953125,0.013294219970703125,-0.04520736634731293,-0.001976504921913147
1761311192818132000,0.528132080078125,0.010074615478515625,0.02166374772787094,0.005136802792549133
1761311192836745000,0.546744873046875,0.016617774963378906,0.0666721910238266,-0.0020502060651779175
1761311192855356200,0.565356201171875,0.00209808349609375,0.09139478206634521,0.002790123224258423
1761311192873969200,0.58396923828125,0.0065937042236328125,0.05013180524110794,-0.0018451064825057983
1761311192892580400,0.602580322265625,0.020294189453125,-0.014626510441303253,0.009938716888427734
1761311192911193300,0.621193359375,0.01010894775390625,-0.06280488520860672,-0.0043321698904037476
1761311192929804500,0.639804443359375,0.016727447509765625,-0.07647169381380081,0.0028570890426635742
1761311192948417500,0.65841748046875,0.0114593505859375,-0.0433925986289978,0.0028761327266693115
1761311192967028700,0.67702880859375,0.011096954345703125,0.0069312527775764465,-0.01343865692615509
1761311192985641700,0.695641845703125,0.0037832260131835938,0.058051757514476776,0.005681633949279785
1761311193004253000,0.7142529296875,0.01291656494140625,0.0652824342250824,0.003169015049934387
1761311193022866000,0.732865966796875,0.014800071716308594,0.04211684316396713,-0.0060710608959198
1761311193041477000,0.75147705078125,0.007323265075683594,-0.012950398027896881,-0.01265154778957367
1761311193060090000,0.770090087890625,0.0070781707763671875,-0.052105553448200226,-0.0005732476711273193
1761311193078701300,0.788701416015625,0.013902664184570312,-0.062013257294893265,-0.0003346055746078491
1761311193097314300,0.807314208984375,0.013400077819824219,-0.034143656492233276,-0.002553105354309082
1761311193115925500,0.825925537109375,0.005932807922363281,0.016097798943519592,-0.00007010996341705322
1761311193134538500,0.84453857421875,0.015112876892089844,0.05286479741334915,-0.0023145079612731934
1761311193153149700,0.863149658203125,0.0005636215209960938,0.05102278292179108,0.009634986519813538
1761311193171762700,0.8817626953125,0.012230873107910156,0.02606857568025589,-0.002045363187789917
1761311193190374000,0.900373779296875,0.011823654174804688,-0.02848277986049652,0.00513043999671936
1761311193208987000,0.91898681640625,0.01139068603515625,-0.05767882242798805,-0.0018603503704071045
1761311193227598000,0.93759814453125,0.013443946838378906,-0.050944115966558456,-0.0040135979652404785
1761311193246211000,0.956211181640625,0.00350189208984375,-0.016451824456453323,-0.00371706485748291
1761311193264822300,0.974822265625,0.005778312683105469,0.0261150524020195,0.001183822751045227
1761311193283435300,0.993435302734375,0.007900238037109375,0.062493838369846344,0.003505796194076538
1761311193302046500,1.01204638671875,0.009987831115722656,0.048814669251441956,0.0035695135593414307
1761311193320659500,1.030659423828125,0.0072612762451171875,0.014723941683769226,0.005929872393608093
1761311193339270700,1.049270751953125,0.014119148254394531,-0.030116211622953415,-0.0009520202875137329
1761311193357883600,1.067883544921875,0.011219024658203125,-0.052380625158548355,0.003794729709625244
1761311193376494800,1.086494873046875,0.01092529296875,-0.04606432467699051,-0.003269985318183899
1761311193395107800,1.10510791015625,0.008287429809570312,-0.007139451801776886,-0.0007389336824417114
1761311193413719000,1.123718994140625,0.000949859619140625,0.0257871150970459,0.006299063563346863
1761311193432332000,1.14233203125,0.0149993896484375,0.04824306070804596,-0.003028973937034607
1761311193450943200,1.160943115234375,0.0074367523193359375,0.041887156665325165,0.0042503029108047485
1761311193469556200,1.17955615234375,-0.0021505355834960938,0.0008911415934562683,-0.0003959238529205322
1761311193488167700,1.198167724609375,-0.004475593566894531,-0.029251236468553543,0.004487127065658569
1761311193506780400,1.216780517578125,0.00269317626953125,-0.04458016902208328,0.009052813053131104
1761311193525392000,1.235391845703125,0.002559661865234375,-0.024325981736183167,-0.00034999847412109375
1761311193544004600,1.254004638671875,0.0071811676025390625,0.004446789622306824,0.002044379711151123
1761311193562616000,1.272615966796875,-0.0025148391723632812,0.03928736597299576,0.004470661282539368
1761311193581228800,1.291228759765625,0.011534690856933594,0.047273993492126465,-0.0001440197229385376
1761311193599840300,1.30984033203125,-0.00046443939208984375,0.026995152235031128,-0.004707247018814087
1761311193618453000,1.328452880859375,0.004258155822753906,-0.008793465793132782,0.00493428111076355
1761311193637064400,1.347064453125,0.004115104675292969,-0.03412460535764694,-0.0021275728940963745
1761311193655677200,1.36567724609375,0.01802539825439453,-0.0561847947537899,0.007216259837150574
1761311193674288600,1.38428857421875,-0.0012884140014648438,-0.014612529426813126,0.00015707314014434814
1761311193692901400,1.4029013671875,0.0057353973388671875,0.011462420225143433,0.002567201852798462
1761311193711512800,1.421512939453125,0.01016998291015625,0.03219480812549591,0.007464766502380371
1761311193730125600,1.44012548828125,0.0052032470703125,0.03807748109102249,-0.0021075010299682617
1761311193748737000,1.458737060546875,0.000438690185546875,0.015814363956451416,0.009739205241203308
1761311193767349800,1.477349853515625,0.007404327392578125,-0.015011690557003021,0.009556382894515991
1761311193785961200,1.495961181640625,0.0025234222412109375,-0.026105210185050964,0.007160738110542297
1761311193804574000,1.514573974609375,0.0022821426391601562,-0.03451590985059738,0.00004699826240539551
1761311193823185400,1.533185302734375,-0.00006866455078125,-0.014649245887994766,0.011711075901985168
1761311193841798100,1.551798095703125,0.006992340087890625,0.018614046275615692,0.011410355567932129
1761311193860409600,1.57040966796875,0.004405021667480469,0.027322150766849518,0.0019368529319763184
1761311193879022300,1.589022216796875,0.004218101501464844,0.024105854332447052,-0.00045140087604522705
1761311193897633800,1.6076337890625,0.004034996032714844,0.004672490060329437,0.002136215567588806
1761311193916246500,1.62624658203125,0.0016260147094726562,-0.01640770211815834,0.004392907023429871
1761311193934858000,1.64485791015625,-0.000743865966796875,-0.029808111488819122,-0.007376044988632202
1761311193953470700,1.663470703125,0.00386810302734375,-0.012476041913032532,-0.00002384185791015625
1761311193972082200,1.682082275390625,-0.0008907318115234375,0.004400826990604401,0.007124543190002441
1761311193990695200,1.700695068359375,0.006122589111328125,0.025255456566810608,0.004626572132110596
1761311194009306400,1.719306396484375,0.0058803558349609375,0.028996378183364868,0.009076625108718872
1761311194027919000,1.737919189453125,0.008115768432617188,0.011739790439605713,0.006547585129737854
1761311194046530600,1.756530517578125,0.00780487060546875,-0.0025754496455192566,0.006533876061439514
1761311194065143600,1.7751435546875,0.005268096923828125,-0.02112564444541931,0.006363242864608765
1761311194083754800,1.793754638671875,-0.0018911361694335938,-0.02036260813474655,0.0016468018293380737
1761311194102367700,1.81236767578125,0.007431983947753906,-0.012753784656524658,0.0061962902545928955
1761311194120979000,1.83097900390625,-0.002193450927734375,0.0016289576888084412,-0.00548197329044342
1761311194139592000,1.849592041015625,0.004977226257324219,0.02018064260482788,0.006533190608024597
1761311194158203100,1.868203125,0.0000629425048828125,0.02175743132829666,0.004126980900764465
1761311194176816000,1.886816162109375,0.004765510559082031,0.014171376824378967,0.00660434365272522
1761311194195427300,1.90542724609375,0.0022497177124023438,-0.00026462972164154053,-0.005165010690689087
1761311194214040300,1.924040283203125,-0.004813194274902344,-0.011815324425697327,0.009193390607833862
1761311194232651500,1.942651611328125,-0.0046939849853515625,-0.01595417782664299,0.008942827582359314
1761311194251264500,1.961264404296875,0.0000896453857421875,-0.010772548615932465,0.0016921460628509521
1761311194269875700,1.979875732421875,0.000202178955078125,0.006025537848472595,0.004019454121589661
1761311194288488700,1.99848876953125,0.004820823669433594,0.01759941875934601,-0.0029177218675613403
1761311194307100000,2.017099853515625,-0.0022840499877929688,0.017003893852233887,0.00419144332408905
1761311194325713000,2.035712890625,0.0000629425048828125,0.002475425601005554,0.004233136773109436
1761311194344324000,2.054323974609375,0.007002830505371094,-0.0020989105105400085,-0.0004521012306213379
1761311194362937000,2.07293701171875,0.0044536590576171875,-0.01354856789112091,0.004300713539123535
1761311194381548500,2.091548583984375,0.006619453430175781,-0.013037130236625671,0.0065819621086120605
1761311194400161300,2.110161376953125,-0.0028600692749023438,0.006094768643379211,0.006527930498123169
1761311194418772500,2.1287724609375,0.00409698486328125,0.015257105231285095,0.008806958794593811
1761311194437385500,2.147385498046875,-0.000591278076171875,0.014660552144050598,-0.0006593763828277588
1761311194455997000,2.165996826171875,-0.0006132125854492188,0.012034423649311066,-0.002961382269859314
1761311194474609700,2.184609619140625,-0.0006742477416992188,-0.004722990095615387,0.00671638548374176
1761311194493221000,2.20322119140625,0.0063686370849609375,-0.013784289360046387,0.0066177695989608765
1761311194511833900,2.221833740234375,0.00156402587890625,-0.00390886515378952,0.01119200885295868
1761311194530445300,2.2404453125,0.006099700927734375,-0.0037139952182769775,0.008608430624008179
1761311194549058000,2.25905810546875,0.012998580932617188,0.008085235953330994,0.0014644861221313477
1761311194567669500,2.27766943359375,0.005463600158691406,0.00795447826385498,-0.000870242714881897
1761311194586282200,2.2962822265625,-0.00629425048828125,0.010086841881275177,0.006307095289230347
1761311194604893700,2.314893798828125,0.014940261840820312,0.0027713552117347717,0.0040176063776016235
1761311194623506400,2.33350634765625,0.007419586181640625,0.00040609389543533325,0.003969430923461914
1761311194642118000,2.352117919921875,-0.0045223236083984375,-0.01343788206577301,-0.005321606993675232
1761311194660730600,2.370730712890625,-0.0020208358764648438,-0.01533939316868782,0.018363624811172485
1761311194679342000,2.389342041015625,0.002750396728515625,-0.0006121620535850525,-0.0031485557556152344
1761311194697954800,2.407954833984375,-0.0020160675048828125,0.0017239749431610107,0.0018758773803710938
1761311194716566300,2.426566162109375,-0.0020303726196289062,0.01801489293575287,0.0019760429859161377
1761311194735179000,2.445178955078125,0.0003871917724609375,0.02204221487045288,0.0044213831424713135
1761311194753790500,2.46379052734375,0.002685546875,0.005032248795032501,-0.00017441809177398682
1761311194772403200,2.4824033203125,0.004868507385253906,-0.01141657680273056,0.0045859962701797485
1761311194791014700,2.5010146484375,-0.004595756530761719,-0.01081065833568573,0.002300173044204712
1761311194809627400,2.51962744140625,0.004855155944824219,-0.01507795974612236,-0.00011593103408813477
1761311194828238800,2.53823876953125,0.004769325256347656,-0.0028615370392799377,0.00948360562324524
1761311194846851800,2.556851806640625,0.0046062469482421875,0.013636022806167603,0.0023424923419952393
1761311194865463000,2.575463134765625,-0.0002574920654296875,0.013073988258838654,0.004838287830352783
1761311194884076000,2.594075927734375,0.0021028518676757812,0.010463409125804901,0.002408817410469055
1761311194902687200,2.612687255859375,0.0020322799682617188,0.0008595287799835205,0.007090061902999878
1761311194921300200,2.63130029296875,0.00902557373046875,-0.01074410229921341,0.002272486686706543
1761311194939911400,2.649911376953125,0.0016994476318359375,-0.012648127973079681,0.007030487060546875
1761311194958524400,2.6685244140625,0.015649795532226562,-0.005159884691238403,0.011536508798599243
1761311194977135600,2.687135498046875,-0.005859375,0.0018653720617294312,0.00428086519241333
1761311194995748600,2.70574853515625,0.015323638916015625,0.01118519902229309,0.006580367684364319
1761311195014359800,2.72435986328125,-0.0062160491943359375,0.013169430196285248,0.004133403301239014
1761311195032972800,2.742972900390625,0.0010900497436523438,0.008108347654342651,-0.007722571492195129
1761311195051584000,2.761583984375,0.0010118484497070312,-0.0014982223510742188,0.002034991979598999
1761311195070197000,2.780197021484375,-0.008481979370117188,-0.010739274322986603,0.004478856921195984
1761311195088808200,2.79880810546875,-0.0011425018310546875,-0.005728885531425476,-0.00017614662647247314
1761311195107421000,2.8174208984375,0.001247406005859375,-0.010224714875221252,0.009293660521507263
1761311195126032100,2.8360322265625,-0.0035066604614257812,0.004147157073020935,0.00916542112827301
1761311195144645000,2.85464501953125,-0.0009622573852539062,0.008662022650241852,0.006767943501472473
1761311195163256300,2.87325634765625,-0.007956504821777344,0.006100691854953766,-0.0026693642139434814
1761311195181869300,2.891869384765625,0.0016412734985351562,0.0036478564143180847,0.011644542217254639
1761311195200480500,2.91048046875,-0.010031700134277344,-0.005767650902271271,0.006729736924171448
1761311195219093500,2.929093505859375,-0.00044155120849609375,-0.010105259716510773,0.0019470453262329102
1761311195237704700,2.94770458984375,-0.00046825408935546875,-0.014488060027360916,0.001928955316543579
1761311195256317700,2.966317626953125,0.0019397735595703125,-0.009467102587223053,0.0019899755716323853
1761311195274929000,2.984928955078125,0.0042266845703125,0.014270804822444916,-0.0002660006284713745
1761311195293542000,3.0035419921875,-0.0006256103515625,0.01845332235097885,0.0022773295640945435
1761311195312153000,3.022153076171875,-0.005234718322753906,0.013181537389755249,0.002310022711753845
1761311195330766000,3.04076611328125,0.006587982177734375,0.0011315643787384033,0.000043451786041259766
1761311195349377300,3.059377197265625,0.004015922546386719,-0.012850895524024963,0.000032275915145874023
1761311195367990300,3.077990234375,0.00615692138671875,-0.01946643739938736,0.009439200162887573
1761311195386601500,3.0966015625,-0.001071929931640625,-0.016367103904485703,0.009330406785011292
1761311195405214500,3.11521435546875,0.008298873901367188,0.002987101674079895,-0.0025858134031295776
1761311195423826000,3.133825927734375,-0.0013189315795898438,0.009952828288078308,0.000034227967262268066
1761311195442438700,3.152438720703125,0.0011167526245117188,0.01433522254228592,0.0047309547662734985
1761311195461049900,3.1710498046875,-0.00366973876953125,0.006898343563079834,0.000013843178749084473
1761311195479662800,3.189662841796875,0.00119781494140625,0.0020975470542907715,0.004712149500846863
1761311195498274300,3.2082744140625,0.005707740783691406,-0.00493042916059494,0.002326101064682007
1761311195516887000,3.226886962890625,-0.008411407470703125,-0.0070961713790893555,0.004688099026679993
1761311195535498200,3.245498291015625,-0.003467559814453125,-0.0068788081407547,0.002398446202278137
1761311195554111200,3.264111328125,-0.0056304931640625,0.0026405230164527893,0.007151484489440918
1761311195572722700,3.28272265625,0.0038900375366210938,0.01423083245754242,0.00470106303691864
1761311195591335400,3.30133544921875,-0.0009098052978515625,0.009115591645240784,0.002355054020881653
1761311195609947000,3.31994677734375,-0.0125732421875,0.001798480749130249,0.004677250981330872
1761311195628559600,3.3385595703125,0.0065135955810546875,-0.01209266483783722,0.011630654335021973
1761311195647171000,3.357171142578125,0.0086517333984375,-0.016415100544691086,0.006740182638168335
1761311195665783800,3.37578369140625,0.0036945343017578125,-0.013495106250047684,-0.0027904659509658813
1761311195684395300,3.394395263671875,0.0058441162109375,-0.003537200391292572,0.002134963870048523
1761311195703008000,3.413008056640625,0.0033359527587890625,0.01759450137615204,0.0021341145038604736
1761311195721619500,3.431619384765625,-0.0013704299926757812,0.014792971312999725,0.0022433996200561523
1761311195740232200,3.450232177734375,-0.001407623291015625,0.014271169900894165,0.006979018449783325
1761311195758843600,3.46884375,-0.0013647079467773438,0.009155750274658203,0.0046525150537490845
1761311195777456400,3.487456298828125,0.0010728836059570312,-0.0027747005224227905,-0.00008574128150939941
1761311195796067800,3.50606787109375,-0.0013580322265625,-0.007234849035739899,-0.000029534101486206055
1761311195814680600,3.5246806640625,-0.001354217529296875,-0.007047571241855621,0.007079064846038818
1761311195833292000,3.5432919921875,0.010458946228027344,0.0003115236759185791,0.0023562759160995483
1761311195851904800,3.56190478515625,-0.006213188171386719,0.0050507038831710815,0.0023625940084457397
1761311195870516200,3.58051611328125,-0.006008148193359375,0.009497597813606262,0.00011773407459259033
1761311195889129000,3.59912890625,-0.00118255615234375,0.0022608116269111633,0.0025932341814041138
1761311195907740400,3.617740478515625,-0.0034990310668945312,0.011548727750778198,-0.00207655131816864
1761311195926353200,3.636353271484375,-0.008016586303710938,0.004191569983959198,0.002762705087661743
1761311195944964600,3.654964599609375,-0.005401611328125,-0.002891160547733307,0.002929672598838806
1761311195963577300,3.673577392578125,0.008665084838867188,-0.0050873830914497375,0.014532387256622314
1761311195991495700,3.70149560546875,-0.0055408477783203125,-0.0003425031900405884,0.0005159229040145874
1761311196019413000,3.7294130859375,-0.012293815612792969,0.0020505785942077637,0.0029335469007492065
1761311196038025700,3.748025634765625,0.0021581649780273438,0.011344291269779205,-0.0017638057470321655
1761311196056637200,3.76663720703125,-0.0026645660400390625,-0.0006821379065513611,0.0030879825353622437
1761311196075250000,3.78525,0.004482269287109375,0.004129335284233093,0.007794782519340515
1761311196093861400,3.803861328125,-0.005042076110839844,-0.005265168845653534,0.002880305051803589
1761311196112474000,3.82247412109375,-0.004836082458496094,-0.002656400203704834,0.0028773248195648193
1761311196131085600,3.84108544921875,-0.0024013519287109375,-0.002677604556083679,0.0027725696563720703
1761311196149698300,3.8596982421875,0.004740715026855469,-0.004838213324546814,0.00975683331489563
1761311196168309800,3.878309814453125,0.0067768096923828125,-0.00458119809627533,0.0072595179080963135
1761311196186922500,3.896922607421875,0.0043125152587890625,0.00261581689119339,0.00955452024936676
1761311196205534000,3.915533935546875,-0.0028162002563476562,0.0072228386998176575,0.000024721026420593262
1761311196224146700,3.934146728515625,-0.00029277801513671875,0.0046909525990486145,0.00013276934623718262
1761311196242758100,3.952758056640625,0.0019884109497070312,0.0022206827998161316,0.004939049482345581
1761311196261371000,3.971370849609375,-0.005103111267089844,0.0045572444796562195,0.004806250333786011
1761311196279982300,3.989982421875,0.0020856857299804688,-0.002516038715839386,0.0071646422147750854
1761311196298595000,4.008594970703125,0.009081840515136719,-0.00939495861530304,0.0021775662899017334
1761311196317206500,4.02720654296875,-0.000640869140625,0.00038929283618927,-0.004754200577735901
1761311196335819300,4.0458193359375,-0.0005445480346679688,0.007494784891605377,0.0025903284549713135
1761311196354430700,4.0644306640625,-0.0030012130737304688,0.007065996527671814,0.007393434643745422
1761311196373043500,4.08304345703125,-0.007418632507324219,0.00459686666727066,0.0026994794607162476
1761311196391655000,4.101655029296875,0.0044765472412109375,0.004524067044258118,0.000341564416885376
1761311196410268000,4.120267822265625,0.011349678039550781,0.004453711211681366,-0.0018991827964782715
1761311196428879000,4.138879150390625,-0.000759124755859375,0.004370041191577911,0.01224033534526825
1761311196447491800,4.157491943359375,0.003894805908203125,-0.002735346555709839,0.009645551443099976
1761311196466103300,4.176103271484375,-0.0031805038452148438,-0.00017327070236206055,0.007080525159835815
1761311196484716300,4.19471630859375,-0.0030765533447265625,-0.0024794936180114746,0.006875157356262207
1761311196503327500,4.213327392578125,0.0040454864501953125,0.007058039307594299,0.0020647048950195312
1761311196521940200,4.231940185546875,0.001556396484375,0.0068063884973526,0.009051114320755005
1761311196540551700,4.2505517578125,-0.003204345703125,-0.0003235265612602234,0.0065291523933410645
1761311196559164700,4.26916455078125,0.0038814544677734375,-0.00036147236824035645,0.011100620031356812
1761311196577775900,4.28777587890625,-0.005471229553222656,-0.0050370097160339355,0.006246134638786316
1761311196596388600,4.306388671875,0.0016078948974609375,-0.0023225918412208557,0.0063526928424835205
1761311196615000000,4.325,-0.0007219314575195312,0.00022449344396591187,-0.0009445548057556152
1761311196633613000,4.343613037109375,0.0038909912109375,0.00020218640565872192,-0.0006712675094604492
1761311196652224300,4.362224365234375,-0.003299713134765625,0.009596258401870728,-0.0006746053695678711
1761311196670837000,4.3808369140625,-0.0008373260498046875,-0.004593946039676666,0.003990918397903442
1761311196689448400,4.399448486328125,-0.007756233215332031,0.004826448857784271,0.0016679614782333374
1761311196708061400,4.4180615234375,0.0040740966796875,-0.0022928565740585327,0.011058717966079712
1761311196726672600,4.436672607421875,0.003937721252441406,-0.00219157338142395,0.0038329660892486572
1761311196745285400,4.455285400390625,-0.0031795501708984375,-0.009079128503799438,0.003925338387489319
1761311196763896800,4.473896728515625,-0.003116607666015625,0.00526747852563858,0.010904461145401001
1761311196782509800,4.492509765625,-0.00760650634765625,0.0050773173570632935,0.012983739376068115
1761311196801121000,4.51112109375,-0.0050449371337890625,0.014422446489334106,0.008160024881362915
1761311196819733800,4.529733642578125,-0.009550094604492188,0.004499360918998718,0.0010851621627807617
1761311196838345200,4.54834521484375,-0.004569053649902344,-0.002593524754047394,-0.0011241436004638672
1761311196856958200,4.566958251953125,0.004958152770996094,-0.014153514057397842,0.006043925881385803
1761311196875569400,4.5855693359375,0.000240325927734375,0.002686813473701477,-0.0010547637939453125
1761311196894182100,4.60418212890625,0.0048198699951171875,0.00028395652770996094,-0.0009357184171676636
1761311196912793600,4.622793701171875,-0.00004863739013671875,0.009581245481967926,0.0015186965465545654
1761311196931406600,4.641406494140625,-0.0000476837158203125,0.011722691357135773,-0.003093510866165161
1761311196950017800,4.660017822265625,-0.0000457763671875,0.006649978458881378,-0.0030167847871780396
1761311196968630800,4.678630859375,-0.0000820159912109375,0.006413191556930542,0.004009872674942017
1761311196987242000,4.697241943359375,0.004703521728515625,0.003927350044250488,0.0017426609992980957
1761311197005855000,4.71585498046875,-0.00949859619140625,-0.008005328476428986,0.004029527306556702
1761311197024466200,4.734466064453125,0.004820823669433594,0.0017575547099113464,0.003987640142440796
1761311197043079200,4.7530791015625,0.0023822784423828125,0.006412215530872345,-0.0006744414567947388
1761311197061690400,4.7716904296875,-0.009471893310546875,0.008540704846382141,-0.0004722774028778076
1761311197080303400,4.790303466796875,0.00484466552734375,0.005930818617343903,-0.00031737983226776123
1761311197098914600,4.80891455078125,-0.004654884338378906,0.005664817988872528,0.0021323710680007935
1761311197117527600,4.827527587890625,0.00020313262939453125,-0.0037804096937179565,0.006895497441291809
1761311197136138800,4.846138671875,-0.004553794860839844,-0.005905702710151672,0.0021773427724838257
1761311197154751700,4.864751708984375,0.0026178359985351562,0.0012607946991920471,0.004488229751586914
1761311197173363000,4.883363037109375,0.01422119140625,-0.005627341568470001,-0.0025366246700286865
1761311197191976000,4.901975830078125,-0.0072841644287109375,0.00863085687160492,0.0023962706327438354
1761311197210587100,4.920587158203125,-0.00002288818359375,0.008371032774448395,0.009425058960914612
1761311197229200100,4.9392001953125,-0.004693031311035156,0.010457240045070648,0.0022140592336654663
1761311197247811300,4.957811279296875,-0.004498481750488281,0.007740184664726257,-0.004868373274803162
1761311197266424300,4.97642431640625,-0.0020360946655273438,-0.006442613899707794,0.0069978684186935425
1761311197285035500,4.995035400390625,0.00030612945556640625,-0.010913513600826263,-0.0026383697986602783
1761311197303648500,5.0136484375,0.000331878662109375,0.003462277352809906,0.007045924663543701
1761311197322259700,5.032259765625,0.0026330947875976562,0.005577214062213898,0.009307816624641418
1761311197340872700,5.050872802734375,0.00026798248291015625,0.005364403128623962,-0.00017549097537994385
1761311197359484000,5.06948388671875,-0.0021390914916992188,0.005264192819595337,0.01394045352935791
1761311197378097000,5.088096923828125,0.007306098937988281,-0.0019818097352981567,0.006714582443237305
1761311197396708000,5.1067080078125,0.002315521240234375,-0.004287689924240112,-0.0004055500030517578
1761311197415321000,5.125321044921875,-0.00003910064697265625,-0.011146113276481628,0.004401728510856628
1761311197433932300,5.143932373046875,-0.00243377685546875,0.0032385140657424927,0.011380940675735474
1761311197452545300,5.162545166015625,-0.006989479064941406,0.0008577927947044373,0.004255577921867371
1761311197471156500,5.181156494140625,0.00022411346435546875,0.005465790629386902,0.00653877854347229
1761311197489769500,5.19976953125,0.0072383880615234375,0.0028822943568229675,-0.0005927383899688721
1761311197508380700,5.218380615234375,-0.004696846008300781,0.005182318389415741,0.0018436163663864136
1761311197526993700,5.23699365234375,-0.009173393249511719,0.002809181809425354,-0.0051886290311813354
1761311197545604900,5.25560498046875,0.00042819976806640625,0.00037197768688201904,0.0019793957471847534
1761311197564217900,5.2742177734375,-0.011240959167480469,-0.008762486279010773,-0.0003326237201690674
1761311197582829000,5.2928291015625,-0.003926277160644531,-0.006077378988265991,0.0067303478717803955
1761311197601442000,5.311442138671875,-0.00376129150390625,0.0011709779500961304,-0.004964679479598999
1761311197620053200,5.33005322265625,-0.010701179504394531,0.012850247323513031,-0.004676699638366699
1761311197638666200,5.348666259765625,0.0060520172119140625,0.007741391658782959,0.004829466342926025
1761311197657277400,5.36727734375,0.0034942626953125,0.005307011306285858,0.007147878408432007
1761311197675890400,5.385890380859375,-0.0035715103149414062,0.0005014389753341675,0.0024231523275375366
1761311197694501600,5.404501708984375,0.0034513473510742188,0.0027860626578330994,0.004647389054298401
1761311197713114600,5.423114501953125,-0.00133514404296875,-0.0041547492146492004,0.004618048667907715
1761311197731725800,5.441725830078125,0.0034923553466796875,-0.008510828018188477,0.011691063642501831
1761311197759644000,5.469643798828125,0.0034351348876953125,-0.0012512058019638062,-0.00035087764263153076
1761311197778257000,5.4882568359375,-0.006138801574707031,0.010490238666534424,0.002115800976753235
1761311197796868000,5.5068681640625,-0.0012302398681640625,0.005570456385612488,-0.00016063451766967773
1761311197815481000,5.525481201171875,0.00579071044921875,0.0007582604885101318,-0.00009274482727050781
1761311197834092300,5.54409228515625,0.005558013916015625,-0.00848764181137085,0.002412647008895874
1761311197852705300,5.562705322265625,-0.0038471221923828125,0.00107593834400177,0.004717528820037842
1761311197871316500,5.58131640625,0.010285377502441406,-0.0010439902544021606,-0.00011679530143737793
1761311197889929500,5.599929443359375,0.0005235671997070312,0.001361250877380371,0.007113620638847351
1761311197908541000,5.618541015625,-0.004084587097167969,0.008425652980804443,0.0000019371509552001953
1761311197927153700,5.637153564453125,0.0007162094116210938,0.010543569922447205,0.0071098655462265015
1761311197945764900,5.655764892578125,0.0029277801513671875,0.010178066790103912,-0.00003960728645324707
1761311197964377900,5.6743779296875,-0.006468772888183594,-0.006698772311210632,-0.0023810863494873047
1761311197982989300,5.6929892578125,-0.003978729248046875,-0.004042640328407288,0.00006555020809173584
1761311198001602000,5.71160205078125,-0.015423774719238281,-0.013166800141334534,0.0023911595344543457
1761311198020213200,5.730213134765625,-0.000946044921875,0.0036691054701805115,0.013979047536849976
1761311198038826200,5.748826171875,0.0060672760009765625,0.0011865198612213135,-0.0073890239000320435
1761311198057437700,5.767437744140625,-0.008220672607421875,0.003397822380065918,0.009341597557067871
1761311198076050400,5.786050537109375,-0.0054798126220703125,0.007845476269721985,0.0021337419748306274
1761311198094662000,5.804661865234375,0.003996849060058594,0.01002085953950882,0.002148732542991638
1761311198113274600,5.823274658203125,-0.0032415390014648438,0.0004889369010925293,0.0022178590297698975
1761311198131886000,5.841885986328125,-0.005373954772949219,-0.00419432669878006,-0.00012505054473876953
1761311198150498800,5.860498779296875,-0.0075511932373046875,-0.0016379356384277344,0.004655763506889343
1761311198169110300,5.8791103515625,-0.002635955810546875,0.005480639636516571,0.004721343517303467
1761311198187723000,5.897722900390625,-0.0049457550048828125,-0.0016445145010948181,-0.002412274479866028
1761311198206334500,5.91633447265625,0.000041961669921875,0.005458660423755646,-0.0020910054445266724
1761311198224947200,5.934947265625,-0.004711151123046875,0.0005392953753471375,0.007416829466819763
1761311198243558700,5.95355859375,-0.004557609558105469,0.005120657384395599,0.0027052462100982666
1761311198262171400,5.97217138671875,-0.006722450256347656,0.00038617849349975586,0.00490434467792511
1761311198280782800,5.990782958984375,-0.004225730895996094,0.002562418580055237,0.0024563223123550415
1761311198299395600,6.0093955078125,-0.008753776550292969,-0.004537113010883331,-0.002280816435813904
1761311198318007000,6.028007080078125,-0.0037984848022460938,0.004961937665939331,0.009611397981643677
1761311198336619800,6.046619873046875,-0.0058727264404296875,0.00012966245412826538,0.00011889636516571045
1761311198355231200,6.065231201171875,-0.012705802917480469,0.002466931939125061,0.00726260244846344
1761311198373844000,6.083843994140625,-0.007697105407714844,0.0001676604151725769,0.009422063827514648
1761311198392455400,6.102455322265625,-0.0027761459350585938,0.00017064809799194336,0.0022115111351013184
1761311198411068200,6.121068115234375,-0.004962921142578125,0.004932530224323273,0.004599243402481079
1761311198429679600,6.1396796875,-0.0001735687255859375,0.009557031095027924,0.0045484453439712524
1761311198448292400,6.158292236328125,0.0045337677001953125,0.006928198039531708,-0.004666179418563843
1761311198466903800,6.17690380859375,-0.000209808349609375,-0.00016429275274276733,0.012029469013214111
1761311198485516800,6.195516845703125,-0.0072650909423828125,-0.0025279968976974487,0.0023067444562911987
1761311198504128000,6.2141279296875,-0.0047550201416015625,-0.006996139883995056,0.004781126976013184
1761311198522741000,6.232740966796875,-0.0022478103637695312,-0.011370472609996796,0.007157489657402039
1761311198541352200,6.251352294921875,-0.00209808349609375,0.005368858575820923,0.000021785497665405273
1761311198559965200,6.269965087890625,-0.0044231414794921875,0.007642798125743866,0.014080539345741272
1761311198578576400,6.288576416015625,-0.013617515563964844,0.0073731765151023865,0.011330515146255493
1761311198606495200,6.3164951171875,-0.0013799667358398438,0.007198899984359741,0.008808344602584839
1761311198625106700,6.335106689453125,-0.0013780593872070312,-0.004895545542240143,0.006436020135879517
1761311198643719400,6.353719482421875,-0.0037279129028320312,-0.014119476079940796,-0.0029898732900619507
1761311198662331000,6.372330810546875,-0.005764007568359375,-0.00419490784406662,0.008853927254676819
1761311198680943600,6.390943603515625,0.0059604644775390625,-0.0040330663323402405,-0.0007083415985107422
1761311198699555000,6.40955517578125,-0.0034999847412109375,0.010035701096057892,0.0018097013235092163
1761311198718168000,6.42816796875,0.003559112548828125,0.012122638523578644,-0.0028501003980636597
1761311198736779300,6.446779296875,-0.00582122802734375,-0.0022621601819992065,0.006745874881744385
1761311198755392300,6.465392333984375,-0.0056304931640625,0.00018884986639022827,0.006569504737854004
1761311198774003500,6.48400341796875,0.0015783309936523438,-0.0022043734788894653,-0.002878040075302124
1761311198792616400,6.502616455078125,0.0014867782592773438,-0.006737112998962402,0.015923678874969482
1761311198811227600,6.5212275390625,-0.012613296508789062,-0.001875750720500946,-0.0007855445146560669
1761311198829840600,6.539840576171875,-0.0004711151123046875,0.005235075950622559,0.004277840256690979
1761311198848451800,6.558451904296875,0.0018548965454101562,0.012179352343082428,-0.0004315376281738281
1761311198867064800,6.57706494140625,-0.0005245208740234375,0.011818937957286835,0.006791606545448303
1761311198885676000,6.595676025390625,-0.0029020309448242188,-0.00018376857042312622,0.008832171559333801
1761311198904289000,6.6142890625,0.008922576904296875,-0.00002008676528930664,0.0017200112342834473
1761311198922900200,6.632900146484375,-0.0030660629272460938,-0.0023481473326683044,-0.002938196063041687
1761311198941513200,6.65151318359375,-0.014617919921875,-0.009271837770938873,-0.0027877390384674072
1761311198960124700,6.670124755859375,0.0022249221801757812,-0.008917592465877533,-0.00017793476581573486
1761311198978737400,6.6887373046875,0.006817817687988281,-0.0015224069356918335,0.002134472131729126
1761311198997348900,6.707348876953125,-0.0003147125244140625,0.007931873202323914,-0.0025365054607391357
1761311199015961600,6.725961669921875,-0.009645462036132812,0.0006695017218589783,0.004695340991020203
1761311199034573000,6.744572998046875,-0.006972312927246094,0.00761771947145462,0.004663899540901184
1761311199053185800,6.763185791015625,-0.004429817199707031,0.0027199238538742065,-0.000035703182220458984
1761311199071797200,6.78179736328125,0.00030612945556640625,-0.0042916834354400635,0.00941169261932373
1761311199090410000,6.800409912109375,0.00037288665771484375,-0.006575100123882294,-0.0001690387725830078
1761311199109021400,6.819021484375,-0.0019941329956054688,-0.006295345723628998,-0.0024647563695907593
1761311199127634200,6.83763427734375,-0.0066356658935546875,0.00321921706199646,0.0022210776805877686
1761311199146245600,6.85624560546875,0.0005645751953125,0.007823005318641663,0.0022560805082321167
1761311199164858600,6.874858642578125,-0.0041637420654296875,0.005290694534778595,-0.0024581551551818848
1761311199183469800,6.8934697265625,-0.008622169494628906,0.0027859359979629517,0.0071807801723480225
1761311199202082800,6.912082763671875,-0.0037488937377929688,-0.001948714256286621,0.0072002410888671875
1761311199220694000,6.930694091796875,-0.0012722015380859375,0.005139701068401337,0.004598245024681091
1761311199239307000,6.94930712890625,0.0010843276977539062,0.0050322189927101135,0.009207531809806824
1761311199257918500,6.96791845703125,-0.0059356689453125,0.004983305931091309,0.011247575283050537
1761311199276531200,6.98653125,-0.005782127380371094,0.00018952041864395142,0.008779272437095642
1761311199295142700,7.005142578125,-0.0031595230102539062,-0.011391833424568176,0.006148532032966614
1761311199313755400,7.02375537109375,-0.005448341369628906,-0.004047185182571411,0.005998164415359497
1761311199332366800,7.042366943359375,-0.0029582977294921875,-0.0039048343896865845,0.005956560373306274
1761311199350979600,7.0609794921875,0.0018453598022460938,0.005627267062664032,0.005922645330429077
1761311199369591000,7.079591064453125,-0.014619827270507812,0.000814296305179596,0.003496423363685608
1761311199388203800,7.098203857421875,-0.00232696533203125,0.0007715597748756409,-0.0013143271207809448
1761311199406815200,7.116815185546875,-0.002288818359375,0.003162674605846405,0.003489464521408081
1761311199425428200,7.13542822265625,0.004809379577636719,-0.0014924407005310059,0.00342656672000885
1761311199444039400,7.154039306640625,-0.0023355484008789062,-0.0014399588108062744,0.008066534996032715
1761311199462652400,7.17265234375,-0.004651069641113281,0.007971450686454773,-0.003919064998626709
1761311199481263600,7.191263671875,0.0048370361328125,-0.003844805061817169,-0.0011758655309677124
1761311199499876600,7.209876708984375,0.0023984909057617188,0.007976807653903961,0.0012074559926986694
1761311199518488000,7.228488037109375,-0.0023908615112304688,0.012313507497310638,0.008314639329910278
1761311199537100800,7.247100830078125,0.004668235778808594,0.007206663489341736,0.003590002655982971
1761311199555712300,7.265712158203125,0.0068645477294921875,0.009403124451637268,0.0012016445398330688
1761311199574325000,7.284324951171875,-0.005097389221191406,-0.011817887425422668,0.0013406872749328613
1761311199592936400,7.3029365234375,-0.00018310546875,-0.011387161910533905,0.013040393590927124
1761311199611549200,7.321549072265625,-0.0001773834228515625,0.0006490051746368408,-0.008368581533432007
1761311199630160600,7.34016064453125,0.009127616882324219,0.005360260605812073,0.005967050790786743
1761311199648773600,7.358773681640625,-0.0028667449951171875,0.0028532221913337708,0.00811469554901123
1761311199667384800,7.377384765625,-0.012111663818359375,0.005003035068511963,0.005600675940513611
1761311199685997800,7.395997802734375,-0.00002193450927734375,0.004918158054351807,0.0033027976751327515
1761311199704609000,7.414609130859375,-0.009441375732421875,0.0024985745549201965,0.0009464621543884277
1761311199723222000,7.433221923828125,0.004952430725097656,0.0025735795497894287,0.003370523452758789
1761311199741833500,7.45183349609375,0.00011730194091796875,-0.0022122785449028015,0.005658999085426331
1761311199760446200,7.4704462890625,0.00015163421630859375,-0.006955310702323914,0.0009093880653381348
1761311199779057700,7.4890576171875,0.00006961822509765625,-0.0019522905349731445,-0.006186246871948242
1761311199797670400,7.50767041015625,0.0046939849853515625,0.0003978833556175232,0.0035741180181503296
1761311199816281900,7.52628173828125,0.0022993087768554688,0.0025749802589416504,-0.001089438796043396
1761311199834894800,7.544894775390625,-0.0071563720703125,0.0026689544320106506,0.010611310601234436
1761311199853506000,7.563506103515625,-0.009275436401367188,0.00010067224502563477,0.005637109279632568
1761311199872119000,7.582119140625,-0.0019073486328125,0.00493873655796051,0.0031498968601226807
1761311199890730500,7.60073046875,-0.0018854141235351562,0.00006887316703796387,-0.0038858801126480103
1761311199909343200,7.61934326171875,-0.0065326690673828125,-0.0021859407424926758,0.005555301904678345
1761311199927954700,7.63795458984375,-0.0016489028930664062,-0.0043492913246154785,0.003165110945701599
1761311199946567400,7.6565673828125,0.00075531005859375,0.0028209835290908813,0.007830396294593811
1761311199965179000,7.675178955078125,0.0053577423095703125,-0.004135496914386749,-0.0017219185829162598
1761311199983791900,7.6937919921875,-0.008790969848632812,0.000599302351474762,0.0009472966194152832
1761311200002403000,7.712403076171875,-0.0038328170776367188,0.016999125480651855,0.0009837597608566284
1761311200021016000,7.73101611328125,0.003276824951171875,0.007121153175830841,0.007814601063728333
1761311200039627300,7.749627197265625,-0.008523941040039062,0.0023036375641822815,-0.006398722529411316
1761311200058240300,7.768240234375,0.0010957717895507812,-0.0024006515741348267,-0.0013871043920516968
1761311200076851700,7.786851806640625,0.0034112930297851562,0.00019165128469467163,0.0009634494781494141
1761311200095464400,7.80546435546875,0.0056896209716796875,-0.006740868091583252,0.0009994059801101685
1761311200114076000,7.824075927734375,-0.001522064208984375,0.0030340179800987244,0.00786946713924408
1761311200132688600,7.842688720703125,0.007826805114746094,-0.004026055335998535,0.0006384551525115967
1761311200151300000,7.861300048828125,0.009920120239257812,0.0006828159093856812,0.005410671234130859
1761311200169913000,7.8799130859375,0.0026445388793945312,0.007802203297615051,0.007710188627243042
1761311200188524300,7.898524169921875,-0.0044269561767578125,0.007551908493041992,0.0005796253681182861
1761311200207137300,7.91713720703125,0.000385284423828125,-0.004348047077655792,0.002959921956062317
1761311200225748700,7.935748779296875,0.01202392578125,-0.001826949417591095,0.0006717294454574585
1761311200244361500,7.954361572265625,-0.0024204254150390625,0.0005558207631111145,-0.0016359984874725342
1761311200262973000,7.972972900390625,0.009310722351074219,0.0029326975345611572,0.005510583519935608
1761311200281585700,7.991585693359375,-0.00033664703369140625,-0.006398603320121765,-0.0039253830909729
1761311200300197000,8.010197021484375,0.0020284652709960938,0.0030803754925727844,-0.0038225650787353516
1761311200318810000,8.02881005859375,0.011300086975097656,0.00752277672290802,0.0033963173627853394
1761311200337421300,8.04742138671875,-0.0007295608520507812,0.009668424725532532,0.008116617798805237
1761311200356034300,8.066034423828125,-0.0030241012573242188,-0.0022643283009529114,0.0010051131248474121
1761311200374645800,8.084645751953126,0.0017032623291015625,-0.006928548216819763,0.00811941921710968
1761311200393258500,8.103258544921875,0.0017242431640625,-0.004376932978630066,0.00560431182384491
1761311200411870000,8.121869873046874,0.00872802734375,-0.006632678210735321,0.003188610076904297
1761311200430482700,8.140482666015625,0.0013370513916015625,-0.0064821988344192505,0.0008752942085266113
1761311200449094100,8.15909423828125,-0.005576133728027344,0.0053927600383758545,0.003302633762359619
1761311200467707100,8.17770703125,0.006259918212890625,0.0052007511258125305,0.01263880729675293
1761311200486318300,8.196318359375,-0.0009326934814453125,0.005132801830768585,0.005321428179740906
1761311200504931300,8.214931396484374,-0.0032968521118164062,-0.00205259770154953,-0.0041069090366363525
1761311200523542800,8.233542724609375,0.0039119720458984375,-0.0021094530820846558,0.010144293308258057
1761311200542155500,8.252155517578124,-0.005596160888671875,-0.004424363374710083,-0.004035502672195435
1761311200560767000,8.27076708984375,-0.0007457733154296875,-0.006434313952922821,0.0008520036935806274
1761311200579379700,8.289379638671875,0.0015134811401367188,0.0008058249950408936,0.003245428204536438
1761311200597991200,8.3079912109375,0.0038166046142578125,0.0032540559768676758,0.0008526891469955444
1761311200616604200,8.326604248046875,-0.00333404541015625,0.003092348575592041,-0.0014614462852478027
1761311200635215600,8.345215576171874,0.0014400482177734375,-0.00168696790933609,0.001137465238571167
1761311200653828400,8.363828369140625,0.0037841796875,-0.008721031248569489,0.0012777745723724365
1761311200681746700,8.39174658203125,-0.007784843444824219,-0.0013479962944984436,0.0034878402948379517
1761311200700358000,8.41035791015625,0.004126548767089844,0.005672529339790344,0.005835145711898804
1761311200718971000,8.428970947265626,0.00167083740234375,0.000855959951877594,-0.0011626482009887695
1761311200737582300,8.447582275390625,0.0062427520751953125,-0.00843152403831482,-0.0034322887659072876
1761311200756195000,8.466195068359376,0.006031036376953125,0.0035798028111457825,-0.0030434876680374146
1761311200774806500,8.484806640625,0.0011968612670898438,0.003582090139389038,0.00422002375125885
1761311200793419500,8.50341943359375,-0.008185386657714844,0.003392823040485382,0.004259765148162842
1761311200812030700,8.52203076171875,0.00377655029296875,0.005621090531349182,0.006557658314704895
1761311200830643700,8.540643798828125,-0.0032939910888671875,-0.0016332194209098816,-0.002835780382156372
1761311200849255000,8.5592548828125,-0.0008344650268554688,-0.003852948546409607,0.006720945239067078
1761311200867868000,8.577867919921875,0.006255149841308594,0.0008749887347221375,0.008920356631278992
1761311200886479400,8.596479248046874,-0.005721092224121094,-0.008428692817687988,-0.003093034029006958
1761311200905092000,8.615092041015625,-0.0031423568725585938,-0.010399207472801208,-0.012071341276168823
1761311200923703600,8.63370361328125,-0.0006875991821289062,-0.0007534623146057129,0.0047738999128341675
1761311200942316500,8.652316650390626,-0.0007467269897460938,0.011137343943119049,0.011708110570907593
1761311200960927700,8.670927734375,-0.0007257461547851562,0.0107969269156456,-0.00015333294868469238
1761311200979540700,8.689540771484374,0.001689910888671875,0.005663983523845673,0.0023685097694396973
1761311200998152000,8.70815185546875,0.0015916824340820312,0.005637757480144501,0.002430260181427002
1761311201016765000,8.726764892578124,0.001575469970703125,-0.004011653363704681,0.009552031755447388
1761311201035376400,8.74537646484375,0.0014810562133789062,0.0010027065873146057,0.006967470049858093
1761311201053989400,8.7639892578125,0.00841522216796875,0.005664199590682983,-0.004903331398963928
1761311201072600600,8.7826005859375,0.010527610778808594,0.010170437395572662,0.0001071244478225708
1761311201091213600,8.801213623046875,-0.0015163421630859375,0.0075075700879096985,0.005029544234275818
1761311201109824800,8.81982470703125,0.007828712463378906,0.0002201870083808899,0.004965871572494507
1761311201128437800,8.838437744140625,0.007564544677734375,0.0072998180985450745,0.007351860404014587
1761311201147049200,8.85704931640625,0.0026454925537109375,-0.002195000648498535,0.0071203261613845825
1761311201165662000,8.875661865234376,0.004908561706542969,0.00737018883228302,-0.000015050172805786133
1761311201184273400,8.8942734375,-0.00235748291015625,0.00031694769859313965,-0.004670500755310059
1761311201202886400,8.912886474609374,0.004780769348144531,0.005016662180423737,0.0025764107704162598
1761311201221497600,8.93149755859375,-0.0071125030517578125,-0.00199802964925766,0.00496964156627655
1761311201240110600,8.950110595703125,0.00018405914306640625,0.0004072710871696472,0.004779353737831116
1761311201258722000,8.96872216796875,0.0024118423461914062,0.0027017369866371155,0.002446889877319336
1761311201277334800,8.987334716796875,0.0023698806762695312,0.0002834796905517578,0.0001977682113647461
1761311201295946200,9.0059462890625,0.0023670196533203125,0.007392361760139465,0.007204785943031311
1761311201314559200,9.024559326171875,-0.0024213790893554688,0.00948728621006012,0.004775881767272949
1761311201333170400,9.04317041015625,0.0000095367431640625,-0.000043995678424835205,0.004741787910461426
1761311201351783400,9.061783447265626,0.009263992309570312,0.00003658980131149292,0.004859909415245056
1761311201370395000,9.080394775390625,0.0020112991333007812,0.00009778887033462524,0.009453818202018738
1761311201389007600,9.099007568359376,-0.005080223083496094,0.004809416830539703,0.009266898036003113
1761311201407619000,9.117619140625,-0.0024852752685546875,0.004634372889995575,-0.00010287761688232422
1761311201426232000,9.136232177734374,-0.004799842834472656,0.0021893680095672607,0.002355918288230896
1761311201444843300,9.15484326171875,0.009402275085449219,0.006882227957248688,0.0023079663515090942
1761311201463456300,9.173456298828125,-0.0025644302368164062,0.004381008446216583,0.0000012367963790893555
1761311201482067500,9.1920673828125,-0.00016689300537109375,-0.007448732852935791,0.00479455292224884
1761311201500680400,9.210680419921875,-0.0002040863037109375,0.004436776041984558,0.011878818273544312
1761311201519292000,9.2292919921875,-0.0025949478149414062,-0.007152929902076721,0.0022319257259368896
1761311201537905000,9.24790478515625,-0.004828453063964844,-0.004424698650836945,0.0023365020751953125
1761311201556516000,9.26651611328125,-0.0023965835571289062,0.00045768916606903076,0.002437204122543335
1761311201575129000,9.285129150390626,-0.006909370422363281,0.012122422456741333,0.009503334760665894
1761311201593740500,9.303740478515625,-0.004408836364746094,0.009544335305690765,0.0021948963403701782
1761311201612353300,9.322353271484374,0.0051097869873046875,0.0023238584399223328,0.004521757364273071
1761311201630964700,9.34096484375,0.00493621826171875,-0.0024203211069107056,0.002354249358177185
1761311201649577700,9.35957763671875,-0.0022907257080078125,-0.009203575551509857,-0.004796326160430908
1761311201668189000,9.37818896484375,-0.0021753311157226562,-0.011230379343032837,0.00008428096771240234
1761311201686802000,9.396802001953125,0.0001697540283203125,-0.0016300231218338013,-0.002030789852142334
1761311201705413400,9.415413330078126,0.00722503662109375,0.003194853663444519,0.007404610514640808
1761311201724026000,9.434026123046875,-0.0024309158325195312,0.0077996402978897095,0.009487584233283997
1761311201742637600,9.452637451171874,-0.009337425231933594,-0.0016758814454078674,0.004572644829750061
1761311201761250600,9.47125048828125,-0.011423110961914062,0.010058261454105377,-0.0002181529998779297
1761311201779861800,9.48986181640625,0.0007228851318359375,0.00048463791608810425,-0.0024571865797042847
1761311201798474800,9.508474853515626,-0.0016603469848632812,-0.006432734429836273,0.00015710294246673584
1761311201817086200,9.527086181640625,-0.0016088485717773438,-0.0036913901567459106,0.002591058611869812
1761311201835699000,9.545698974609374,0.0054645538330078125,0.0011029019951820374,0.009730592370033264
1761311201854310400,9.564310302734375,0.00064849853515625,0.012895345687866211,0.00021019577980041504
1761311201872923400,9.58292333984375,-0.001728057861328125,0.007865756750106812,0.00511343777179718
1761311201891534600,9.60153466796875,0.0029926300048828125,0.00759308785200119,0.005060970783233643
1761311201910147600,9.620147705078125,0.0006113052368164062,0.002755679190158844,0.005206018686294556
1761311201928759000,9.638759033203126,0.005139350891113281,0.000296570360660553,0.002780050039291382
1761311201947372000,9.6573720703125,0.005007743835449219,0.002743750810623169,0.0075432658195495605
1761311201965983200,9.675983154296874,-0.004497528076171875,-0.004265248775482178,0.002669617533683777
1761311201984596200,9.69459619140625,-0.006667137145996094,0.0006253495812416077,0.00042848289012908936
1761311202003207400,9.71320751953125,0.0004940032958984375,0.0029047206044197083,0.000539436936378479
1761311202021820400,9.7318203125,-0.0065460205078125,0.0005180388689041138,0.00525994598865509
1761311202040431900,9.750431884765625,0.005360603332519531,0.005100131034851074,0.0028953105211257935
1761311202059044600,9.769044677734374,0.0028285980224609375,0.007294267416000366,-0.00180131196975708
1761311202077656000,9.787656005859375,-0.0042133331298828125,0.0047636255621910095,0.003107115626335144
1761311202096269000,9.80626904296875,-0.0018405914306640625,-0.011770248413085938,0.005442187190055847
1761311202114880300,9.82488037109375,0.0005340576171875,-0.002033412456512451,0.0029772669076919556
1761311202133493200,9.8434931640625,-0.0017633438110351562,0.0027441829442977905,0.0007819235324859619
1761311202152104700,9.862104736328124,0.00759124755859375,0.0027348697185516357,0.0031397640705108643
1761311202170717700,9.8807177734375,0.005064964294433594,0.00021823495626449585,0.0006954371929168701
1761311202189329000,9.899328857421875,-0.0020885467529296875,0.004902206361293793,-0.001517459750175476
1761311202207942000,9.91794189453125,0.007312774658203125,0.0001893565058708191,0.008105695247650146
1761311202226553000,9.936552978515625,0.00467681884765625,0.0025593265891075134,0.010262012481689453
1761311202245166000,9.955166015625,-0.004779815673828125,0.00491032749414444,0.0031184256076812744
1761311202263777500,9.973777587890625,-0.0023088455200195312,0.004772305488586426,-0.0015688538551330566
1761311202282390500,9.992390625,-0.011453628540039062,0.00938647985458374,0.000984877347946167
1761311202301001700,10.011001708984375,-0.006484031677246094,-0.0002368837594985962,0.0008870512247085571
1761311202319614700,10.02961474609375,-0.0039577484130859375,-0.0002126246690750122,0.005540534853935242
1761311202338226200,10.04822607421875,-0.006103515625,0.004448629915714264,0.0007573962211608887
1761311202356839000,10.0668388671875,0.001117706298828125,0.0020110979676246643,-0.003773823380470276
1761311202375450400,10.085450439453124,-0.005984306335449219,-0.004960387945175171,-0.00356370210647583
1761311202394063400,10.1040634765625,-0.005749702453613281,0.00452808290719986,-0.001007184386253357
1761311202412674600,10.122674560546875,-0.005560874938964844,-0.00022724270820617676,0.008567065000534058
1761311202431287600,10.14128759765625,0.0016040802001953125,-0.0024396106600761414,0.00372314453125
1761311202449899000,10.15989892578125,0.003864288330078125,-0.00003528594970703125,0.00835372507572174
1761311202468511700,10.17851171875,-0.00328826904296875,0.0023308545351028442,-0.0035083144903182983
1761311202487123200,10.197123291015625,-0.0031423568725585938,0.009222984313964844,0.0037551969289779663
1761311202505736200,10.215736083984375,0.013281822204589844,0.006533369421958923,-0.0032293349504470825
1761311202524347400,10.234347412109376,-0.0034799575805664062,0.003986358642578125,0.0038919001817703247
1761311202542960400,10.25296044921875,-0.0033273696899414062,-0.0008991807699203491,0.0015720278024673462
1761311202561571800,10.27157177734375,-0.0009431838989257812,-0.0031197741627693176,0.003997981548309326
1761311202580184800,10.290184814453125,0.00611114501953125,-0.0030327364802360535,0.008587881922721863
1761311202598796000,10.308796142578124,-0.0011157989501953125,0.0017609745264053345,0.008388921618461609
1761311202617409000,10.327408935546876,0.008336067199707031,0.001673176884651184,0.008235350251197815
1761311202636020200,10.346020263671875,0.010334968566894531,0.0037340670824050903,0.005733519792556763
1761311202654633200,10.36463330078125,0.00536346435546875,0.0012403354048728943,0.005636110901832581
1761311202673244700,10.38324462890625,-0.004113197326660156,-0.0033670514822006226,0.0031245946884155273
1761311202691857700,10.401857666015625,0.005318641662597656,-0.010159805417060852,0.007720813155174255
1761311202710468900,10.42046875,0.000431060791015625,0.0018301457166671753,0.005353301763534546
1761311202729081900,10.439081787109375,0.0028476715087890625,0.004256851971149445,0.0028362423181533813
1761311202747693300,10.457693359375,0.004988670349121094,0.0040865689516067505,0.0074401795864105225
1761311202766306300,10.476306396484375,0.000152587890625,0.006382733583450317,-0.0020357072353363037
1761311202784917500,10.49491748046875,0.00018405914306640625,0.004048213362693787,0.007359206676483154
1761311202803530500,10.513530517578126,0.004847526550292969,0.006239019334316254,0.011916518211364746
1761311202822141700,10.5321416015625,-0.007008552551269531,-0.005785830318927765,0.004656389355659485
1761311202840754700,10.550754638671876,-0.004426002502441406,-0.007750779390335083,0.011727526783943176
1761311202859366100,10.5693662109375,0.012001991271972656,-0.005191102623939514,0.0043442100286483765
1761311202877979100,10.587979248046874,0.004698753356933594,0.004548348486423492,-0.00047110021114349365
1761311202896590300,10.60659033203125,-0.00954437255859375,0.009184598922729492,0.013621538877487183
1761311202915203300,10.625203369140625,0.0047397613525390625,0.011219121515750885,0.0038466304540634155
1761311202933814800,10.643814697265626,-0.004717826843261719,0.003919824957847595,-0.003273516893386841
1761311202952427500,10.662427490234375,0.0070514678955078125,0.0016489103436470032,0.0015405118465423584
1761311202971039000,10.6810390625,-0.007110595703125,-0.007851928472518921,0.010935842990875244
1761311202989652000,10.69965185546875,-0.006838798522949219,-0.007527664303779602,0.0035953521728515625
1761311203008263200,10.71826318359375,0.00040912628173828125,0.001988627016544342,0.0036241263151168823
1761311203026876200,10.736876220703126,0.0026712417602539062,0.0018508657813072205,0.0012188255786895752
1761311203045487600,10.755487548828125,0.000225067138671875,0.006560713052749634,0.003656908869743347
1761311203064100600,10.7741005859375,0.0025701522827148438,0.008739084005355835,0.005919218063354492
1761311203082711800,10.7927119140625,0.00016880035400390625,0.001453489065170288,0.0010441839694976807
1761311203101324800,10.81132470703125,0.004791259765625,0.008453123271465302,0.003605753183364868
1761311203119936000,10.82993603515625,-0.007019996643066406,-0.008165940642356873,0.003555670380592346
1761311203138549000,10.848549072265625,0.0025482177734375,-0.0008092969655990601,0.003428325057029724
1761311203157160400,10.867160400390626,0.0024194717407226562,-0.012434922158718109,0.0035893768072128296
1761311203175773400,10.8857734375,-0.00001621246337890625,0.0019361823797225952,-0.0011694282293319702
1761311203194384600,10.904384521484374,-0.002330780029296875,0.011258259415626526,0.0036300569772720337
1761311203212997600,10.92299755859375,0.0023746490478515625,0.003887094557285309,-0.008136734366416931
1761311203231609000,10.941609130859375,-0.0023756027221679688,0.012969888746738434,0.003949359059333801
1761311203250222000,10.96022216796875,-0.00461578369140625,0.005543284118175507,0.006312519311904907
1761311203268833300,10.978833251953125,-0.0021505355834960938,0.0029918700456619263,-0.003165334463119507
1761311203287446300,10.9974462890625,-0.009067535400390625,-0.008696749806404114,0.004125118255615234
1761311203306057500,11.016057373046875,0.0029249191284179688,-0.006085552275180817,0.001623883843421936
1761311203324670500,11.03467041015625,0.005139350891113281,-0.008252359926700592,0.004182577133178711
1761311203343282000,11.053281982421876,0.0026531219482421875,-0.007931806147098541,0.008798390626907349
1761311203361895000,11.07189501953125,-0.002147674560546875,0.004024691879749298,0.0039783865213394165
1761311203380506000,11.090506103515626,0.00023555755615234375,0.013310454785823822,0.0016556531190872192
1761311203399119000,11.109119140625,0.004935264587402344,0.005951061844825745,0.003944426774978638
1761311203417730600,11.12773046875,0.004769325256347656,-0.003448694944381714,-0.003101855516433716
1761311203436343300,11.14634326171875,0.0023345947265625,-0.005643166601657867,-0.0005204975605010986
1761311203454954800,11.164954833984375,-0.002490997314453125,0.001495644450187683,0.006572917103767395
1761311203473567700,11.183567626953124,-0.0024499893188476562,0.00851082056760788,-0.0005832016468048096
1761311203492179000,11.202178955078125,-0.0022945404052734375,-0.0033412352204322815,0.004205062985420227
1761311203510792000,11.2207919921875,-0.009242057800292969,0.015526331961154938,0.004063054919242859
1761311203529403400,11.2394033203125,-0.001834869384765625,-0.0013242587447166443,0.004076361656188965
