time,seconds_elapsed,z,y,x
1761311192538951400,0.248951416015625,0.0006108472589403391,0.000687203137204051,-0.00015271181473508477
1761311192557562600,0.267562744140625,0.0006108472589403391,0.00007635590736754239,0.0005344913806766272
1761311192576175600,0.286175537109375,0.0012216945178806782,0.000687203137204051,-0.00015271181473508477
1761311192594786800,0.304786865234375,0.0006108472589403391,0.00129805039614439,-0.00015271181473508477
1761311192613399800,0.32339990234375,0.0006108472589403391,0.00129805039614439,-0.0007635590736754239
1761311192632011000,0.342010986328125,0.0006108472589403391,0.000687203137204051,0.0011453386396169662
1761311192650624000,0.3606240234375,0.0012216945178806782,0.00007635590736754239,0.0005344913806766272
1761311192669235200,0.379235107421875,0.0006108472589403391,0.00007635590736754239,-0.00015271181473508477
1761311192687848200,0.39784814453125,0.0006108472589403391,0.00007635590736754239,0.0005344913806766272
1761311192706459400,0.41645947265625,0.0006108472589403391,0.000687203137204051,-0.0007635590736754239
1761311192725072400,0.435072265625,0.0012216945178806782,0.000687203137204051,-0.00015271181473508477
1761311192743683600,0.45368359375,0.0006108472589403391,0.00007635590736754239,-0.001374406274408102
1761311192762296600,0.472296630859375,0.0006108472589403391,0.000687203137204051,-0.0007635590736754239
1761311192780907800,0.49090771484375,0.0006108472589403391,0.00129805039614439,-0.00015271181473508477
1761311192799520800,0.509520751953125,0.0006108472589403391,0.000687203137204051,0.0005344913806766272
1761311192818132000,0.528132080078125,0.0012216945178806782,0.000687203137204051,-0.00015271181473508477
1761311192836745000,0.546744873046875,0.0012216945178806782,0.000687203137204051,-0.00015271181473508477
1761311192855356200,0.565356201171875,0.0006108472589403391,0.00007635590736754239,0.0005344913806766272
1761311192873969200,0.58396923828125,0.0006108472589403391,0.00007635590736754239,0.0005344913806766272
1761311192892580400,0.602580322265625,0.0006108472589403391,0.000687203137204051,0.0005344913806766272
1761311192911193300,0.621193359375,0,0.00007635590736754239,-0.00015271181473508477
1761311192929804500,0.639804443359375,0.0006108472589403391,0.000687203137204051,-0.001374406274408102
1761311192948417500,0.65841748046875,0.0018325417768210173,0.000687203137204051,0.0011453386396169662
1761311192967028700,0.67702880859375,0,0.000687203137204051,0.0005344913806766272
1761311192985641700,0.695641845703125,0.0012216945178806782,0.00007635590736754239,-0.00015271181473508477
1761311193004253000,0.7142529296875,0.0006108472589403391,0.00007635590736754239,-0.00015271181473508477
1761311193022866000,0.732865966796875,0.0006108472589403391,0.000687203137204051,-0.00015271181473508477
1761311193041477000,0.75147705078125,0.0006108472589403391,0.000687203137204051,-0.0007635590736754239
1761311193060090000,0.770090087890625,0.0006108472589403391,0.000687203137204051,0.0005344913806766272
1761311193078701300,0.788701416015625,0.0006108472589403391,0.00129805039614439,-0.00015271181473508477
1761311193097314300,0.807314208984375,0.0012216945178806782,0.00129805039614439,-0.00015271181473508477
1761311193115925500,0.825925537109375,0.0018325417768210173,0.000687203137204051,-0.00015271181473508477
1761311193134538500,0.84453857421875,0.0006108472589403391,0.00007635590736754239,-0.00015271181473508477
1761311193153149700,0.863149658203125,0.0006108472589403391,0.00129805039614439,-0.00015271181473508477
1761311193171762700,0.8817626953125,0.0006108472589403391,0.0019088976550847292,-0.00015271181473508477
1761311193190374000,0.900373779296875,0.0012216945178806782,0.000687203137204051,-0.0007635590736754239
1761311193208987000,0.91898681640625,0.0012216945178806782,0.000687203137204051,-0.001374406274408102
1761311193227598000,0.93759814453125,0.0012216945178806782,0.000687203137204051,-0.00015271181473508477
1761311193246211000,0.956211181640625,0.0006108472589403391,0.000687203137204051,0.0005344913806766272
1761311193264822300,0.974822265625,0.0006108472589403391,0.000687203137204051,-0.0007635590736754239
1761311193283435300,0.993435302734375,0.0006108472589403391,0.000687203137204051,0.0005344913806766272
1761311193302046500,1.01204638671875,0.0006108472589403391,0.000687203137204051,-0.0007635590736754239
1761311193320659500,1.030659423828125,0.0006108472589403391,0.000687203137204051,-0.001374406274408102
1761311193339270700,1.049270751953125,0.0006108472589403391,0.00129805039614439,-0.00015271181473508477
1761311193357883600,1.067883544921875,0.0006108472589403391,0.000687203137204051,-0.00015271181473508477
1761311193376494800,1.086494873046875,0.0018325417768210173,0.000687203137204051,0.0005344913806766272
1761311193395107800,1.10510791015625,0.0012216945178806782,0.000687203137204051,-0.00015271181473508477
1761311193413719000,1.123718994140625,0.0006108472589403391,0.00007635590736754239,0.0005344913806766272
1761311193432332000,1.14233203125,0.0012216945178806782,0.000687203137204051,-0.0007635590736754239
1761311193450943200,1.160943115234375,0.0012216945178806782,0.00129805039614439,0.0005344913806766272
1761311193469556200,1.17955615234375,0.0006108472589403391,0.000687203137204051,-0.0007635590736754239
1761311193488167700,1.198167724609375,0.0018325417768210173,0.00007635590736754239,-0.001374406274408102
1761311193506780400,1.216780517578125,0.0012216945178806782,0.000687203137204051,-0.00015271181473508477
1761311193525392000,1.235391845703125,0.0012216945178806782,0.00129805039614439,-0.00015271181473508477
1761311193544004600,1.254004638671875,0.0012216945178806782,0.00007635590736754239,0.0005344913806766272
1761311193562616000,1.272615966796875,0.0018325417768210173,0.00129805039614439,-0.00015271181473508477
1761311193581228800,1.291228759765625,0.0012216945178806782,0.000687203137204051,-0.00015271181473508477
1761311193599840300,1.30984033203125,0,0.000687203137204051,-0.00015271181473508477
1761311193618453000,1.328452880859375,0.0012216945178806782,0.000687203137204051,-0.00015271181473508477
1761311193637064400,1.347064453125,0.0006108472589403391,0.000687203137204051,-0.00015271181473508477
1761311193655677200,1.36567724609375,0.0006108472589403391,0.00007635590736754239,-0.0007635590736754239
1761311193674288600,1.38428857421875,0.0012216945178806782,0.000687203137204051,0.0005344913806766272
1761311193692901400,1.4029013671875,0.0012216945178806782,0.000687203137204051,-0.00015271181473508477
1761311193711512800,1.421512939453125,0.0012216945178806782,0.00129805039614439,-0.00015271181473508477
1761311193730125600,1.44012548828125,0.0012216945178806782,0.00007635590736754239,-0.00015271181473508477
1761311193748737000,1.458737060546875,0.0012216945178806782,0.000687203137204051,-0.0007635590736754239
1761311193767349800,1.477349853515625,0.0018325417768210173,0.000687203137204051,-0.00015271181473508477
1761311193785961200,1.495961181640625,0.0006108472589403391,0.00129805039614439,-0.00015271181473508477
1761311193804574000,1.514573974609375,0.0012216945178806782,0.00007635590736754239,-0.00015271181473508477
1761311193823185400,1.533185302734375,0.0012216945178806782,0.00007635590736754239,0.0005344913806766272
1761311193841798100,1.551798095703125,0.0006108472589403391,0.00129805039614439,-0.0007635590736754239
1761311193860409600,1.57040966796875,0.0012216945178806782,0.000687203137204051,-0.00015271181473508477
1761311193879022300,1.589022216796875,0.0006108472589403391,0.000687203137204051,-0.0007635590736754239
1761311193897633800,1.6076337890625,0.0006108472589403391,0.000687203137204051,-0.00015271181473508477
1761311193916246500,1.62624658203125,0.0018325417768210173,0.00007635590736754239,-0.00015271181473508477
1761311193934858000,1.64485791015625,0.0012216945178806782,0.000687203137204051,-0.00015271181473508477
1761311193953470700,1.663470703125,0.0006108472589403391,0.000687203137204051,-0.00015271181473508477
1761311193972082200,1.682082275390625,0.0012216945178806782,0.000687203137204051,-0.00015271181473508477
1761311193990695200,1.700695068359375,0.0006108472589403391,0.00007635590736754239,-0.00015271181473508477
1761311194009306400,1.719306396484375,0.0006108472589403391,-0.0005344913806766272,-0.00015271181473508477
1761311194027919000,1.737919189453125,0.0012216945178806782,0.00129805039614439,-0.00015271181473508477
1761311194046530600,1.756530517578125,0.0006108472589403391,0.000687203137204051,-0.0007635590736754239
1761311194065143600,1.7751435546875,0.0012216945178806782,0.000687203137204051,-0.00015271181473508477
1761311194083754800,1.793754638671875,0.0012216945178806782,0.000687203137204051,-0.00015271181473508477
1761311194102367700,1.81236767578125,0.0006108472589403391,0.00007635590736754239,0.0011453386396169662
1761311194120979000,1.83097900390625,0.0012216945178806782,0.00129805039614439,0.0005344913806766272
1761311194139592000,1.849592041015625,0.0006108472589403391,0.00129805039614439,-0.00015271181473508477
1761311194158203100,1.868203125,0.0006108472589403391,0.000687203137204051,-0.00015271181473508477
1761311194176816000,1.886816162109375,0.0006108472589403391,0.00129805039614439,-0.0007635590736754239
1761311194195427300,1.90542724609375,0,0.00129805039614439,-0.0007635590736754239
1761311194214040300,1.924040283203125,0,0.000687203137204051,-0.0007635590736754239
1761311194232651500,1.942651611328125,0,0.00007635590736754239,-0.00015271181473508477
1761311194251264500,1.961264404296875,0.0006108472589403391,0.00007635590736754239,-0.00015271181473508477
1761311194269875700,1.979875732421875,0.0012216945178806782,0.00007635590736754239,-0.0007635590736754239
1761311194288488700,1.99848876953125,0.0018325417768210173,0.00129805039614439,-0.00015271181473508477
1761311194307100000,2.017099853515625,0.0012216945178806782,0.00007635590736754239,-0.00015271181473508477
1761311194325713000,2.035712890625,0.0006108472589403391,0.00129805039614439,-0.0007635590736754239
1761311194344324000,2.054323974609375,0.0006108472589403391,0.000687203137204051,-0.001374406274408102
1761311194362937000,2.07293701171875,0.0006108472589403391,0.00007635590736754239,-0.0007635590736754239
1761311194381548500,2.091548583984375,0.0012216945178806782,0.000687203137204051,-0.00015271181473508477
1761311194400161300,2.110161376953125,0.0006108472589403391,0.000687203137204051,-0.00015271181473508477
1761311194418772500,2.1287724609375,0.0012216945178806782,0.00129805039614439,-0.00015271181473508477
1761311194437385500,2.147385498046875,0.0012216945178806782,0.000687203137204051,-0.00015271181473508477
1761311194455997000,2.165996826171875,0.0006108472589403391,0.000687203137204051,-0.0007635590736754239
1761311194474609700,2.184609619140625,0.0012216945178806782,0.000687203137204051,-0.00015271181473508477
1761311194493221000,2.20322119140625,0.0012216945178806782,0.000687203137204051,-0.00015271181473508477
1761311194511833900,2.221833740234375,0.0012216945178806782,0.000687203137204051,-0.0007635590736754239
1761311194530445300,2.2404453125,0.0012216945178806782,0.00129805039614439,-0.0007635590736754239
1761311194549058000,2.25905810546875,0.0006108472589403391,0.000687203137204051,-0.00015271181473508477
1761311194567669500,2.27766943359375,0.0006108472589403391,0.00007635590736754239,-0.0007635590736754239
1761311194586282200,2.2962822265625,0.0012216945178806782,0.00129805039614439,-0.0007635590736754239
1761311194604893700,2.314893798828125,0.0012216945178806782,0.000687203137204051,-0.00015271181473508477
1761311194623506400,2.33350634765625,0.0012216945178806782,0.000687203137204051,-0.00015271181473508477
1761311194642118000,2.352117919921875,0.0012216945178806782,0.000687203137204051,-0.0007635590736754239
1761311194660730600,2.370730712890625,0.0006108472589403391,0.000687203137204051,-0.00015271181473508477
1761311194679342000,2.389342041015625,0.0006108472589403391,0.00129805039614439,-0.0007635590736754239
1761311194697954800,2.407954833984375,0.0012216945178806782,0.00129805039614439,-0.00015271181473508477
1761311194716566300,2.426566162109375,0.0012216945178806782,0.00007635590736754239,-0.00015271181473508477
1761311194735179000,2.445178955078125,0.0012216945178806782,0.00129805039614439,0.0005344913806766272
1761311194753790500,2.46379052734375,0.0012216945178806782,0.00129805039614439,-0.0007635590736754239
1761311194772403200,2.4824033203125,0.0006108472589403391,0.000687203137204051,-0.0007635590736754239
1761311194791014700,2.5010146484375,0.0006108472589403391,0.00129805039614439,-0.0007635590736754239
1761311194809627400,2.51962744140625,0,0.00007635590736754239,0.0005344913806766272
1761311194828238800,2.53823876953125,0.0018325417768210173,0.000687203137204051,-0.00015271181473508477
1761311194846851800,2.556851806640625,0.0012216945178806782,0.00129805039614439,-0.00015271181473508477
1761311194865463000,2.575463134765625,0.0006108472589403391,0.000687203137204051,0.0005344913806766272
1761311194884076000,2.594075927734375,0.0012216945178806782,0.000687203137204051,-0.0007635590736754239
1761311194902687200,2.612687255859375,0.0006108472589403391,0.00007635590736754239,-0.0007635590736754239
1761311194921300200,2.63130029296875,0.0006108472589403391,0.000687203137204051,-0.0007635590736754239
1761311194939911400,2.649911376953125,0.0006108472589403391,0.000687203137204051,-0.0007635590736754239
1761311194958524400,2.6685244140625,0.0006108472589403391,0.000687203137204051,0.0005344913806766272
1761311194977135600,2.687135498046875,-0.0006108472589403391,0.000687203137204051,0.0005344913806766272
1761311194995748600,2.70574853515625,0,0.000687203137204051,-0.00015271181473508477
1761311195014359800,2.72435986328125,0.0006108472589403391,0.000687203137204051,-0.00015271181473508477
1761311195032972800,2.742972900390625,0.0012216945178806782,0.00007635590736754239,-0.0007635590736754239
1761311195051584000,2.761583984375,0.0006108472589403391,0.000687203137204051,-0.00015271181473508477
1761311195070197000,2.780197021484375,0.0006108472589403391,0.00129805039614439,-0.00015271181473508477
1761311195088808200,2.79880810546875,0.0012216945178806782,0.00007635590736754239,-0.00015271181473508477
1761311195107421000,2.8174208984375,0.0006108472589403391,0.00129805039614439,-0.00015271181473508477
1761311195126032100,2.8360322265625,0.0012216945178806782,0.000687203137204051,-0.0007635590736754239
1761311195144645000,2.85464501953125,0,0.00129805039614439,-0.00015271181473508477
1761311195163256300,2.87325634765625,0.0006108472589403391,0.000687203137204051,-0.0007635590736754239
1761311195181869300,2.891869384765625,0.0012216945178806782,0.000687203137204051,0.0005344913806766272
1761311195200480500,2.91048046875,0.0018325417768210173,0.000687203137204051,-0.0007635590736754239
1761311195219093500,2.929093505859375,0.0006108472589403391,0.000687203137204051,-0.00015271181473508477
1761311195237704700,2.94770458984375,0.0012216945178806782,0.000687203137204051,-0.00015271181473508477
1761311195256317700,2.966317626953125,0.0006108472589403391,0.000687203137204051,0.0005344913806766272
1761311195274929000,2.984928955078125,0.0006108472589403391,0.000687203137204051,-0.0007635590736754239
1761311195293542000,3.0035419921875,0.0006108472589403391,0.00129805039614439,-0.00015271181473508477
1761311195312153000,3.022153076171875,0.0006108472589403391,0.00007635590736754239,-0.00015271181473508477
1761311195330766000,3.04076611328125,0.0006108472589403391,0.000687203137204051,-0.00015271181473508477
1761311195349377300,3.059377197265625,0.0006108472589403391,0.00007635590736754239,-0.00015271181473508477
1761311195367990300,3.077990234375,0.0006108472589403391,0.000687203137204051,0.0005344913806766272
1761311195386601500,3.0966015625,0.0006108472589403391,0.000687203137204051,-0.00015271181473508477
1761311195405214500,3.11521435546875,0.0012216945178806782,0.000687203137204051,-0.0007635590736754239
1761311195423826000,3.133825927734375,0.0012216945178806782,0.00129805039614439,-0.0007635590736754239
1761311195442438700,3.152438720703125,0.0012216945178806782,0.00007635590736754239,-0.0007635590736754239
1761311195461049900,3.1710498046875,0,0.00007635590736754239,0.0005344913806766272
1761311195479662800,3.189662841796875,0.0018325417768210173,0.000687203137204051,-0.00015271181473508477
1761311195498274300,3.2082744140625,0.0012216945178806782,0.000687203137204051,-0.00015271181473508477
1761311195516887000,3.226886962890625,0.0012216945178806782,0.000687203137204051,-0.00015271181473508477
1761311195535498200,3.245498291015625,0,0.000687203137204051,-0.00015271181473508477
1761311195554111200,3.264111328125,0.0012216945178806782,0.000687203137204051,0.0005344913806766272
1761311195572722700,3.28272265625,0.0006108472589403391,0.000687203137204051,-0.00015271181473508477
1761311195591335400,3.30133544921875,0.0006108472589403391,0.000687203137204051,-0.00015271181473508477
1761311195609947000,3.31994677734375,0.0006108472589403391,0.000687203137204051,0.0005344913806766272
1761311195628559600,3.3385595703125,0.0012216945178806782,0.000687203137204051,-0.0007635590736754239
1761311195647171000,3.357171142578125,0.0012216945178806782,0.000687203137204051,-0.00015271181473508477
1761311195665783800,3.37578369140625,0.0006108472589403391,0.000687203137204051,-0.00015271181473508477
1761311195684395300,3.394395263671875,0.0006108472589403391,0.000687203137204051,-0.0007635590736754239
1761311195703008000,3.413008056640625,0.0006108472589403391,0.000687203137204051,-0.00015271181473508477
1761311195721619500,3.431619384765625,0.0012216945178806782,0.000687203137204051,-0.0007635590736754239
1761311195740232200,3.450232177734375,0.0006108472589403391,0.000687203137204051,0.0005344913806766272
1761311195758843600,3.46884375,0.0012216945178806782,0.00129805039614439,-0.00015271181473508477
1761311195777456400,3.487456298828125,0.0012216945178806782,0.000687203137204051,-0.00015271181473508477
1761311195796067800,3.50606787109375,0.0006108472589403391,0.00007635590736754239,-0.0007635590736754239
1761311195814680600,3.5246806640625,0.0012216945178806782,0.000687203137204051,-0.00015271181473508477
1761311195833292000,3.5432919921875,0.0006108472589403391,0.00129805039614439,-0.00015271181473508477
1761311195851904800,3.56190478515625,0.0006108472589403391,0.00007635590736754239,-0.0007635590736754239
1761311195870516200,3.58051611328125,0,0.000687203137204051,-0.00015271181473508477
1761311195889129000,3.59912890625,0.0006108472589403391,0.000687203137204051,-0.00015271181473508477
1761311195907740400,3.617740478515625,0.0012216945178806782,0.000687203137204051,-0.00015271181473508477
1761311195926353200,3.636353271484375,0.0018325417768210173,0.00129805039614439,0.0005344913806766272
1761311195944964600,3.654964599609375,0.0006108472589403391,0.000687203137204051,-0.0007635590736754239
1761311195963577300,3.673577392578125,0.0006108472589403391,0.000687203137204051,-0.00015271181473508477
1761311195991495700,3.70149560546875,0.0012216945178806782,0.000687203137204051,-0.00015271181473508477
1761311196019413000,3.7294130859375,0.0012216945178806782,0.00007635590736754239,-0.00015271181473508477
1761311196038025700,3.748025634765625,0.0006108472589403391,0.00007635590736754239,-0.00015271181473508477
1761311196056637200,3.76663720703125,0.0012216945178806782,0.000687203137204051,-0.0007635590736754239
1761311196075250000,3.78525,0.0012216945178806782,0.000687203137204051,-0.00015271181473508477
1761311196093861400,3.803861328125,0.0006108472589403391,-0.0005344913806766272,-0.0007635590736754239
1761311196112474000,3.82247412109375,0.0012216945178806782,0.000687203137204051,-0.00015271181473508477
1761311196131085600,3.84108544921875,0.0012216945178806782,0.000687203137204051,0.0005344913806766272
1761311196149698300,3.8596982421875,0.0018325417768210173,0.000687203137204051,-0.00015271181473508477
1761311196168309800,3.878309814453125,0.0012216945178806782,0.000687203137204051,-0.001374406274408102
1761311196186922500,3.896922607421875,0,0.00129805039614439,0.0005344913806766272
1761311196205534000,3.915533935546875,0.0012216945178806782,0.000687203137204051,-0.00015271181473508477
1761311196224146700,3.934146728515625,0,0.00007635590736754239,-0.0007635590736754239
1761311196242758100,3.952758056640625,0.0006108472589403391,0.00129805039614439,-0.00015271181473508477
1761311196261371000,3.971370849609375,0.0006108472589403391,0.000687203137204051,-0.0007635590736754239
1761311196279982300,3.989982421875,0.0006108472589403391,0.00007635590736754239,0.0005344913806766272
1761311196298595000,4.008594970703125,0,-0.0005344913806766272,-0.00015271181473508477
1761311196317206500,4.02720654296875,0.0012216945178806782,0.000687203137204051,-0.0007635590736754239
1761311196335819300,4.0458193359375,0.0006108472589403391,0.000687203137204051,-0.0007635590736754239
1761311196354430700,4.0644306640625,0.0006108472589403391,0.00129805039614439,0.0005344913806766272
1761311196373043500,4.08304345703125,0.0012216945178806782,0.00129805039614439,-0.00015271181473508477
1761311196391655000,4.101655029296875,0,0.000687203137204051,-0.0007635590736754239
1761311196410268000,4.120267822265625,0.0012216945178806782,0.000687203137204051,-0.0007635590736754239
1761311196428879000,4.138879150390625,0.0006108472589403391,0.000687203137204051,-0.00015271181473508477
1761311196447491800,4.157491943359375,0.0006108472589403391,0.000687203137204051,-0.00015271181473508477
1761311196466103300,4.176103271484375,0.0006108472589403391,0.00007635590736754239,-0.00015271181473508477
1761311196484716300,4.19471630859375,0.0012216945178806782,0.00007635590736754239,-0.0007635590736754239
1761311196503327500,4.213327392578125,0,0.000687203137204051,-0.0007635590736754239
1761311196521940200,4.231940185546875,0,0.000687203137204051,-0.00015271181473508477
1761311196540551700,4.2505517578125,0.0006108472589403391,0.00007635590736754239,-0.0007635590736754239
1761311196559164700,4.26916455078125,0.0006108472589403391,0.00129805039614439,0.0005344913806766272
1761311196577775900,4.28777587890625,0,0.00129805039614439,-0.00015271181473508477
1761311196596388600,4.306388671875,0.0018325417768210173,0.00129805039614439,-0.001374406274408102
1761311196615000000,4.325,0,0.00007635590736754239,-0.0007635590736754239
1761311196633613000,4.343613037109375,0.0012216945178806782,0.000687203137204051,-0.00015271181473508477
1761311196652224300,4.362224365234375,0.0006108472589403391,0.00007635590736754239,-0.00015271181473508477
1761311196670837000,4.3808369140625,0.0006108472589403391,0.00007635590736754239,-0.00015271181473508477
1761311196689448400,4.399448486328125,0.0006108472589403391,0.000687203137204051,0.0005344913806766272
1761311196708061400,4.4180615234375,0.0012216945178806782,0.00007635590736754239,-0.00015271181473508477
1761311196726672600,4.436672607421875,0.0012216945178806782,0.000687203137204051,-0.00015271181473508477
1761311196745285400,4.455285400390625,0.0006108472589403391,0.000687203137204051,-0.0007635590736754239
1761311196763896800,4.473896728515625,0.0006108472589403391,0.000687203137204051,-0.00015271181473508477
1761311196782509800,4.492509765625,0.0006108472589403391,0.000687203137204051,-0.00015271181473508477
1761311196801121000,4.51112109375,0.0012216945178806782,0.00129805039614439,-0.0007635590736754239
1761311196819733800,4.529733642578125,0.0012216945178806782,0.000687203137204051,-0.00015271181473508477
1761311196838345200,4.54834521484375,0.0006108472589403391,0.00129805039614439,-0.0007635590736754239
1761311196856958200,4.566958251953125,0.0006108472589403391,0.00007635590736754239,0.0005344913806766272
1761311196875569400,4.5855693359375,0.0012216945178806782,0.00129805039614439,-0.00015271181473508477
1761311196894182100,4.60418212890625,0.0006108472589403391,0.00007635590736754239,-0.00015271181473508477
1761311196912793600,4.622793701171875,0.0012216945178806782,0.000687203137204051,0.0005344913806766272
1761311196931406600,4.641406494140625,0.0012216945178806782,0.00007635590736754239,-0.00015271181473508477
1761311196950017800,4.660017822265625,0.0006108472589403391,0.00007635590736754239,-0.00015271181473508477
1761311196968630800,4.678630859375,0.0006108472589403391,0.00007635590736754239,0.0005344913806766272
1761311196987242000,4.697241943359375,0.0012216945178806782,0.00129805039614439,-0.0007635590736754239
1761311197005855000,4.71585498046875,0.0006108472589403391,0.00007635590736754239,-0.00015271181473508477
1761311197024466200,4.734466064453125,0.0012216945178806782,0.00007635590736754239,-0.0007635590736754239
1761311197043079200,4.7530791015625,0.0018325417768210173,0.000687203137204051,-0.00015271181473508477
1761311197061690400,4.7716904296875,0.0012216945178806782,0.00129805039614439,-0.00015271181473508477
1761311197080303400,4.790303466796875,0.0018325417768210173,0.000687203137204051,-0.00015271181473508477
1761311197098914600,4.80891455078125,0.0012216945178806782,0.000687203137204051,-0.00015271181473508477
1761311197117527600,4.827527587890625,0.0012216945178806782,0.00129805039614439,-0.0007635590736754239
1761311197136138800,4.846138671875,0.0012216945178806782,0.000687203137204051,-0.00015271181473508477
1761311197154751700,4.864751708984375,0.0012216945178806782,0.00007635590736754239,-0.0007635590736754239
1761311197173363000,4.883363037109375,0.0012216945178806782,0.000687203137204051,-0.0007635590736754239
1761311197191976000,4.901975830078125,0.0012216945178806782,0.00129805039614439,-0.00015271181473508477
1761311197210587100,4.920587158203125,0.0012216945178806782,0.000687203137204051,-0.00015271181473508477
1761311197229200100,4.9392001953125,0.0012216945178806782,0.000687203137204051,0.0005344913806766272
1761311197247811300,4.957811279296875,0.0006108472589403391,0.00007635590736754239,-0.00015271181473508477
1761311197266424300,4.97642431640625,0.0012216945178806782,0.00007635590736754239,-0.00015271181473508477
1761311197285035500,4.995035400390625,0.0012216945178806782,-0.0005344913806766272,0.0005344913806766272
1761311197303648500,5.0136484375,0.0006108472589403391,0.00129805039614439,0.0005344913806766272
1761311197322259700,5.032259765625,0.0012216945178806782,0.00129805039614439,0.0005344913806766272
1761311197340872700,5.050872802734375,0.0012216945178806782,0.000687203137204051,-0.00015271181473508477
1761311197359484000,5.06948388671875,0.0006108472589403391,0.00129805039614439,-0.00015271181473508477
1761311197378097000,5.088096923828125,0.0006108472589403391,0.000687203137204051,0.0005344913806766272
1761311197396708000,5.1067080078125,0,0.000687203137204051,-0.00015271181473508477
1761311197415321000,5.125321044921875,0.0012216945178806782,0.000687203137204051,-0.00015271181473508477
1761311197433932300,5.143932373046875,0.0012216945178806782,0.00129805039614439,0.0005344913806766272
1761311197452545300,5.162545166015625,0.0006108472589403391,0.00129805039614439,-0.00015271181473508477
1761311197471156500,5.181156494140625,0.0006108472589403391,0.000687203137204051,0.0005344913806766272
1761311197489769500,5.19976953125,0.0006108472589403391,0.00007635590736754239,0.0005344913806766272
1761311197508380700,5.218380615234375,0.0012216945178806782,0.00129805039614439,-0.0007635590736754239
1761311197526993700,5.23699365234375,0.0012216945178806782,0.00007635590736754239,-0.0007635590736754239
1761311197545604900,5.25560498046875,0.0012216945178806782,0.00007635590736754239,0.0005344913806766272
1761311197564217900,5.2742177734375,0.0012216945178806782,0.000687203137204051,-0.0007635590736754239
1761311197582829000,5.2928291015625,0.0006108472589403391,0.00007635590736754239,-0.00015271181473508477
1761311197601442000,5.311442138671875,0.0006108472589403391,0.00129805039614439,-0.0007635590736754239
1761311197620053200,5.33005322265625,0.0012216945178806782,0.000687203137204051,-0.00015271181473508477
1761311197638666200,5.348666259765625,0.0006108472589403391,0.00007635590736754239,-0.00015271181473508477
1761311197657277400,5.36727734375,0.0006108472589403391,0.000687203137204051,-0.0007635590736754239
1761311197675890400,5.385890380859375,0.0006108472589403391,0.00129805039614439,-0.00015271181473508477
1761311197694501600,5.404501708984375,0.0012216945178806782,0.00007635590736754239,-0.00015271181473508477
1761311197713114600,5.423114501953125,0.0012216945178806782,0.000687203137204051,-0.0007635590736754239
1761311197731725800,5.441725830078125,0.0012216945178806782,0.000687203137204051,-0.0007635590736754239
1761311197759644000,5.469643798828125,0.0012216945178806782,0.000687203137204051,-0.0007635590736754239
1761311197778257000,5.4882568359375,0.0006108472589403391,0.000687203137204051,0.0005344913806766272
1761311197796868000,5.5068681640625,0.0012216945178806782,0.000687203137204051,-0.0007635590736754239
1761311197815481000,5.525481201171875,0.0012216945178806782,0.00129805039614439,-0.0007635590736754239
1761311197834092300,5.54409228515625,0.0006108472589403391,0.000687203137204051,-0.00015271181473508477
1761311197852705300,5.562705322265625,0.0006108472589403391,0.000687203137204051,-0.00015271181473508477
1761311197871316500,5.58131640625,0.0012216945178806782,0.000687203137204051,-0.001374406274408102
1761311197889929500,5.599929443359375,0.0006108472589403391,0.000687203137204051,-0.0007635590736754239
1761311197908541000,5.618541015625,0.0006108472589403391,0.00007635590736754239,0.0005344913806766272
1761311197927153700,5.637153564453125,0.0012216945178806782,0.000687203137204051,-0.0007635590736754239
1761311197945764900,5.655764892578125,0.0006108472589403391,0.000687203137204051,0.0005344913806766272
1761311197964377900,5.6743779296875,0.0018325417768210173,-0.0005344913806766272,0.0005344913806766272
1761311197982989300,5.6929892578125,0.0006108472589403391,0.000687203137204051,-0.00015271181473508477
1761311198001602000,5.71160205078125,0.0012216945178806782,0.00007635590736754239,-0.00015271181473508477
1761311198020213200,5.730213134765625,0.0006108472589403391,0.00007635590736754239,-0.00015271181473508477
1761311198038826200,5.748826171875,0.0012216945178806782,0.00129805039614439,0.0005344913806766272
1761311198057437700,5.767437744140625,0.0006108472589403391,0.000687203137204051,0.0005344913806766272
1761311198076050400,5.786050537109375,0.0012216945178806782,0.000687203137204051,-0.00015271181473508477
1761311198094662000,5.804661865234375,0.0012216945178806782,0.00129805039614439,-0.00015271181473508477
1761311198113274600,5.823274658203125,0.0012216945178806782,0.00129805039614439,-0.0007635590736754239
1761311198131886000,5.841885986328125,0.0012216945178806782,0.000687203137204051,-0.00015271181473508477
1761311198150498800,5.860498779296875,0.0006108472589403391,0.00007635590736754239,-0.00015271181473508477
1761311198169110300,5.8791103515625,0.0012216945178806782,0.00129805039614439,-0.0007635590736754239
1761311198187723000,5.897722900390625,0.0006108472589403391,0.000687203137204051,-0.00015271181473508477
1761311198206334500,5.91633447265625,0.0012216945178806782,0.000687203137204051,-0.00015271181473508477
1761311198224947200,5.934947265625,0.0012216945178806782,0.000687203137204051,0.0005344913806766272
1761311198243558700,5.95355859375,0.0012216945178806782,0.000687203137204051,-0.00015271181473508477
1761311198262171400,5.97217138671875,0.0018325417768210173,0.00007635590736754239,-0.00015271181473508477
1761311198280782800,5.990782958984375,0.0006108472589403391,0.00007635590736754239,0.0005344913806766272
1761311198299395600,6.0093955078125,0.0012216945178806782,0.00007635590736754239,-0.00015271181473508477
1761311198318007000,6.028007080078125,0.0012216945178806782,0.00129805039614439,-0.00015271181473508477
1761311198336619800,6.046619873046875,0.0012216945178806782,0.000687203137204051,-0.00015271181473508477
1761311198355231200,6.065231201171875,0.0018325417768210173,0.00129805039614439,-0.00015271181473508477
1761311198373844000,6.083843994140625,0.0012216945178806782,0.000687203137204051,-0.0007635590736754239
1761311198392455400,6.102455322265625,0.0012216945178806782,0.000687203137204051,-0.00015271181473508477
1761311198411068200,6.121068115234375,0.0012216945178806782,0.00007635590736754239,-0.0007635590736754239
1761311198429679600,6.1396796875,0.0006108472589403391,0.000687203137204051,-0.0007635590736754239
1761311198448292400,6.158292236328125,0.0018325417768210173,0.00129805039614439,-0.00015271181473508477
1761311198466903800,6.17690380859375,0.0012216945178806782,0.00129805039614439,-0.0007635590736754239
1761311198485516800,6.195516845703125,0.0006108472589403391,0.00007635590736754239,-0.00015271181473508477
1761311198504128000,6.2141279296875,0.0006108472589403391,0.00129805039614439,-0.00015271181473508477
1761311198522741000,6.232740966796875,0.0012216945178806782,0.00129805039614439,-0.00015271181473508477
1761311198541352200,6.251352294921875,0.0012216945178806782,0.000687203137204051,-0.0007635590736754239
1761311198559965200,6.269965087890625,0.0006108472589403391,0.00007635590736754239,-0.0007635590736754239
1761311198578576400,6.288576416015625,0.0006108472589403391,0.000687203137204051,0.0005344913806766272
1761311198606495200,6.3164951171875,0.0006108472589403391,0.00129805039614439,0.0005344913806766272
1761311198625106700,6.335106689453125,0.0018325417768210173,0.000687203137204051,0.0005344913806766272
1761311198643719400,6.353719482421875,0.0006108472589403391,0.00129805039614439,0.0005344913806766272
1761311198662331000,6.372330810546875,0.0012216945178806782,0.00007635590736754239,-0.0007635590736754239
1761311198680943600,6.390943603515625,0.0006108472589403391,0.00007635590736754239,-0.00015271181473508477
1761311198699555000,6.40955517578125,0.0006108472589403391,0.000687203137204051,0.0005344913806766272
1761311198718168000,6.42816796875,0.0012216945178806782,0.000687203137204051,-0.0007635590736754239
1761311198736779300,6.446779296875,0.0012216945178806782,0.000687203137204051,0.0005344913806766272
1761311198755392300,6.465392333984375,0.0006108472589403391,0.000687203137204051,-0.00015271181473508477
1761311198774003500,6.48400341796875,0.0006108472589403391,0.00007635590736754239,0.0005344913806766272
1761311198792616400,6.502616455078125,0.0006108472589403391,0.000687203137204051,-0.00015271181473508477
1761311198811227600,6.5212275390625,0.0012216945178806782,0.000687203137204051,0.0005344913806766272
1761311198829840600,6.539840576171875,0.0012216945178806782,0.00129805039614439,-0.00015271181473508477
1761311198848451800,6.558451904296875,0.0006108472589403391,0.000687203137204051,-0.00015271181473508477
1761311198867064800,6.57706494140625,0.0012216945178806782,0.00007635590736754239,-0.0007635590736754239
1761311198885676000,6.595676025390625,0.0012216945178806782,0.00007635590736754239,-0.00015271181473508477
1761311198904289000,6.6142890625,0.0006108472589403391,0.000687203137204051,-0.0007635590736754239
1761311198922900200,6.632900146484375,0.0012216945178806782,0.00007635590736754239,-0.00015271181473508477
1761311198941513200,6.65151318359375,0.0006108472589403391,0.00007635590736754239,-0.00015271181473508477
1761311198960124700,6.670124755859375,0.0006108472589403391,0.000687203137204051,-0.00015271181473508477
1761311198978737400,6.6887373046875,0.0006108472589403391,0.000687203137204051,-0.00015271181473508477
1761311198997348900,6.707348876953125,0.0012216945178806782,0.000687203137204051,-0.0007635590736754239
1761311199015961600,6.725961669921875,0.0006108472589403391,0.000687203137204051,-0.00015271181473508477
1761311199034573000,6.744572998046875,0.0012216945178806782,0.000687203137204051,-0.00015271181473508477
1761311199053185800,6.763185791015625,0.0006108472589403391,0.00007635590736754239,-0.00015271181473508477
1761311199071797200,6.78179736328125,0.0006108472589403391,0.00007635590736754239,-0.00015271181473508477
1761311199090410000,6.800409912109375,0.0006108472589403391,0.00007635590736754239,-0.00015271181473508477
1761311199109021400,6.819021484375,0.0006108472589403391,0.00007635590736754239,-0.00015271181473508477
1761311199127634200,6.83763427734375,0.0006108472589403391,0.00007635590736754239,-0.00015271181473508477
1761311199146245600,6.85624560546875,0.0012216945178806782,0.000687203137204051,-0.0007635590736754239
1761311199164858600,6.874858642578125,0.0012216945178806782,0.000687203137204051,-0.00015271181473508477
1761311199183469800,6.8934697265625,0.0012216945178806782,0.00129805039614439,-0.00015271181473508477
1761311199202082800,6.912082763671875,0.0018325417768210173,0.000687203137204051,-0.00015271181473508477
1761311199220694000,6.930694091796875,0.0006108472589403391,0.00007635590736754239,-0.0007635590736754239
1761311199239307000,6.94930712890625,0.0006108472589403391,0.00007635590736754239,-0.00015271181473508477
1761311199257918500,6.96791845703125,0.0006108472589403391,0.00007635590736754239,-0.00015271181473508477
1761311199276531200,6.98653125,0.0006108472589403391,0.000687203137204051,-0.00015271181473508477
1761311199295142700,7.005142578125,0.0006108472589403391,0.00007635590736754239,-0.00015271181473508477
1761311199313755400,7.02375537109375,0.0012216945178806782,0.00007635590736754239,-0.00015271181473508477
1761311199332366800,7.042366943359375,0.0012216945178806782,0.00129805039614439,-0.00015271181473508477
1761311199350979600,7.0609794921875,0.0012216945178806782,0.000687203137204051,-0.00015271181473508477
1761311199369591000,7.079591064453125,0.0012216945178806782,0.000687203137204051,-0.0007635590736754239
1761311199388203800,7.098203857421875,0.0012216945178806782,0.00007635590736754239,0.0005344913806766272
1761311199406815200,7.116815185546875,0.0006108472589403391,-0.0005344913806766272,-0.00015271181473508477
1761311199425428200,7.13542822265625,0.0012216945178806782,0.00007635590736754239,-0.00015271181473508477
1761311199444039400,7.154039306640625,0.0012216945178806782,0.000687203137204051,-0.00015271181473508477
1761311199462652400,7.17265234375,0.0012216945178806782,0.00007635590736754239,-0.00015271181473508477
1761311199481263600,7.191263671875,0.0006108472589403391,0.00129805039614439,-0.00015271181473508477
1761311199499876600,7.209876708984375,0.0012216945178806782,0.000687203137204051,-0.00015271181473508477
1761311199518488000,7.228488037109375,0.0012216945178806782,0.000687203137204051,-0.00015271181473508477
1761311199537100800,7.247100830078125,0.0012216945178806782,0.00129805039614439,-0.00015271181473508477
1761311199555712300,7.265712158203125,0.0012216945178806782,0.000687203137204051,-0.00015271181473508477
1761311199574325000,7.284324951171875,0.0012216945178806782,0.000687203137204051,-0.0007635590736754239
1761311199592936400,7.3029365234375,0.0006108472589403391,-0.0005344913806766272,-0.00015271181473508477
1761311199611549200,7.321549072265625,0.0006108472589403391,0.00007635590736754239,0.0005344913806766272
1761311199630160600,7.34016064453125,0.0006108472589403391,-0.0005344913806766272,-0.00015271181473508477
1761311199648773600,7.358773681640625,0.0012216945178806782,0.000687203137204051,-0.00015271181473508477
1761311199667384800,7.377384765625,0.0012216945178806782,0.000687203137204051,0.0005344913806766272
1761311199685997800,7.395997802734375,0.0012216945178806782,0.000687203137204051,-0.00015271181473508477
1761311199704609000,7.414609130859375,0.0012216945178806782,0.00007635590736754239,-0.0007635590736754239
1761311199723222000,7.433221923828125,0.0006108472589403391,0.000687203137204051,-0.0007635590736754239
1761311199741833500,7.45183349609375,0.0006108472589403391,0.000687203137204051,0.0005344913806766272
1761311199760446200,7.4704462890625,0.0018325417768210173,0.00007635590736754239,0.0005344913806766272
1761311199779057700,7.4890576171875,0.0012216945178806782,0.00007635590736754239,-0.00015271181473508477
1761311199797670400,7.50767041015625,0.0012216945178806782,0.000687203137204051,0.0005344913806766272
1761311199816281900,7.52628173828125,0.0012216945178806782,0.000687203137204051,0.0005344913806766272
1761311199834894800,7.544894775390625,0.0018325417768210173,0.00007635590736754239,-0.0007635590736754239
1761311199853506000,7.563506103515625,0.0006108472589403391,0.000687203137204051,0.0005344913806766272
1761311199872119000,7.582119140625,0.0006108472589403391,0.00007635590736754239,-0.0007635590736754239
1761311199890730500,7.60073046875,0.0006108472589403391,0.00007635590736754239,-0.0007635590736754239
1761311199909343200,7.61934326171875,0.0006108472589403391,0.00007635590736754239,-0.00015271181473508477
1761311199927954700,7.63795458984375,0.0012216945178806782,0.000687203137204051,-0.00015271181473508477
1761311199946567400,7.6565673828125,0.0012216945178806782,0.00129805039614439,-0.00015271181473508477
1761311199965179000,7.675178955078125,0.0018325417768210173,0.000687203137204051,-0.00015271181473508477
1761311199983791900,7.6937919921875,0.0006108472589403391,0.000687203137204051,-0.00015271181473508477
1761311200002403000,7.712403076171875,0.0018325417768210173,0.00007635590736754239,-0.0007635590736754239
1761311200021016000,7.73101611328125,0.0006108472589403391,-0.0005344913806766272,0.0005344913806766272
1761311200039627300,7.749627197265625,0.0006108472589403391,0.00007635590736754239,-0.00015271181473508477
1761311200058240300,7.768240234375,0.0006108472589403391,0.00007635590736754239,-0.0007635590736754239
1761311200076851700,7.786851806640625,0.0012216945178806782,0.00007635590736754239,-0.0007635590736754239
1761311200095464400,7.80546435546875,0.0006108472589403391,0.00007635590736754239,-0.0007635590736754239
1761311200114076000,7.824075927734375,0.0012216945178806782,0.00007635590736754239,-0.0007635590736754239
1761311200132688600,7.842688720703125,0.0006108472589403391,0.00007635590736754239,-0.00015271181473508477
1761311200151300000,7.861300048828125,0.0012216945178806782,0.000687203137204051,-0.00015271181473508477
1761311200169913000,7.8799130859375,0.0012216945178806782,0.000687203137204051,-0.00015271181473508477
1761311200188524300,7.898524169921875,0.0006108472589403391,0.000687203137204051,0.0005344913806766272
1761311200207137300,7.91713720703125,0.0012216945178806782,0.000687203137204051,-0.0007635590736754239
1761311200225748700,7.935748779296875,0.0006108472589403391,0.000687203137204051,-0.00015271181473508477
1761311200244361500,7.954361572265625,0.0006108472589403391,0.00007635590736754239,-0.00015271181473508477
1761311200262973000,7.972972900390625,0.0012216945178806782,0.000687203137204051,-0.0007635590736754239
1761311200281585700,7.991585693359375,0.0012216945178806782,0.000687203137204051,-0.00015271181473508477
1761311200300197000,8.010197021484375,0.0006108472589403391,-0.0005344913806766272,0.0005344913806766272
1761311200318810000,8.02881005859375,0.0006108472589403391,0.000687203137204051,-0.00015271181473508477
1761311200337421300,8.04742138671875,0.0012216945178806782,0.000687203137204051,-0.00015271181473508477
1761311200356034300,8.066034423828125,0.0012216945178806782,0.00129805039614439,-0.00015271181473508477
1761311200374645800,8.084645751953126,0.0006108472589403391,0.000687203137204051,-0.00015271181473508477
1761311200393258500,8.103258544921875,0.0006108472589403391,0.00007635590736754239,0.0005344913806766272
1761311200411870000,8.121869873046874,0.0012216945178806782,0.000687203137204051,0.0005344913806766272
1761311200430482700,8.140482666015625,0.0012216945178806782,0.00007635590736754239,-0.00015271181473508477
1761311200449094100,8.15909423828125,0.0006108472589403391,0.00129805039614439,-0.00015271181473508477
1761311200467707100,8.17770703125,0.0012216945178806782,0.00007635590736754239,-0.00015271181473508477
1761311200486318300,8.196318359375,0.0012216945178806782,0.000687203137204051,-0.00015271181473508477
1761311200504931300,8.214931396484374,0.0006108472589403391,0.00129805039614439,0.0005344913806766272
1761311200523542800,8.233542724609375,0.0012216945178806782,0.000687203137204051,0.0005344913806766272
1761311200542155500,8.252155517578124,0.0012216945178806782,0.000687203137204051,0.0005344913806766272
1761311200560767000,8.27076708984375,0.0012216945178806782,0.000687203137204051,-0.0007635590736754239
1761311200579379700,8.289379638671875,0.0012216945178806782,0.00007635590736754239,-0.0007635590736754239
1761311200597991200,8.3079912109375,0.0012216945178806782,0.000687203137204051,-0.0007635590736754239
1761311200616604200,8.326604248046875,0.0006108472589403391,0.00007635590736754239,-0.00015271181473508477
1761311200635215600,8.345215576171874,0.0012216945178806782,0.0019088976550847292,0.0011453386396169662
1761311200653828400,8.363828369140625,0.0018325417768210173,0.000687203137204051,-0.00015271181473508477
1761311200672439800,8.382439697265625,0.0006108472589403391,0.00007635590736754239,-0.00015271181473508477
1761311200691052500,8.401052490234376,0.0012216945178806782,0.00007635590736754239,0.0005344913806766272
1761311200709664000,8.4196640625,0.0012216945178806782,0.00129805039614439,-0.0007635590736754239
1761311200728277000,8.438277099609374,0.0006108472589403391,0.000687203137204051,-0.00015271181473508477
1761311200746888200,8.45688818359375,0.0006108472589403391,0.000687203137204051,-0.0007635590736754239
1761311200765501200,8.475501220703125,0.0018325417768210173,0.00129805039614439,-0.00015271181473508477
1761311200784112600,8.494112548828125,0.0006108472589403391,0.00129805039614439,-0.00015271181473508477
1761311200802725400,8.512725341796875,0.0012216945178806782,0.000687203137204051,-0.00015271181473508477
1761311200821336800,8.5313369140625,0.0018325417768210173,0.00129805039614439,0.0005344913806766272
1761311200839949600,8.549949462890625,0.0012216945178806782,0.00007635590736754239,-0.0007635590736754239
1761311200858561000,8.56856103515625,0.0012216945178806782,0.000687203137204051,-0.00015271181473508477
1761311200877174000,8.587174072265626,0.0012216945178806782,0.00007635590736754239,-0.00015271181473508477
1761311200895785500,8.605785400390625,0.0018325417768210173,0.000687203137204051,-0.00015271181473508477
1761311200914398200,8.624398193359376,0.0012216945178806782,0.000687203137204051,-0.00015271181473508477
1761311200933009700,8.643009765625,0.0006108472589403391,0.000687203137204051,-0.0007635590736754239
1761311200951622400,8.661622314453124,0.0018325417768210173,0.000687203137204051,-0.00015271181473508477
1761311200970233900,8.68023388671875,0.0012216945178806782,0.000687203137204051,0.0005344913806766272
1761311200988846800,8.698846923828125,0.0018325417768210173,0.000687203137204051,-0.00015271181473508477
1761311201007458000,8.7174580078125,0.0012216945178806782,0.00129805039614439,0.0005344913806766272
1761311201026071000,8.736071044921875,0.0006108472589403391,0.000687203137204051,-0.0007635590736754239
1761311201044682500,8.7546826171875,0.0006108472589403391,0.00007635590736754239,-0.00015271181473508477
1761311201063295200,8.773295166015625,0.0012216945178806782,0.00129805039614439,-0.00015271181473508477
1761311201081906700,8.79190673828125,0.0012216945178806782,0.00129805039614439,0.0005344913806766272
1761311201100519700,8.810519775390626,0.0006108472589403391,0.00007635590736754239,-0.0007635590736754239
1761311201119131000,8.829130859375,0.0006108472589403391,0.00129805039614439,-0.00015271181473508477
1761311201137744000,8.847743896484374,0.0024433890357613564,0.00007635590736754239,-0.00015271181473508477
1761311201156355000,8.86635498046875,0.0012216945178806782,0.000687203137204051,-0.0007635590736754239
1761311201174968000,8.884968017578124,0.0012216945178806782,0.00007635590736754239,-0.0007635590736754239
1761311201193579500,8.90357958984375,0.0006108472589403391,0.00007635590736754239,-0.00015271181473508477
1761311201212192300,8.922192138671875,0.0012216945178806782,0.000687203137204051,-0.0007635590736754239
1761311201230803700,8.9408037109375,0.0012216945178806782,0.00007635590736754239,-0.00015271181473508477
1761311201249416700,8.959416748046875,0.0012216945178806782,0.000687203137204051,0.0005344913806766272
1761311201268028000,8.97802783203125,0.0006108472589403391,0.000687203137204051,0.0005344913806766272
1761311201286641000,8.996640869140625,0.0006108472589403391,0.000687203137204051,-0.0007635590736754239
1761311201305252400,9.01525244140625,0.0006108472589403391,0.000687203137204051,-0.00015271181473508477
1761311201323865000,9.033864990234376,0.0012216945178806782,0.000687203137204051,-0.00015271181473508477
1761311201342476500,9.0524765625,0.0006108472589403391,0.00129805039614439,-0.00015271181473508477
1761311201361089500,9.071089599609374,0.0006108472589403391,0.000687203137204051,-0.00015271181473508477
1761311201379700700,9.08970068359375,0,0.00007635590736754239,-0.00015271181473508477
1761311201398313700,9.108313720703125,0.0006108472589403391,0.00129805039614439,-0.00015271181473508477
1761311201416925200,9.12692529296875,0.0012216945178806782,0.00129805039614439,-0.00015271181473508477
1761311201435538000,9.145537841796875,0,0.00007635590736754239,-0.0007635590736754239
1761311201454149400,9.1641494140625,0.0012216945178806782,0.000687203137204051,-0.0007635590736754239
1761311201472762400,9.182762451171875,0.0012216945178806782,0.000687203137204051,-0.00015271181473508477
1761311201491373600,9.20137353515625,0.0006108472589403391,0.000687203137204051,0.0005344913806766272
1761311201509986600,9.219986572265626,0.0018325417768210173,0.000687203137204051,-0.0007635590736754239
1761311201528598000,9.238597900390625,0.0012216945178806782,0.00129805039614439,-0.0007635590736754239
1761311201547210800,9.257210693359376,0.0018325417768210173,0.00129805039614439,-0.00015271181473508477
1761311201565822200,9.275822265625,0.0018325417768210173,0.000687203137204051,-0.00015271181473508477
1761311201584435200,9.294435302734374,0.0012216945178806782,0.00007635590736754239,-0.0007635590736754239
1761311201603046400,9.31304638671875,0.0006108472589403391,0.00129805039614439,-0.00015271181473508477
1761311201621659400,9.331659423828125,0.0006108472589403391,0.00129805039614439,-0.00015271181473508477
1761311201640270800,9.350270751953126,0.0018325417768210173,0.00007635590736754239,-0.0007635590736754239
1761311201658883600,9.368883544921875,0.0006108472589403391,0.00007635590736754239,-0.00015271181473508477
1761311201677495000,9.3874951171875,0.0006108472589403391,0.000687203137204051,0.0005344913806766272
1761311201696108000,9.40610791015625,0.0012216945178806782,0.00007635590736754239,-0.0007635590736754239
1761311201714719200,9.42471923828125,0.0012216945178806782,0.00007635590736754239,-0.0007635590736754239
1761311201733332200,9.443332275390626,0.0018325417768210173,0.000687203137204051,-0.00015271181473508477
1761311201751943700,9.461943603515625,0.0012216945178806782,0.00007635590736754239,-0.00015271181473508477
1761311201770556400,9.480556396484374,0.0012216945178806782,0.00007635590736754239,-0.0007635590736754239
1761311201789167900,9.49916796875,0.0018325417768210173,0.000687203137204051,-0.0007635590736754239
1761311201807780900,9.51778076171875,0.0006108472589403391,0.000687203137204051,-0.0007635590736754239
1761311201826392000,9.53639208984375,0.0018325417768210173,0.000687203137204051,-0.0007635590736754239
1761311201845005000,9.555005126953125,0.0018325417768210173,0.00129805039614439,-0.0007635590736754239
1761311201863616500,9.573616455078126,0.0012216945178806782,0.000687203137204051,-0.00015271181473508477
1761311201882229200,9.592229248046875,0.0018325417768210173,0.00129805039614439,-0.00015271181473508477
1761311201900840700,9.6108408203125,0.0018325417768210173,0.00129805039614439,-0.0007635590736754239
1761311201919453700,9.62945361328125,0.0018325417768210173,0.00129805039614439,-0.00015271181473508477
1761311201938065200,9.648065185546875,0.0006108472589403391,0.000687203137204051,-0.00015271181473508477
1761311201956678000,9.666677978515626,0.0018325417768210173,0.000687203137204051,-0.00015271181473508477
1761311201975289300,9.685289306640625,0.0012216945178806782,0.00129805039614439,-0.0007635590736754239
1761311201993902000,9.703902099609374,0.0006108472589403391,0.00007635590736754239,-0.00015271181473508477
1761311202012513500,9.722513427734375,0.0012216945178806782,0.00007635590736754239,-0.00015271181473508477
1761311202031126500,9.74112646484375,0.0006108472589403391,0.000687203137204051,0.0005344913806766272
1761311202049737700,9.75973779296875,0.0006108472589403391,0.000687203137204051,0.0005344913806766272
1761311202068350700,9.778350830078125,0.0012216945178806782,0.000687203137204051,-0.00015271181473508477
1761311202086962200,9.796962158203126,0.0012216945178806782,0.00129805039614439,-0.0007635590736754239
1761311202105575000,9.815574951171875,0.0006108472589403391,0.00007635590736754239,0.0011453386396169662
1761311202124186400,9.834186279296874,0.0012216945178806782,0.00129805039614439,-0.0007635590736754239
1761311202142799400,9.85279931640625,0.0006108472589403391,0.00007635590736754239,-0.00015271181473508477
1761311202161410800,9.871410888671875,0.0006108472589403391,0.00007635590736754239,-0.00015271181473508477
1761311202180023600,9.8900234375,0,0.000687203137204051,-0.00015271181473508477
1761311202198635000,9.908635009765625,0.0006108472589403391,0.0019088976550847292,-0.00015271181473508477
1761311202217248000,9.927248046875,0,0.00007635590736754239,-0.00015271181473508477
1761311202235859200,9.945859130859375,0.0012216945178806782,0.000687203137204051,-0.00015271181473508477
1761311202254472200,9.96447216796875,0.0012216945178806782,0.000687203137204051,-0.00015271181473508477
1761311202273083600,9.983083740234376,0.0012216945178806782,0.00007635590736754239,-0.00015271181473508477
1761311202291696400,10.0016962890625,0.0006108472589403391,0.00007635590736754239,0.0005344913806766272
1761311202310307800,10.020307861328124,0.0006108472589403391,0.00007635590736754239,-0.0007635590736754239
1761311202328920800,10.0389208984375,0.0006108472589403391,0.00007635590736754239,-0.00015271181473508477
1761311202347532000,10.057531982421875,0.0018325417768210173,0.000687203137204051,-0.0007635590736754239
1761311202366145000,10.07614501953125,0.0006108472589403391,0.000687203137204051,-0.00015271181473508477
1761311202384756500,10.094756591796875,0.0012216945178806782,0.000687203137204051,-0.00015271181473508477
1761311202403369200,10.113369140625,0.0012216945178806782,0.000687203137204051,-0.00015271181473508477
1761311202421980700,10.131980712890625,0.0006108472589403391,0.00007635590736754239,-0.001374406274408102
1761311202440593700,10.15059375,0.0012216945178806782,0.000687203137204051,-0.00015271181473508477
1761311202459204900,10.169204833984375,0.0018325417768210173,0.000687203137204051,0.0005344913806766272
1761311202477817900,10.18781787109375,0.0006108472589403391,0.000687203137204051,-0.00015271181473508477
1761311202496429300,10.20642919921875,0.0012216945178806782,0.000687203137204051,-0.00015271181473508477
1761311202515042000,10.2250419921875,0.0006108472589403391,0.00007635590736754239,-0.00015271181473508477
1761311202533653500,10.243653564453124,0.0012216945178806782,0.000687203137204051,0.0011453386396169662
1761311202552266500,10.2622666015625,0.0012216945178806782,0.000687203137204051,-0.00015271181473508477
1761311202570878000,10.2808779296875,0.0006108472589403391,0.00007635590736754239,-0.00015271181473508477
1761311202589490700,10.29949072265625,0.0006108472589403391,0.000687203137204051,-0.00015271181473508477
1761311202608102100,10.31810205078125,0.0012216945178806782,0.000687203137204051,0.0005344913806766272
1761311202626715100,10.336715087890624,0.0006108472589403391,0.000687203137204051,0.0011453386396169662
1761311202645326300,10.355326416015625,0.0012216945178806782,0.00007635590736754239,-0.00015271181473508477
1761311202663939300,10.373939208984375,0.0006108472589403391,0.000687203137204051,-0.00015271181473508477
1761311202682550800,10.39255078125,0.0006108472589403391,0.00007635590736754239,0.0005344913806766272
1761311202701163500,10.41116357421875,0.0012216945178806782,0.000687203137204051,-0.0007635590736754239
1761311202719775000,10.42977490234375,0,0.00007635590736754239,-0.0007635590736754239
1761311202738388000,10.448387939453125,0.0012216945178806782,0.000687203137204051,0.0005344913806766272
1761311202756999400,10.46699951171875,0,0.000687203137204051,-0.0007635590736754239
1761311202775612200,10.485612060546876,0.0012216945178806782,0.000687203137204051,-0.001374406274408102
1761311202794223600,10.5042236328125,0.0012216945178806782,-0.0005344913806766272,0.0005344913806766272
1761311202812836600,10.522836669921874,0.0006108472589403391,0.00129805039614439,0.0011453386396169662
1761311202831447800,10.54144775390625,0.0006108472589403391,0.00129805039614439,-0.00015271181473508477
1761311202850060800,10.560060791015625,0.0018325417768210173,0.000687203137204051,-0.00015271181473508477
1761311202868672300,10.57867236328125,0.0012216945178806782,-0.0005344913806766272,-0.001374406274408102
1761311202887285000,10.597284912109375,0.0006108472589403391,0.00007635590736754239,-0.0007635590736754239
1761311202905896400,10.615896484375,0.0006108472589403391,0.00007635590736754239,-0.00015271181473508477
1761311202924509400,10.634509521484375,0.0006108472589403391,0.00007635590736754239,-0.0007635590736754239
1761311202943120600,10.65312060546875,0.0006108472589403391,-0.0005344913806766272,-0.001374406274408102
1761311202961733600,10.671733642578126,0.0012216945178806782,0.00007635590736754239,0.0005344913806766272
1761311202980345000,10.690344970703125,0.0012216945178806782,0.00129805039614439,-0.00015271181473508477
1761311202998957800,10.708957763671876,0.0006108472589403391,0.00007635590736754239,-0.00015271181473508477
1761311203017569300,10.7275693359375,0.0006108472589403391,0.000687203137204051,-0.00015271181473508477
1761311203036182300,10.746182373046874,0.0006108472589403391,0.000687203137204051,-0.0007635590736754239
1761311203054793700,10.764793701171875,0.0012216945178806782,0.000687203137204051,-0.00015271181473508477
1761311203073406500,10.783406494140625,0.0012216945178806782,0.00007635590736754239,-0.00015271181473508477
1761311203092018000,10.802017822265626,0.0012216945178806782,0.000687203137204051,-0.00015271181473508477
1761311203110631000,10.820630859375,0,0.000687203137204051,-0.00015271181473508477
1761311203129242000,10.8392421875,0.0006108472589403391,0.000687203137204051,0.0005344913806766272
1761311203147855000,10.857855224609375,0.0006108472589403391,0.00129805039614439,-0.0007635590736754239
1761311203166466600,10.876466552734374,0.0006108472589403391,0.000687203137204051,0.0005344913806766272
1761311203185079300,10.895079345703126,0.0012216945178806782,0.00007635590736754239,0.0005344913806766272
1761311203203690800,10.913690673828125,0.0006108472589403391,0.000687203137204051,-0.00015271181473508477
1761311203222303700,10.9323037109375,0.0006108472589403391,0.000687203137204051,0.0005344913806766272
1761311203240915200,10.950915283203125,0.0012216945178806782,0.00129805039614439,-0.00015271181473508477
1761311203259528000,10.96952783203125,0.0006108472589403391,0.00007635590736754239,0.0005344913806766272
1761311203278139400,10.988139404296875,0.0012216945178806782,0.00129805039614439,-0.00015271181473508477
1761311203296752400,11.00675244140625,0.0012216945178806782,0.000687203137204051,-0.00015271181473508477
1761311203315363600,11.025363525390626,0.0012216945178806782,0.000687203137204051,-0.00015271181473508477
1761311203333976600,11.0439765625,0.0012216945178806782,0.000687203137204051,0.0005344913806766272
1761311203352588000,11.062588134765624,0.0012216945178806782,0.00129805039614439,-0.00015271181473508477
1761311203371200800,11.08120068359375,0.0012216945178806782,0.000687203137204051,-0.0007635590736754239
1761311203389812200,11.099812255859375,0.0012216945178806782,0.000687203137204051,-0.00015271181473508477
1761311203408425200,11.11842529296875,0.0012216945178806782,0.000687203137204051,-0.0007635590736754239
1761311203427036400,11.137036376953125,0,0.000687203137204051,-0.00015271181473508477
1761311203445649400,11.1556494140625,0.0006108472589403391,0.00007635590736754239,0.0005344913806766272
1761311203464260900,11.1742607421875,0.0012216945178806782,0.000687203137204051,-0.0007635590736754239
1761311203482873900,11.192873779296875,0.0012216945178806782,0.00129805039614439,-0.00015271181473508477
1761311203501485000,11.211485107421876,0.0012216945178806782,-0.0005344913806766272,-0.0007635590736754239
1761311203520098000,11.23009814453125,0.0012216945178806782,0.00007635590736754239,-0.00015271181473508477
1761311203538709500,11.24870947265625,0.0006108472589403391,0.000687203137204051,-0.0007635590736754239
