time,seconds_elapsed,z,y,x
1761370634494052000,0.206052001953125,0.8607601523399353,2.080087661743164,-0.06734590977430344
1761370634512663000,0.2246630859375,1.1460257768630981,1.3122526407241821,0.004810422193259001
1761370634531275500,0.243275634765625,0.9780428409576416,1.0623397827148438,-0.05512896552681923
1761370634549886500,0.261886474609375,0.5760289430618286,1.2413944005966187,0.04512634128332138
1761370634568499000,0.2804990234375,0.11911521852016449,0.7868476510047913,0.4079696238040924
1761370634587109600,0.299109619140625,-0.27915719151496887,-0.3462740480899811,0.8972582817077637
1761370634605722000,0.31772216796875,-0.6316160559654236,-1.910730242729187,1.3682215213775635
1761370634624333000,0.3363330078125,-1.0060654878616333,-2.9167957305908203,1.5471997261047363
1761370634642945500,0.354945556640625,-1.3658545017242432,-2.611982822418213,1.1684744358062744
1761370634661556200,0.37355615234375,-1.6071391105651855,-1.9156169891357422,0.5032618045806885
1761370634680168700,0.392168701171875,-1.6865493059158325,-1.4067049026489258,-0.03374931216239929
1761370634698779600,0.410779541015625,-1.595533013343811,-1.33340322971344,-0.40331190824508667
1761370634717392100,0.42939208984375,-1.2369656562805176,-2.0897085666656494,-0.5493044257164001
1761370634736002800,0.4480029296875,-0.8680139780044556,-2.8282227516174316,-0.4912739098072052
1761370634754615300,0.466615234375,-0.9492566585540771,-2.93328857421875,-0.2811424434185028
1761370634773226200,0.485226318359375,-1.5375025272369385,-2.2754061222076416,-0.01725643500685692
1761370634791838700,0.503838623046875,-1.4599249362945557,-1.738471269607544,0.2540360987186432
1761370634810449700,0.52244970703125,-0.948034942150116,-1.9314990043640137,0.4653892517089844
1761370634829062000,0.541061767578125,-0.5913001298904419,-2.1507933139801025,0.3939201235771179
1761370634847672800,0.5596728515625,-0.44103172421455383,-2.7011666297912598,0.22105035185813904
1761370634866285300,0.578285400390625,-0.33352261781692505,-3.654088258743286,0.07689040154218674
1761370634884896300,0.596896240234375,-0.21318569779396057,-4.4085612297058105,0.08910734206438065
1761370634903508700,0.6155087890625,-0.08918370306491852,-4.799503326416016,0.29801711440086365
1761370634922119400,0.634119384765625,0.20646637678146362,-4.1654438972473145,0.49593162536621094
1761370634940732000,0.65273193359375,0.5662553906440735,-2.2399768829345703,0.5130353569984436
1761370634959342800,0.6713427734375,0.6768951416015625,-0.05062396824359894,0.20394663512706757
1761370634977955300,0.689955322265625,0.609701931476593,1.1521342992782593,-0.18157434463500977
1761370634996566000,0.70856591796875,0.32191649079322815,1.4417521953582764,-0.3208475112915039
1761370635015178500,0.727178466796875,0.028098974376916885,0.8754204511642456,-0.3727695345878601
1761370635033789400,0.74578955078125,-0.37383851408958435,-0.174625962972641,-0.6562026739120483
1761370635052402000,0.76440185546875,-1.0250016450881958,-0.6828508973121643,-1.1271659135818481
1761370635071012900,0.783012939453125,-1.780619740486145,-0.42629504203796387,-1.8192558288574219
1761370635089625000,0.801625,-2.517988681793213,0.4044572412967682,-2.5809824466705322
1761370635108236000,0.820236083984375,-2.9339756965637207,1.297592282295227,-3.0288097858428955
1761370635126848500,0.8388486328125,-3.1337227821350098,2.1045215129852295,-2.725829601287842
1761370635145459500,0.85745947265625,-3.119673252105713,2.2175283432006836,-2.0849742889404297
1761370635164072000,0.876072021484375,-2.9144287109375,1.7380131483078003,-1.4478607177734375
1761370635182682600,0.8946826171875,-2.5662457942962646,1.1716814041137695,-0.8602256774902344
1761370635201295000,0.913295166015625,-2.1197164058685303,0.6103127598762512,-0.23166382312774658
1761370635219906000,0.931906005859375,-1.5717099905014038,0.10392039269208908,0.5167004466056824
1761370635238518500,0.9505185546875,-1.0109522342681885,-0.3988068997859955,1.2888113260269165
1761370635257129500,0.96912939453125,-0.5577035546302795,-0.9009233713150024,1.8459041118621826
1761370635275741700,0.98774169921875,-0.3512371778488159,-1.3969312906265259,1.9729602336883545
1761370635294352600,1.0063525390625,-0.3274141252040863,-1.411591649055481,1.6107279062271118
1761370635312965000,1.024965087890625,-0.2883199155330658,-0.7402704954147339,1.0047674179077148
1761370635331576000,1.043576171875,0.014049487188458443,0.0752105712890625,0.5893912315368652
1761370635350188300,1.062188232421875,0.30481278896331787,0.9578848481178284,0.41713231801986694
1761370635368799200,1.08079931640625,0.3958290219306946,1.5920206308364868,0.44400960206985474
1761370635387411700,1.09941162109375,0.3921639323234558,1.370893955230713,0.4611133337020874
1761370635406022700,1.118022705078125,0.5570927262306213,0.9523872137069702,0.28518930077552795
1761370635424635100,1.13663525390625,0.8473215103149414,0.6665107011795044,0.3554367423057556
1761370635443246000,1.15524609375,1.122202754020691,0.924288272857666,1.0640195608139038
1761370635461858300,1.1738583984375,1.5668995380401611,2.340308666229248,1.8391847610473633
1761370635480469200,1.19246923828125,2.3860456943511963,2.7123146057128906,1.4378581047058105
1761370635499081700,1.211081787109375,2.388489246368408,2.615189790725708,0.3468848764896393
1761370635517692700,1.229692626953125,1.7177788019180298,1.094714641571045,-0.6678087711334229
1761370635536305000,1.248304931640625,1.0116394758224487,-1.554606318473816,-0.9854493141174316
1761370635554915800,1.266915771484375,1.303013563156128,-2.0402297973632812,-1.1198357343673706
1761370635573528300,1.2855283203125,1.6756303310394287,-0.4250733256340027,-1.4160966873168945
1761370635592139300,1.30413916015625,1.8045191764831543,0.21204034984111786,-1.4014363288879395
1761370635610751700,1.322751708984375,1.5736188888549805,-0.4598916172981262,-1.3562335968017578
1761370635629362700,1.34136279296875,1.1753464937210083,-1.0957835912704468,-1.2988139390945435
1761370635647975000,1.359974853515625,0.9468895792961121,-0.9039775729179382,-1.472294569015503
1761370635666585900,1.3785859375,0.8839723467826843,-0.38903334736824036,-1.7771073579788208
1761370635685198300,1.3971982421875,0.8039513230323792,-0.11293038725852966,-1.6879236698150635
1761370635703809300,1.415809326171875,0.6390225887298584,0.44843825697898865,-1.0043855905532837
1761370635722421800,1.434421875,0.4819584786891937,0.8155574202537537,-0.19195875525474548
1761370635741032400,1.453032470703125,0.182643324136734,0.7001073360443115,0.2528144121170044
1761370635759645000,1.47164501953125,-0.3017585575580597,0.19799086451530457,0.3841465711593628
1761370635778256000,1.490255859375,-0.6322268843650818,-0.10132429003715515,0.3206184506416321
1761370635796868400,1.508868408203125,-0.7104153633117676,0.027564482763409615,0.19600561261177063
1761370635815479300,1.527479248046875,-0.5595360994338989,0.48692160844802856,0.16790664196014404
1761370635834091500,1.546091552734375,-0.34451785683631897,0.9817079305648804,0.23265644907951355
1761370635852702500,1.564702392578125,-0.15393351018428802,1.3281346559524536,0.51914381980896
1761370635871315000,1.58331494140625,-0.08124268800020218,1.380056619644165,0.9241355657577515
1761370635889926000,1.60192578125,-0.023212196305394173,1.0592855215072632,1.3162994384765625
1761370635908538400,1.620538330078125,0.16126367449760437,0.4423297643661499,1.6101170778274536
1761370635927149300,1.6391494140625,0.3408527672290802,-0.17768019437789917,1.911875605583191
1761370635945761500,1.657761474609375,0.4489727318286896,-1.0676846504211426,2.592970371246338
1761370635964372500,1.67637255859375,0.2907632887363434,-2.0897085666656494,3.691349983215332
1761370635982985000,1.69498486328125,-0.4709632396697998,-2.835552930831909,4.4506330490112305
1761370636001596000,1.713595947265625,-0.9132166504859924,-3.7218923568725586,4.388326644897461
1761370636020208000,1.7322080078125,-0.32252734899520874,-3.434183359146118,2.9204607009887695
1761370636038819000,1.750819091796875,0.9707126617431641,-1.9901403188705444,0.671855628490448
1761370636057431600,1.769431640625,1.8491109609603882,-0.852666437625885,-1.2810994386672974
1761370636076042500,1.78804248046875,1.7733659744262695,-0.29923880100250244,-1.8638477325439453
1761370636094655000,1.806655029296875,1.376926064491272,-0.10437852889299393,-1.427702784538269
1761370636113266000,1.825265869140625,1.3805911540985107,0.006184828467667103,-1.1320526599884033
1761370636131878100,1.843878173828125,1.6157673597335815,0.013514995574951172,-1.4631319046020508
1761370636150489000,1.862489013671875,1.778863549232483,-0.05978667363524437,-1.9964015483856201
1761370636169101600,1.8811015625,1.8234554529190063,-0.22166119515895844,-2.2114198207855225
1761370636187712500,1.89971240234375,1.686625599861145,-0.07933378964662552,-2.039771795272827
1761370636206324700,1.91832470703125,1.4093009233474731,0.22486814856529236,-1.68242609500885
1761370636224935700,1.936935791015625,1.1191484928131104,0.40934401750564575,-1.268271565437317
1761370636243548200,1.955548095703125,0.8467106819152832,0.29083964228630066,-0.8645015954971313
1761370636262159000,1.9741591796875,0.7104917168617249,-0.08849649876356125,-0.4778352677822113
1761370636280771600,1.992771484375,0.7526401877403259,-0.5545729398727417,-0.08872556686401367
1761370636299382500,2.011382568359375,0.7306496500968933,-0.593667209148407,0.3670428395271301
1761370636317994800,2.029994873046875,0.6115344762802124,-0.41774317622184753,0.8392277956008911
1761370636336605700,2.048605712890625,0.448361873626709,-0.2680855989456177,1.255214810371399
1761370636355218200,2.06721826171875,0.19974705576896667,-0.33711132407188416,1.4885584115982056
1761370636373829000,2.0858291015625,-0.05070032179355621,-0.6126034259796143,1.495277762413025
1761370636392441600,2.104441650390625,-0.20219044387340546,-0.7787538766860962,1.375551700592041
1761370636411052500,2.123052490234375,-0.21990501880645752,-0.7097281813621521,1.2778160572052002
1761370636429664800,2.141664794921875,-0.20524467527866364,-0.5301390886306763,1.342565894126892
1761370636448275700,2.160275634765625,-0.23212195932865143,-0.4110238552093506,1.6266099214553833
1761370636466888200,2.17888818359375,-0.3261924386024475,-0.6742990016937256,2.081691026687622
1761370636485499100,2.1974990234375,-0.46546560525894165,-0.9839985966682434,2.782409191131592
1761370636504111400,2.216111328125,-0.5845808386802673,-1.073182225227356,3.195952892303467
1761370636522722300,2.234722412109375,-0.6810947060585022,-1.1452622413635254,2.666271924972534
1761370636541334800,2.253334716796875,-0.30847787857055664,-1.4170893430709839,1.3083584308624268
1761370636559945700,2.27194580078125,0.5906893014907837,-1.7836740016937256,-0.8229639530181885
1761370636578558200,2.29055810546875,1.2633085250854492,-1.138542890548706,-2.917635679244995
1761370636597169200,2.309169189453125,1.2724711894989014,0.3354314863681793,-3.8009207248687744
1761370636615781400,2.327781494140625,0.9108496308326721,1.816812515258789,-3.50160551071167
1761370636634392300,2.346392333984375,1.0287431478500366,1.2517787218093872,-2.667111873626709
1761370636653004800,2.3650048828125,1.3702067136764526,-0.954067051410675,-2.311598777770996
1761370636671615700,2.38361572265625,0.9933140277862549,-1.479472041130066,-2.5296711921691895
1761370636690228000,2.40222802734375,0.6048151254653931,-0.90336674451828,-2.603583812713623
1761370636708839000,2.4208388671875,0.642076849937439,-0.0023670331574976444,-2.3219830989837646
1761370636727451400,2.439451416015625,0.6219188570976257,0.8143357634544373,-1.857128381729126
1761370636746062300,2.458062255859375,0.04031591862440109,0.8326611518859863,-1.4313678741455078
1761370636764674800,2.4766748046875,-0.4868452548980713,0.6127561330795288,-1.1473238468170166
1761370636783285800,2.49528564453125,-0.5796940326690674,0.48692160844802856,-0.9903361201286316
1761370636801898000,2.51389794921875,-0.2113531529903412,0.6707866191864014,-0.7258392572402954
1761370636820509000,2.532509033203125,0.4318690001964569,0.8509865999221802,-0.16813570261001587
1761370636839121400,2.551121337890625,0.9047411680221558,0.7746306657791138,0.6058841347694397
1761370636857732400,2.569732421875,0.928564190864563,0.5754944682121277,1.3297381401062012
1761370636876344800,2.5883447265625,0.7501968145370483,0.3537569046020508,1.8837765455245972
1761370636894955500,2.60695556640625,0.6151995658874512,0.14484715461730957,2.1116225719451904
1761370636913568000,2.625568115234375,0.5723638534545898,0.18943901360034943,2.067641496658325
1761370636932179000,2.644178955078125,0.5760289430618286,0.4960843324661255,1.9851772785186768
1761370636950791400,2.66279150390625,0.5369347333908081,0.7306496500968933,1.897826075553894
1761370636969402000,2.681402099609375,0.41293275356292725,0.8595384359359741,1.8911067247390747
1761370636988014600,2.7000146484375,0.2583884000778198,1.0501227378845215,2.107346773147583
1761370637006625500,2.71862548828125,0.15393351018428802,1.3470709323883057,2.537993907928467
1761370637025238000,2.737238037109375,0.14843589067459106,1.1362522840499878,2.7323198318481445
1761370637043849000,2.755848876953125,0.16126367449760437,0.6243622303009033,2.6883387565612793
1761370637062461200,2.774461181640625,-0.006108472589403391,-0.276637464761734,2.509895086288452
1761370637081072000,2.793072021484375,0.0390942245721817,-1.152592420578003,2.087188720703125
1761370637099684600,2.8116845703125,0.4080459773540497,-1.7665703296661377,1.1605334281921387
1761370637118295600,2.830295654296875,0.9493330121040344,-2.155679941177368,-0.35261157155036926
1761370637136908000,2.848907958984375,1.0030875205993652,-1.3847143650054932,-1.7117466926574707
1761370637155518700,2.867518798828125,0.7453100085258484,0.6286382079124451,-2.4117777347564697
1761370637174131200,2.886131103515625,0.8008971214294434,2.001288414001465,-2.6457321643829346
1761370637192742100,2.9047421875,0.8870265483856201,1.9200456142425537,-2.6965088844299316
1761370637211354600,2.923354736328125,0.7330930829048157,0.9383377432823181,-2.5901451110839844
1761370637229965600,2.941965576171875,0.4074351191520691,0.11674818396568298,-2.386733055114746
1761370637248577800,2.960577880859375,0.20463383197784424,-0.04818057641386986,-2.2266910076141357
1761370637267188700,2.979188720703125,0.3640649616718292,0.09475768357515335,-2.0464911460876465
1761370637285801200,2.99780126953125,0.6304707527160645,0.4148416519165039,-1.5639216899871826
1761370637304412200,3.016412109375,0.7056049108505249,0.8332720398902893,-0.6091674566268921
1761370637323024600,3.035024658203125,0.5143333673477173,0.8705337047576904,0.5637356638908386
1761370637341635300,3.05363525390625,0.20096874237060547,0.32871219515800476,1.4647353887557983
1761370637360247800,3.072247802734375,0.020157959312200546,-0.35177165269851685,2.023049831390381
1761370637378858800,3.090858642578125,0.11545012891292572,-0.7793647646903992,2.2221860885620117
1761370637397471200,3.10947119140625,0.33535513281822205,-0.9290223121643066,2.012054443359375
1761370637416082200,3.128082275390625,0.4434750974178314,-0.8202915191650391,1.7426708936691284
1761370637434694400,3.1466943359375,0.38544461131095886,-0.6144359707832336,1.7463359832763672
1761370637453305300,3.165305419921875,0.22601348161697388,-0.24976016581058502,2.0071678161621094
1761370637471917800,3.183917724609375,0.07513421028852463,0.05566345527768135,2.330306053161621
1761370637490528800,3.20252880859375,0.00916270911693573,-0.11415208131074905,2.636340379714966
1761370637509141000,3.22114111328125,-0.007941014133393764,-0.9901070594787598,2.7927937507629395
1761370637527752000,3.239751953125,-0.14965757727622986,-1.3162994384765625,2.62839937210083
1761370637546364400,3.258364501953125,-0.29687178134918213,-0.9723924994468689,2.1922545433044434
1761370637564975400,3.276975341796875,-0.21318569779396057,-0.4989858567714691,1.5380370616912842
1761370637583587800,3.295587890625,-0.09590301662683487,0.17722205817699432,0.8300650715827942
1761370637602198800,3.31419873046875,-0.14904673397541046,0.5425087213516235,0.23265644907951355
1761370637620811000,3.33281103515625,-0.33718767762184143,0.21448373794555664,-0.2811424434185028
1761370637639422000,3.351421875,-0.47890424728393555,-0.4733302593231201,-1.2542221546173096
1761370637658034400,3.370034423828125,-0.4966188073158264,-0.6364265084266663,-2.3445844650268555
1761370637676645400,3.388645263671875,-0.5601469278335571,-0.5203655362129211,-3.088062047958374
1761370637695257900,3.4072578125,-0.7959339618682861,-0.6523085236549377,-3.516265869140625
1761370637713868500,3.42586865234375,-0.7922688722610474,-1.161755084991455,-3.736171007156372
1761370637732481000,3.44448095703125,-0.37200596928596497,-1.1922974586486816,-3.4344122409820557
1761370637751092000,3.463092041015625,0.11300674080848694,-0.6852942705154419,-2.5321145057678223
1761370637769704400,3.481704345703125,0.4953971207141876,-0.18134528398513794,-1.3342431783676147
1761370637788315400,3.5003154296875,0.8503757119178772,0.06971294432878494,-0.14186927676200867
1761370637806927600,3.518927734375,1.1912285089492798,0.08987089991569519,0.9888853430747986
1761370637825538600,3.53753857421875,1.2602542638778687,-0.11231953650712967,2.032823324203491
1761370637844151000,3.556151123046875,0.983540415763855,-0.48371466994285583,2.62839937210083
1761370637862762000,3.574761962890625,0.6939988136291504,-0.62054443359375,2.6674935817718506
1761370637881374200,3.593374267578125,0.49173203110694885,-0.2399866133928299,2.239900588989258
1761370637899985200,3.611985107421875,0.13560809195041656,0.4264477491378784,1.7139610052108765
1761370637918597600,3.63059765625,-0.3023693859577179,0.8259418606758118,1.3431767225265503
1761370637937208600,3.64920849609375,-0.6927008032798767,1.0580638647079468,1.300417423248291
1761370637955821000,3.667821044921875,-1.014006495475769,1.0727241039276123,1.6308858394622803
1761370637974431700,3.686431640625,-1.3200409412384033,1.1087641716003418,2.1171202659606934
1761370637993044200,3.705044189453125,-1.6034740209579468,1.0965471267700195,2.3223648071289062
1761370638011655200,3.7236552734375,-1.7244218587875366,1.084941029548645,2.196530342102051
1761370638030267600,3.742267578125,-1.7012096643447876,1.1105966567993164,2.023049831390381
1761370638048878300,3.76087841796875,-1.6266862154006958,1.160075306892395,1.792149543762207
1761370638067490800,3.77949072265625,-1.6902143955230713,0.9340618252754211,1.3749408721923828
1761370638086101800,3.798101806640625,-1.572320818901062,0.5809921026229858,0.6480326056480408
1761370638104714200,3.81671435546875,-1.113574504852295,0.47165045142173767,-0.15958385169506073
1761370638123325200,3.8353251953125,-0.1985253542661667,0.2627406716346741,-0.8052493929862976
1761370638141937400,3.8539375,0.9126821756362915,-0.5710658431053162,-1.1913049221038818
1761370638160548400,3.87254833984375,1.6249300241470337,-1.468400478363037,-1.7526735067367554
1761370638179160800,3.891160888671875,1.5571260452270508,-1.4482425451278687,-1.7819942235946655
1761370638197771800,3.909771728515625,1.0708916187286377,-0.8361735343933105,-1.6103460788726807
1761370638216384300,3.92838427734375,1.012250304222107,-0.06589514762163162,-1.8094823360443115
1761370638234995200,3.9469951171875,1.216273307800293,-0.018249060958623886,-2.1558327674865723
1761370638253607400,3.965607421875,1.2981268167495728,-0.37681639194488525,-2.2004244327545166
1761370638272218400,3.98421826171875,1.0360733270645142,-0.35177165269851685,-1.737402319908142
1761370638290830800,4.002830810546875,0.6872795224189758,-0.08422056585550308,-1.2670499086380005
1761370638309441800,4.02144189453125,0.8161683082580566,0.4576009511947632,-1.0245435237884521
1761370638328054000,4.040053955078125,1.168627142906189,0.8387696146965027,-0.7936432957649231
1761370638346665000,4.0586650390625,1.1344196796417236,0.794177770614624,-0.18768282234668732
1761370638365277400,4.07727734375,0.8784747123718262,0.5455629825592041,0.5588488578796387
1761370638383888400,4.095888427734375,0.609701931476593,0.30611082911491394,1.129380226135254
1761370638402500900,4.1145009765625,0.30786702036857605,0.1289651244878769,1.3694431781768799
1761370638421111800,4.13311181640625,0.11300674080848694,0.16989189386367798,1.4195326566696167
1761370638439724000,4.15172412109375,0.007941014133393764,0.29083964228630066,1.4299170970916748
1761370638458335000,4.1703349609375,-0.04703523963689804,0.4808131456375122,1.556362509727478
1761370638476947500,4.188947509765625,-0.13988402485847473,0.6066476702690125,1.7750457525253296
1761370638495558400,4.207558349609375,-0.24556060135364532,0.5901548266410828,1.9888423681259155
1761370638514170600,4.226170654296875,-0.32069480419158936,0.3531460762023926,2.1122334003448486
1761370638532781600,4.244781494140625,-0.3390202224254608,-0.050013117492198944,2.104292392730713
1761370638551394000,4.26339404296875,-0.3255815804004669,-0.3951418101787567,1.9411962032318115
1761370638570005000,4.2820048828125,-0.3402419090270996,-0.39086589217185974,1.6406593322753906
1761370638588617500,4.300617431640625,-0.24556060135364532,-0.1355317384004593,1.314466953277588
1761370638607228400,4.319228515625,-0.3396310806274414,0.18394137918949127,1.032866358757019
1761370638625840600,4.337840576171875,-0.5082249045372009,0.058717694133520126,0.5680115818977356
1761370638644451600,4.35645166015625,-0.39643988013267517,0.18333053588867188,-0.20051060616970062
1761370638663064000,4.37506396484375,0.17653486132621765,0.3500918447971344,-1.3287454843521118
1761370638681675000,4.393675048828125,0.8015079498291016,0.45943349599838257,-2.453315258026123
1761370638700287500,4.41228759765625,0.9646041989326477,0.4178958833217621,-3.2029013633728027
1761370638718898200,4.430898193359375,0.6842252612113953,0.28839626908302307,-3.0782883167266846
1761370638737510700,4.4495107421875,0.3830012381076813,-0.5484644770622253,-2.1992027759552
1761370638756121600,4.46812158203125,0.7104917168617249,-1.5387243032455444,-1.1057862043380737
1761370638774734000,4.486734130859375,1.330501675605774,-1.6114150285720825,-0.5835118293762207
1761370638793345000,4.505344970703125,1.4050250053405762,-0.9681165218353271,-0.6421532034873962
1761370638811957200,4.523957275390625,0.924288272857666,-0.1856212168931961,-0.7863131165504456
1761370638830568200,4.542568115234375,0.44103172421455383,0.17355698347091675,-0.6067240238189697
1761370638849180700,4.5611806640625,0.18997350335121155,-0.06711684167385101,0.013362283818423748
1761370638867791600,4.57979150390625,0.13744063675403595,-0.19234053790569305,0.6284855008125305
1761370638886404000,4.598404052734375,0.2107423096895218,-0.15568970143795013,1.0255361795425415
1761370638905015000,4.61701513671875,0.2748812735080719,-0.02924431301653385,1.2491062879562378
1761370638923627500,4.63562744140625,0.16798299551010132,-0.0695602297782898,1.384103536605835
1761370638942238200,4.65423828125,-0.12583453953266144,-0.2558686435222626,1.4861149787902832
1761370638960850700,4.6728505859375,-0.3939964771270752,-0.39330926537513733,1.6736451387405396
1761370638979461600,4.691461669921875,-0.47829338908195496,-0.38781166076660156,1.907599687576294
1761370638998074000,4.71007421875,-0.4227063059806824,-0.2540360987186432,2.1409432888031006
1761370639016685000,4.72868505859375,-0.46668729186058044,-0.043293800204992294,2.3755085468292236
1761370639035297500,4.747297607421875,-0.6230642199516296,0.015347537584602833,2.5740339756011963
1761370639053908200,4.765908203125,-0.6383354067802429,-0.4385119676589966,2.4927914142608643
1761370639072520700,4.784520751953125,-0.3304683566093445,-1.3657780885696411,2.012665271759033
1761370639091131600,4.803131591796875,0.2089097648859024,-1.851478099822998,1.3010282516479492
1761370639109744000,4.821744140625,0.5112791657447815,-1.2283375263214111,0.5307499170303345
1761370639128355000,4.84035498046875,0.15454435348510742,0.27923354506492615,0.019470756873488426
1761370639146967300,4.85896728515625,-0.6316160559654236,1.6836477518081665,-0.3727695345878601
1761370639165578200,4.877578125,-1.0024003982543945,2.1039106845855713,-0.9707890152931213
1761370639184190700,4.896190673828125,-0.7183563709259033,1.349514365196228,-2.1332314014434814
1761370639202801700,4.9148017578125,0.13438639044761658,-0.2772482931613922,-3.7050178050994873
1761370639221414100,4.9334140625,1.0061417818069458,-1.032866358757019,-4.86807107925415
1761370639240025000,4.952025146484375,1.077610969543457,0.38552096486091614,-4.775222301483154
1761370639258637600,4.970637451171875,0.5974085927009583,2.3494713306427,-3.6011736392974854
1761370639277248300,4.989248291015625,0.038483377546072006,2.9774222373962402,-2.2780020236968994
1761370639295860700,5.00786083984375,-0.31886225938796997,2.259676694869995,-1.2591089010238647
1761370639314471700,5.0264716796875,-0.4837910234928131,1.0568420886993408,-0.7887565493583679
1761370639333084200,5.045084228515625,-0.2901524603366852,0.13018682599067688,-0.9213103652000427
1761370639351695000,5.063695068359375,0.4092676639556885,0.00007635590736754239,-1.103342890739441
1761370639370307600,5.0823076171875,1.0495119094848633,0.30549997091293335,-0.9329164624214172
1761370639388918500,5.10091845703125,1.2156623601913452,0.7196544408798218,-0.3190149664878845
1761370639407530800,5.11953076171875,0.9407811164855957,0.7166001796722412,0.7060630917549133
1761370639426141700,5.1381416015625,0.47585001587867737,0.3128301501274109,1.7017440795898438
1761370639444754200,5.156754150390625,0.13438639044761658,-0.14225105941295624,2.297930955886841
1761370639463365000,5.175365234375,0.12583453953266144,-0.33894386887550354,2.5288312435150146
1761370639481977600,5.1939775390625,0.29442837834358215,-0.2503710091114044,2.534939765930176
1761370639500588500,5.212588623046875,0.30786702036857605,-0.0420721061527729,2.5477676391601562
1761370639519201000,5.231200927734375,0.04092676565051079,0.13507360219955444,2.619236707687378
1761370639537812000,5.24981201171875,-0.35978904366493225,0.09842276573181152,2.6803977489471436
1761370639556424200,5.268424072265625,-0.4960079789161682,-0.3823140263557434,2.5660929679870605
1761370639575035100,5.28703515625,-0.3365768492221832,-1.3370683193206787,2.1775941848754883
1761370639593647600,5.305647705078125,-0.18997350335121155,-2.0438950061798096,1.6687583923339844
1761370639612258600,5.324258544921875,-0.12155860662460327,-1.8869072198867798,1.04569411277771
1761370639630871000,5.34287109375,-0.4086568057537079,-1.1318236589431763,0.4977641701698303
1761370639649482000,5.36148193359375,-0.8044858574867249,-0.32306185364723206,0.09949174523353577
1761370639668094500,5.380094482421875,-0.9016105532646179,0.14851224422454834,-0.3507790267467499
1761370639686705200,5.398705078125,-0.5674771070480347,-0.4507289230823517,-1.4948959350585938
1761370639705317600,5.417317626953125,-0.01038440316915512,-1.384103536605835,-3.4429643154144287
1761370639723928600,5.435928466796875,0.08490777015686035,-1.0713497400283813,-5.141730308532715
1761370639742541000,5.454541015625,-0.22051586210727692,0.246247798204422,-5.758151531219482
1761370639761152000,5.473152099609375,-0.6548282504081726,1.4631319046020508,-5.251682758331299
1761370639779764500,5.491764404296875,-1.1685508489608765,1.7795507907867432,-4.347018241882324
1761370639798375400,5.51037548828125,-1.2803359031677246,1.4661861658096313,-3.6616475582122803
1761370639816988000,5.52898779296875,-0.8105943202972412,0.8143357634544373,-3.2487146854400635
1761370639835598600,5.5475986328125,0.042759306728839874,0.017180079594254494,-3.2059555053710938
1761370639854211000,5.566211181640625,1.0098068714141846,-0.5228089094161987,-3.0080409049987793
1761370639872822000,5.584822021484375,1.5876684188842773,-0.41529977321624756,-2.241351366043091
1761370639891434500,5.6034345703125,1.5656778812408447,0.06971294432878494,-0.8412894010543823
1761370639910045400,5.62204541015625,1.1784007549285889,0.14667969942092896,0.718280017375946
1761370639928658000,5.640657958984375,0.7935669422149658,-0.11842801421880722,1.7652722597122192
1761370639947268900,5.659268798828125,0.5021164417266846,-0.17890189588069916,2.1782050132751465
1761370639965881300,5.67788134765625,0.33596599102020264,0.25174543261528015,2.269221305847168
1761370639984492000,5.696491943359375,0.38727715611457825,0.822276771068573,2.315645694732666
1761370640003104500,5.7151044921875,0.4312581717967987,1.054398775100708,2.2881574630737305
1761370640021715500,5.733715576171875,0.284654825925827,0.8821398019790649,2.243565559387207
1761370640040328000,5.752327880859375,-0.04825693368911743,0.48631078004837036,2.1403324604034424
1761370640058939000,5.77093896484375,-0.2877090573310852,0.2609081268310547,2.0560355186462402
1761370640077551400,5.78955126953125,-0.3542914092540741,0.8198333978652954,2.116509437561035
1761370640096162300,5.808162353515625,-0.6169557571411133,0.9420028328895569,2.2191317081451416
1761370640114774800,5.82677490234375,-1.2259705066680908,-0.34016555547714233,2.3077046871185303
1761370640133385700,5.8453857421875,-1.8869072198867798,-0.7793647646903992,2.7146053314208984
1761370640151998200,5.863998291015625,-2.2333338260650635,-0.5258631110191345,3.0249156951904297
1761370640170609000,5.88260888671875,-1.9156169891357422,-0.33466795086860657,2.559373617172241
1761370640189221400,5.901221435546875,-1.2473500967025757,-0.8080745935440063,1.4989428520202637
1761370640207832300,5.919832275390625,-0.6432221531867981,-1.717091679573059,0.20944425463676453
1761370640226444800,5.93844482421875,-0.21196399629116058,-2.473931312561035,-0.9891144037246704
1761370640245055700,5.9570556640625,0.08246438205242157,-2.461714506149292,-2.0171704292297363
1761370640263668200,5.975668212890625,0.3915531039237976,-1.7641268968582153,-2.7734756469726562
1761370640282279200,5.994279052734375,0.5662553906440735,-0.593667209148407,-3.2572667598724365
1761370640300891600,6.0128916015625,0.5424323678016663,0.849764883518219,-3.3873770236968994
1761370640319502600,6.031502685546875,0.3390202224254608,1.5077236890792847,-3.0471351146698
1761370640338114800,6.05011474609375,0.17836740612983704,1.4472498893737793,-2.3335893154144287
1761370640356725800,6.068725830078125,0.1710372269153595,1.1490800380706787,-1.4258701801300049
1761370640375338200,6.087338134765625,0.29687178134918213,0.5602232813835144,-0.6623111367225647
1761370640393949200,6.10594921875,0.47951510548591614,0.14545799791812897,-0.06306997686624527
1761370640412561700,6.124561767578125,0.4202629029750824,0.25357797741889954,0.48371466994285583
1761370640431172600,6.143172607421875,0.17470231652259827,0.3146626949310303,1.142818808555603
1761370640449785000,6.16178515625,0.04214845970273018,0.48508909344673157,1.7157936096191406
1761370640468396000,6.18039599609375,-0.0012216945178806782,0.21020781993865967,1.9558565616607666
1761370640487008500,6.199008544921875,-0.08979454636573792,-0.120871402323246,1.8953826427459717
1761370640505619500,6.217619384765625,-0.045202698558568954,-0.40491536259651184,1.8972152471542358
1761370640524231700,6.236231689453125,0.1050657257437706,-0.648643434047699,2.0853562355041504
1761370640542842600,6.254842529296875,0.16004198789596558,-0.7848623991012573,2.382838726043701
1761370640561455000,6.273455078125,-0.1692046970129013,-0.6150468587875366,2.7036099433898926
1761370640580066000,6.292066162109375,-0.5815265774726868,-0.4727194309234619,3.017585515975952
1761370640598678500,6.310678466796875,-0.9077190160751343,-0.6272637844085693,3.0469062328338623
1761370640617289500,6.32928955078125,-1.0989142656326294,-0.8160156011581421,2.742704153060913
1761370640635902000,6.34790185546875,-1.0176715850830078,-0.769591212272644,2.346798896789551
1761370640654513000,6.366512939453125,-0.7000309824943542,-0.44523128867149353,1.9473047256469727
1761370640673125400,6.38512548828125,-0.4056025743484497,-0.5075377225875854,1.4690113067626953
1761370640691736300,6.403736328125,-0.3970507085323334,-0.5167004466056824,0.8856521844863892
1761370640710348500,6.4223486328125,-0.45202696323394775,0.026342788711190224,0.14469444751739502
1761370640728959500,6.44095947265625,-0.3402419090270996,0.6243622303009033,-1.1277767419815063
1761370640747572000,6.459572021484375,-0.21990501880645752,1.21818208694458,-2.5156216621398926
1761370640766183000,6.478182861328125,-0.33535513281822205,1.6934213638305664,-3.4484617710113525
1761370640784795400,6.49679541015625,-0.7757760286331177,1.8216992616653442,-3.609114646911621
1761370640803406300,6.51540625,-1.1624423265457153,1.5223840475082397,-3.478393316268921
1761370640822018800,6.534018798828125,-0.8961129188537598,1.1215919256210327,-3.38371205329895
1761370640840629800,6.552629638671875,-0.17286977171897888,0.8693119883537292,-2.917635679244995
1761370640859242200,6.5712421875,0.2510582208633423,0.5284592509269714,-2.009840250015259
1761370640877853200,6.589853271484375,0.17409147322177887,-0.08299887180328369,-1.0734113454818726
1761370640896465700,6.608465576171875,-0.13499724864959717,-0.7170583009719849,-0.5041016936302185
1761370640915076600,6.62707666015625,-0.42331716418266296,-1.1147198677062988,-0.27686652541160583
1761370640933689000,6.645689208984375,-0.5558710098266602,-1.2381110191345215,-0.2041756957769394
1761370640952300000,6.664300048828125,-0.6413896083831787,-0.7921925187110901,-0.012369656935334206
1761370640970912300,6.682912353515625,-0.8484668135643005,-0.022524992004036903,0.20272493362426758
1761370640989523200,6.701523193359375,-1.2058124542236328,0.4404972195625305,0.28457847237586975
1761370641008135700,6.7201357421875,-1.5729316473007202,0.5638883709907532,0.31145575642585754
1761370641026746600,6.73874658203125,-1.7714570760726929,0.6237514019012451,0.4495072364807129
1761370641045359000,6.757359130859375,-1.7329736948013306,0.766689658164978,0.5728983879089355
1761370641063970000,6.775969970703125,-1.428771734237671,0.8283852338790894,0.6504759788513184
1761370641082582500,6.79458251953125,-0.9877400398254395,0.6323032975196838,0.7763105034828186
1761370641101193500,6.813193359375,-0.7043069005012512,0.00129805039614439,0.9449043273925781
1761370641119806000,6.831805908203125,-0.8380824327468872,-0.62543123960495,1.022481918334961
1761370641138417000,6.8504169921875,-1.0628741979599,-1.1348778009414673,0.8343409895896912
1761370641157029000,6.869029052734375,-1.1086877584457397,-1.596754789352417,0.44400960206985474
1761370641175640000,6.88764013671875,-0.8484668135643005,-1.7690136432647705,0.33466795086860657
1761370641194252500,6.90625244140625,-0.6658235192298889,-1.3266838788986206,0.47088688611984253
1761370641212863500,6.924863525390625,-0.3292466700077057,-0.6706339120864868,0.616879403591156
1761370641231476000,6.94347607421875,0.2980934679508209,-0.704230546951294,0.2821350693702698
1761370641250087000,6.9620869140625,0.896189272403717,-0.8361735343933105,-0.51998370885849
1761370641268699400,6.980699462890625,1.0928821563720703,-1.0163735151290894,-1.547428846359253
1761370641287310300,6.999310302734375,0.872977077960968,-0.8783220052719116,-2.6989521980285645
1761370641305922800,7.0179228515625,1.1020448207855225,-0.6932352781295776,-3.348893642425537
1761370641324533800,7.03653369140625,1.6542507410049438,-0.3542150557041168,-2.8846497535705566
1761370641343146200,7.055146240234375,1.6890690326690674,-0.10376767814159393,-1.7942111492156982
1761370641361757200,7.073757080078125,1.3024027347564697,-0.029855160042643547,-0.5621321797370911
1761370641380369700,7.09236962890625,0.7734090089797974,0.03855973482131958,0.5093702673912048
1761370641398980600,7.110980712890625,0.35856732726097107,0.15706409513950348,1.2423869371414185
1761370641417592800,7.1295927734375,0.11422843486070633,0.23891763389110565,1.6608173847198486
1761370641436203800,7.148203857421875,-0.03542914241552353,0.38002336025238037,1.8495692014694214
1761370641454816300,7.166816162109375,-0.24433889985084534,0.5382328033447266,1.9405853748321533
1761370641473427200,7.18542724609375,-0.6365028619766235,0.7355364561080933,1.9986158609390259
1761370641492039700,7.204039794921875,-1.0640959739685059,0.8271635174751282,1.9931182861328125
1761370641510650600,7.222650634765625,-1.3854016065597534,0.8112815022468567,1.7897061109542847
1761370641529263000,7.24126318359375,-1.5882028341293335,0.8369371294975281,1.3877686262130737
1761370641547874000,7.2598740234375,-1.6578394174575806,0.7734090089797974,0.9620080590248108
1761370641566486500,7.278486572265625,-1.559493064880371,0.5168531537055969,0.6657471656799316
1761370641585097500,7.297097412109375,-1.1850436925888062,0.14545799791812897,0.6339830756187439
1761370641603709700,7.315709716796875,-0.8191461563110352,-0.053678203374147415,0.7372162938117981
1761370641622320600,7.334320556640625,-0.6487197875976562,-0.3584909737110138,0.9607864022254944
1761370641640933000,7.35293310546875,-0.5949652194976807,-0.8196806907653809,1.2662099599838257
1761370641659544000,7.3715439453125,-0.6639909744262695,-1.230780839920044,1.6486003398895264
1761370641678156500,7.390156494140625,-0.9333745837211609,-1.6480659246444702,1.8434606790542603
1761370641696767500,7.408767578125,-1.184432864189148,-1.582094430923462,1.72251296043396
1761370641715380000,7.4273798828125,-1.2143644094467163,-1.0298120975494385,1.1733611822128296
1761370641733991000,7.445990966796875,-1.1563338041305542,-0.9931612610816956,0.059175826609134674
1761370641752603400,7.464603271484375,-1.1966497898101807,-1.5710991621017456,-1.259719729423523
1761370641771214300,7.48321435546875,-0.8600729703903198,-2.40673828125,-2.5730414390563965
1761370641789826800,7.501826904296875,-0.707361102104187,-1.6498984098434448,-3.6249966621398926
1761370641808437800,7.520437744140625,-0.9449806809425354,-0.42629504203796387,-4.533937454223633
1761370641827050200,7.53905029296875,-0.6151232123374939,0.24991288781166077,-4.4752960205078125
1761370641845661200,7.5576611328125,0.2223484069108963,0.43744298815727234,-3.4716739654541016
1761370641864273400,7.5762734375,0.7911235690116882,0.8845831751823425,-1.9487555027008057
1761370641882884400,7.59488427734375,0.6103127598762512,0.8900808095932007,-0.6922426819801331
1761370641901496800,7.613496826171875,0.08124268800020218,0.6035934686660767,0.019470756873488426
1761370641920107800,7.632107666015625,-0.30603447556495667,0.21509459614753723,0.26197710633277893
1761370641938720300,7.65072021484375,-0.2644968628883362,-0.052456509321928024,0.25770118832588196
1761370641957331200,7.669331298828125,0.15332266688346863,-0.20211409032344818,0.13675342500209808
1761370641975943700,7.687943603515625,0.5155550837516785,-0.09765920788049698,0.0683385357260704
1761370641994554600,7.7065546875,0.6011500358581543,0.1821088343858719,0.1220930963754654
1761370642013167000,7.7251669921875,0.4489727318286896,0.503414511680603,0.3407764136791229
1761370642031778000,7.743778076171875,0.16676130890846252,0.6921663284301758,0.6804074645042419
1761370642050390500,7.762390625,-0.004275931045413017,0.563277542591095,1.0444724559783936
1761370642069001500,7.78100146484375,0.033596597611904144,0.26212984323501587,1.337679147720337
1761370642087613700,7.79961376953125,0.18875180184841156,0.09170344471931458,1.6272207498550415
1761370642106224600,7.818224609375,0.38727715611457825,-0.07139277458190918,1.9430288076400757
1761370642124837000,7.836837158203125,0.49112120270729065,-0.28335678577423096,2.1323914527893066
1761370642143448000,7.855447998046875,0.3023693859577179,-0.1349208950996399,2.0994057655334473
1761370642162060500,7.874060546875,-0.42392799258232117,0.04772244393825531,1.8336870670318604
1761370642180671500,7.89267138671875,-1.2259705066680908,0.03184041380882263,1.5979000329971313
1761370642199284000,7.911283935546875,-1.5478869676589966,-0.4886014461517334,1.1177741289138794
1761370642217895000,7.92989501953125,-1.4788612127304077,-0.5270848274230957,0.6242095232009888
1761370642236507400,7.94850732421875,-0.9071081876754761,0.062993623316288,0.29740625619888306
1761370642255118300,7.967118408203125,0.05741964280605316,0.03184041380882263,-0.21150586009025574
1761370642273730800,7.985730712890625,0.7782957553863525,-0.8490013480186462,-0.9897252917289734
1761370642292341800,8.004341796875,0.7385907173156738,-0.9919396042823792,-2.0416042804718018
1761370642310954200,8.022954345703125,0.6396334171295166,-1.1788588762283325,-3.0886728763580322
1761370642329565200,8.041565185546874,1.381201982498169,-1.7103723287582397,-2.9304633140563965
1761370642348177400,8.060177490234375,2.3866565227508545,-1.7635160684585571,-1.8406355381011963
1761370642366788400,8.078788330078124,2.5925121307373047,-0.5826719403266907,-0.4772244095802307
1761370642385400800,8.09740087890625,1.9382946491241455,0.3904077410697937,0.352993369102478
1761370642404011800,8.11601171875,0.6750625967979431,1.0098068714141846,0.3682645559310913
1761370642422624300,8.134624267578126,-0.2748812735080719,1.155799388885498,-0.26037365198135376
1761370642441235200,8.153235107421875,-0.5155550837516785,1.2548329830169678,-0.8712208867073059
1761370642459847700,8.17184765625,-0.3414636254310608,1.2652174234390259,-1.0263761281967163
1761370642478458600,8.190458740234375,0.015271181240677834,1.0653939247131348,-0.4790569543838501
1761370642497071000,8.209071044921876,0.1582094430923462,0.8357154130935669,0.45744824409484863
1761370642515682000,8.22768212890625,0.025655584409832954,0.4417189359664917,1.2295591831207275
1761370642534294500,8.24629443359375,-0.1459924876689911,-0.007253811229020357,1.6773102283477783
1761370642552905500,8.264905517578125,-0.14049486815929413,-0.24243000149726868,1.795203685760498
1761370642571518000,8.28351806640625,-0.06352811306715012,-0.05673243850469589,1.7481684684753418
1761370642590129000,8.30212890625,-0.004886778071522713,0.17538951337337494,1.5759096145629883
1761370642608741000,8.3207412109375,0.0006108472589403391,0.1277434378862381,1.4170893430709839
1761370642627352000,8.33935205078125,-0.014660334214568138,-0.5246414542198181,1.245441198348999
1761370642645964500,8.357964599609375,0.022601349279284477,-0.8318976163864136,1.0695171356201172
1761370642664575500,8.376575439453125,-0.024433890357613564,-0.9485694169998169,0.8343409895896912
1761370642683188000,8.39518798828125,-0.28221142292022705,-1.2546038627624512,0.6193227767944336
1761370642701799000,8.413798828125,-0.4556920528411865,-1.4629027843475342,0.37803810834884644
1761370642720411400,8.432411376953125,-0.4556920528411865,-1.2191747426986694,0.1483595222234726
1761370642739022300,8.451022216796876,-0.42514967918395996,-0.6370373368263245,0.030466007068753242
1761370642757634800,8.469634765625,-0.24311721324920654,-0.8544989824295044,-0.1510319858789444
1761370642776245800,8.488245849609376,0.12094775587320328,-1.5741534233093262,-0.5236487984657288
1761370642794858200,8.506858154296875,0.3823903799057007,-2.178281307220459,-1.2908729314804077
1761370642813469200,8.52546923828125,0.5595360994338989,-2.1245267391204834,-1.7764965295791626
1761370642832081700,8.54408154296875,0.4850127100944519,-0.8984799385070801,-1.8730103969573975
1761370642850692600,8.562692626953124,0.4556920528411865,0.4979168772697449,-1.935316801071167
1761370642869305000,8.58130517578125,0.48989951610565186,0.9334509968757629,-2.219360828399658
1761370642887915800,8.599915771484374,0.337798535823822,0.7673004865646362,-2.4655323028564453
1761370642906528300,8.6185283203125,-0.006108472589403391,0.5223507881164551,-2.4746949672698975
1761370642925139200,8.63713916015625,-0.2761029601097107,0.5504497289657593,-2.1674387454986572
1761370642943751700,8.655751708984376,-0.3542914092540741,0.7929561138153076,-1.6915887594223022
1761370642962362600,8.674362548828125,-0.312142938375473,0.7355364561080933,-1.1369394063949585
1761370642980975000,8.69297509765625,-0.24617144465446472,0.540065348148346,-0.5468609929084778
1761370642999586000,8.7115859375,-0.21746163070201874,0.2688491642475128,0.03290939703583717
1761370643018198500,8.730198486328124,-0.25533416867256165,0.11674818396568298,0.561292290687561
1761370643036809500,8.7488095703125,-0.32130566239356995,0.03245126083493233,0.9809443354606628
1761370643055422000,8.767421875,-0.38605546951293945,-0.02802261710166931,1.272929310798645
1761370643074033000,8.786032958984375,-0.38605546951293945,0.0361163429915905,1.5258201360702515
1761370643092645400,8.804645263671874,-0.33596599102020264,0.07276718318462372,1.652876377105713
1761370643111256300,8.82325634765625,-0.23212195932865143,-0.06406260281801224,1.6699800491333008
1761370643129868500,8.84186865234375,-0.20157960057258606,-0.226547971367836,1.5410913228988647
1761370643148479500,8.8604794921875,-0.21623992919921875,-0.7329403758049011,1.3175212144851685
1761370643167092000,8.879092041015625,-0.3432961702346802,-0.9100860357284546,1.285757064819336
1761370643185703000,8.897702880859375,-0.45019441843032837,-0.6144359707832336,1.4427448511123657
1761370643204315400,8.9163154296875,-0.19241689145565033,-0.4843255281448364,1.653487205505371
1761370643222926300,8.93492626953125,0.20280128717422485,-0.436068594455719,1.8898850679397583
1761370643241538800,8.953538818359375,0.13499724864959717,-0.7152257561683655,1.9198166131973267
1761370643260149800,8.972149658203126,-0.14904673397541046,-0.6626929044723511,1.6602064371109009
1761370643278762200,8.99076220703125,-0.13927318155765533,-0.11476293206214905,1.0017131567001343
1761370643297373200,9.009373291015624,0.0647498071193695,0.018401773646473885,0.1330883502960205
1761370643315985700,9.027985595703125,0.4587462842464447,-0.5118136405944824,-1.1338852643966675
1761370643334596600,9.0465966796875,0.8131140470504761,-0.6907919049263,-2.5669329166412354
1761370643353209000,9.065208984375,0.6597914099693298,0.034283801913261414,-3.5578033924102783
1761370643371820000,9.083820068359374,0.3151971995830536,1.251167893409729,-4.029377460479736
1761370643390432300,9.102432373046875,0.26694026589393616,1.690977931022644,-3.8974344730377197
1761370643409043200,9.121043212890624,0.6536829471588135,0.7868476510047913,-2.841890573501587
1761370643427655700,9.13965576171875,0.6610130667686462,-0.2821350693702698,-1.0691354274749756
1761370643446266600,9.1582666015625,0.006719320081174374,-0.5221980214118958,0.6071057915687561
1761370643464879000,9.176879150390626,-0.7769976854324341,-0.1471378356218338,1.384103536605835
1761370643483490000,9.195489990234375,-1.2998830080032349,0.8632035255432129,1.4934451580047607
1761370643502102500,9.2141025390625,-1.2931636571884155,1.8644585609436035,1.4738980531692505
1761370643520713500,9.23271337890625,-0.8582404255867004,1.7410674095153809,1.3541719913482666
1761370643539326000,9.251325927734374,-0.5137225389480591,0.9163472652435303,1.3462309837341309
1761370643557937000,9.26993701171875,-0.47646087408065796,0.5663317441940308,1.4616811275482178
1761370643576549400,9.28854931640625,-0.4294256269931793,0.5418978929519653,1.4922235012054443
1761370643595160000,9.30716015625,-0.22784602642059326,0.6408551335334778,1.5136032104492188
1761370643613772500,9.3257724609375,-0.008551862090826035,0.6133670210838318,1.6504329442977905
1761370643632383500,9.344383544921875,0.24678228795528412,0.07826480269432068,1.8251352310180664
1761370643650996000,9.362995849609375,0.3781144618988037,-0.35116082429885864,2.0157196521759033
1761370643669607000,9.38160693359375,0.3542914092540741,-0.4391228258609772,1.9986158609390259
1761370643688219400,9.400219482421875,0.39766156673431396,-0.3303920030593872,1.5038295984268188
1761370643706830300,9.418830322265626,0.5619794726371765,-0.357269287109375,0.8685484528541565
1761370643725442800,9.43744287109375,0.7275954484939575,-0.6022190451622009,0.5050943493843079
1761370643744053800,9.4560537109375,0.9065737128257751,-0.782418966293335,0.46844348311424255
1761370643762666200,9.474666259765625,0.7520293593406677,-0.18012358248233795,0.5484644770622253
1761370643781277200,9.493277099609376,0.1948602795600891,0.7905126810073853,0.3841465711593628
1761370643799889700,9.5118896484375,0.006719320081174374,0.6738408803939819,-0.2835858464241028
1761370643818500600,9.53050048828125,-0.033596597611904144,-0.17584764957427979,-1.478403091430664
1761370643837112800,9.54911279296875,-0.0910162404179573,-0.33894386887550354,-2.4484286308288574
1761370643855723800,9.567723876953124,-0.26877278089523315,-0.03779617324471474,-3.348282814025879
1761370643874336300,9.586336181640625,-0.34879377484321594,0.9071845412254333,-4.071526050567627
1761370643892947200,9.604947265625,-0.0525328628718853,1.482679009437561,-4.43375825881958
1761370643911559700,9.6235595703125,0.3555130958557129,1.3427950143814087,-4.063584804534912
1761370643930170600,9.642170654296875,0.5430431962013245,1.081886887550354,-2.838836193084717
1761370643948783000,9.660783203125,0.4960079789161682,1.0641722679138184,-1.3177502155303955
1761370643967394000,9.67939404296875,0.4446968138217926,0.9389485716819763,-0.08322793990373611
1761370643986006500,9.698006591796876,0.37200596928596497,0.2615189850330353,0.5735092163085938
1761370644004617500,9.716617431640625,0.43736663460731506,-0.29923880100250244,0.8606074452400208
1761370644023230000,9.73522998046875,0.6048151254653931,-0.5417451858520508,1.12082839012146
1761370644041841000,9.7538408203125,0.7031615376472473,-0.25770118832588196,1.449464201927185
1761370644060453400,9.772453369140624,0.6805602312088013,0.2584647536277771,1.6846404075622559
1761370644079064000,9.79106396484375,0.6341357827186584,0.7257629036903381,1.8391847610473633
1761370644097676500,9.809676513671874,0.641465961933136,0.8332720398902893,2.0022809505462646
1761370644116287500,9.82828759765625,0.6103127598762512,0.38613182306289673,2.1354455947875977
1761370644134900000,9.84689990234375,0.527161180973053,-0.3817031681537628,2.2508957386016846
1761370644153511000,9.865510986328125,0.41415444016456604,-0.7537091374397278,2.3926124572753906
1761370644172123400,9.884123291015625,0.33718767762184143,-0.6724664568901062,2.5105059146881104
1761370644190734300,9.902734375,0.24617144465446472,-0.6846834421157837,2.3522963523864746
1761370644209346800,9.921346923828125,0.22601348161697388,-0.8942040205001831,1.8996585607528687
1761370644227957800,9.939957763671876,0.33352261781692505,-1.0084325075149536,1.420143485069275
1761370644246570200,9.9585703125,0.4679090082645416,-1.0090433359146118,0.8276216983795166
1761370644265181200,9.97718115234375,0.35856732726097107,-0.7451573014259338,0.0029778804164379835
1761370644283793700,9.995793701171875,-0.15332266688346863,-0.019470756873488426,-0.8064711093902588
1761370644302404600,10.014404541015624,-0.32069480419158936,1.2450593709945679,-1.141215443611145
1761370644321016800,10.033016845703125,-0.23212195932865143,1.0959362983703613,-1.6885344982147217
1761370644339627800,10.051627685546874,-0.30969956517219543,0.06543701142072678,-2.6103031635284424
1761370644358240300,10.070240234375,-0.2498365342617035,-0.8496121764183044,-3.646376371383667
1761370644376851200,10.088851318359374,-0.4868452548980713,0.004352286923676729,-4.468576908111572
1761370644395463700,10.107463623046876,-0.7824953198432922,1.1814548969268799,-4.694590091705322
1761370644414074600,10.12607470703125,-0.6975875496864319,0.6475744247436523,-4.0641961097717285
1761370644432687000,10.14468701171875,-0.24189551174640656,-0.6315397024154663,-2.746598243713379
1761370644451298000,10.163298095703125,-0.010995250195264816,-1.2564364671707153,-1.2328424453735352
1761370644469910500,10.18191064453125,-0.16004198789596558,-0.9754467010498047,0.02924431301653385
1761370644488521500,10.200521484375,-0.37139514088630676,-0.14408360421657562,0.5319716334342957
1761370644507133700,10.2191337890625,-0.393385648727417,0.46126604080200195,0.46844348311424255
1761370644525744600,10.23774462890625,-0.3439069986343384,0.5113555192947388,0.18256697058677673
1761370644544357000,10.256357177734374,-0.3304683566093445,0.3109976053237915,0.11659546941518784
1761370644562968000,10.274968017578125,-0.3286358118057251,0.14912308752536774,0.359712690114975
1761370644581580500,10.29358056640625,-0.342074453830719,-0.07444700598716736,0.8227348923683167
1761370644600191500,10.31219140625,-0.47646087408065796,-0.006642963737249374,1.3560045957565308
1761370644618804000,10.330803955078125,-0.6621584296226501,0.21448373794555664,1.759163737297058
1761370644637415000,10.349414794921875,-0.7189671993255615,0.4001813232898712,1.9955615997314453
1761370644656027400,10.36802734375,-0.5509842038154602,0.39895960688591003,2.0804693698883057
1761370644674638300,10.386638427734376,-0.23028941452503204,0.0019088976550847292,1.9198166131973267
1761370644693250800,10.405250732421875,0.047646086663007736,-0.3474957346916199,1.390212059020996
1761370644711861800,10.42386181640625,0.1844758689403534,-0.6040515899658203,0.6449783444404602
1761370644730474000,10.442473876953125,0.3170297145843506,-0.6852942705154419,0.04879142343997955
1761370644749085000,10.4610849609375,0.3695625960826874,-0.3566584289073944,-0.08628217875957489
1761370644767697400,10.479697509765625,0.18142163753509521,-0.12026055157184601,-0.023975754156708717
1761370644786308400,10.498308349609376,0.09284878522157669,-0.5350258350372314,-0.14370182156562805
1761370644804920800,10.5169208984375,-0.22723518311977386,-1.530172348022461,-1.0251544713974
1761370644823531800,10.53553173828125,-0.6652126908302307,-1.927833914756775,-2.0183920860290527
1761370644842144300,10.554144287109375,-0.7415685653686523,-1.5717099905014038,-2.436211585998535
1761370644860755200,10.572755126953124,-0.6621584296226501,-0.6181010603904724,-2.1649954319000244
1761370644879367700,10.59136767578125,-0.6371136903762817,0.194325789809227,-1.5498721599578857
1761370644897978600,10.609978515625,-0.70308518409729,0.6530720591545105,-0.8980981707572937
1761370644916591000,10.628591064453126,-0.5644228458404541,0.4050680994987488,-0.41675055027008057
1761370644935202000,10.6472021484375,-0.2608317732810974,-0.23448899388313293,-0.15530791878700256
1761370644953814300,10.665814208984376,0.16004198789596558,-0.6407024264335632,0.004199574701488018
1761370644972425200,10.68442529296875,0.6481853127479553,-0.5869478583335876,0.3334462344646454
1761370644991037700,10.70303759765625,0.8717554211616516,-0.2656421959400177,0.6095492243766785
1761370645009648600,10.721648681640625,0.7062157988548279,-0.02802261710166931,0.888706386089325
1761370645028261000,10.74026123046875,0.29626092314720154,-0.0017561858985573053,1.1654201745986938
1761370645046872000,10.7588720703125,-0.09284878522157669,-0.07200361788272858,1.4525184631347656
1761370645065484500,10.777484619140624,-0.2101314514875412,0.20959696173667908,1.7738240957260132
1761370645084095500,10.796095458984375,-0.20707722008228302,0.5669426321983337,1.866062045097351
1761370645102708000,10.8147080078125,-0.037261683493852615,0.2596864402294159,1.5178791284561157
1761370645121319000,10.83331884765625,0.15149012207984924,-0.13736428320407867,1.2039035558700562
1761370645139931400,10.851931396484375,0.1447708010673523,0.14912308752536774,1.152592420578003
1761370645158542300,10.870542236328125,0.1325538605451584,0.5199073553085327,0.9894962310791016
1761370645177154600,10.889154541015625,0.19180603325366974,0.5461738109588623,0.639480710029602
1761370645195765500,10.907765625,0.32130566239356995,0.2609081268310547,-0.04840964451432228
1761370645214378000,10.9263779296875,0.569309651851654,-0.24487338960170746,-1.0954018831253052
1761370645232989000,10.944989013671876,0.854040801525116,-0.08910734206438065,-1.903552770614624
1761370645251601400,10.963601318359375,0.9609391093254089,0.1662268042564392,-2.086196184158325
1761370645270212400,10.98221240234375,0.692777156829834,0.3201603293418884,-1.6604355573654175
1761370645288824800,11.000824951171875,0.07391251623630524,0.25418880581855774,-1.1039537191390991
1761370645307435800,11.019435791015624,-0.5234960913658142,-0.013362283818423748,-0.9915578365325928
1761370645326048300,11.03804833984375,-0.7379034757614136,-0.018249060958623886,-1.2633848190307617
1761370645344659200,11.0566591796875,-0.5308262705802917,-0.022524992004036903,-1.5327684879302979
