time,seconds_elapsed,z,y,x
1761310944302988000,0.218988037109375,-1.1819894313812256,1.9023311138153076,0.25831204652786255
1761310944321599500,0.237599609375,-1.2192511558532715,1.9573073387145996,-0.12354385852813721
1761310944340212500,0.25621240234375,-1.6572285890579224,1.2523895502090454,-0.8162446618080139
1761310944358824000,0.274823974609375,-1.767791986465454,0.6378008723258972,-1.3000357151031494
1761310944377437000,0.29343701171875,-1.351194143295288,0.26701661944389343,-1.3489034175872803
1761310944396048400,0.31204833984375,-0.9889616966247559,0.19799086451530457,-1.446028232574463
1761310944414661400,0.330661376953125,-0.517998456954956,0.09292513877153397,-1.4857332706451416
1761310944433272800,0.34927294921875,-0.07146912813186646,0.11369394510984421,-1.4845114946365356
1761310944451885800,0.3678857421875,0.14843589067459106,0.10941801220178604,-1.3049224615097046
1761310944470497300,0.386497314453125,0.1960819661617279,0.23708508908748627,-0.9500201940536499
1761310944489110300,0.4051103515625,0.261442631483078,0.5913764834403992,-0.5651864409446716
1761310944507721700,0.4237216796875,0.15271180868148804,0.8754204511642456,-0.18523943424224854
1761310944526334700,0.442334716796875,0.00916270911693573,1.0928821563720703,0.052456509321928024
1761310944544946200,0.4609462890625,-0.07696675509214401,1.4307570457458496,0.13797512650489807
1761310944563559200,0.47955908203125,-0.07207997888326645,1.094714641571045,0.2271588295698166
1761310944582171000,0.4981708984375,-0.031153209507465363,0.93284010887146,0.32611608505249023
1761310944600783600,0.51678369140625,-0.05619794875383377,0.6035934686660767,0.42629504203796387
1761310944619395300,0.535395263671875,-0.1704263836145401,-0.02435753494501114,0.6571952700614929
1761310944638008300,0.55400830078125,-0.3512371778488159,-0.227769672870636,0.9571213126182556
1761310944656619800,0.572619873046875,-0.46851983666419983,0.2615189850330353,1.2509387731552124
1761310944675232800,0.591232666015625,-0.6316160559654236,0.6213080286979675,1.5728553533554077
1761310944693844200,0.60984423828125,-0.735460102558136,0.559001624584198,1.9906748533248901
1761310944712457200,0.628457275390625,-0.5149442553520203,0.822276771068573,2.4848504066467285
1761310944731068700,0.647068603515625,-0.1044548824429512,0.6610130667686462,2.7665271759033203
1761310944749681700,0.665681640625,-0.10689827054738998,-1.947991967201233,1.394487977027893
1761310944768293000,0.684293212890625,-0.5913001298904419,-1.5643798112869263,0.20883341133594513
1761310944786906000,0.702906005859375,-1.1147962808609009,-1.0951727628707886,-0.9695672988891602
1761310944805517600,0.721517578125,-1.349361538887024,-1.0902860164642334,-2.0061750411987305
1761310944824130600,0.740130615234375,-0.7128587365150452,-1.9241688251495361,-2.074589967727661
1761310944842742000,0.758741943359375,-0.40987852215766907,-2.45927095413208,-1.6726524829864502
1761310944861355000,0.77735498046875,-0.4752391576766968,-1.7635160684585571,-1.2285665273666382
1761310944879966500,0.795966552734375,-0.10384403169155121,-0.7518765926361084,-0.9610154628753662
1761310944898579500,0.814579345703125,0.2736595869064331,0.4563792645931244,-0.5774033665657043
1761310944917191000,0.83319091796875,0.444085955619812,0.9352834820747375,-0.14370182156562805
1761310944935804200,0.85180419921875,0.5497625470161438,0.724541187286377,0.08910734206438065
1761310944954415600,0.87041552734375,0.5283828973770142,0.28106608986854553,0.37803810834884644
1761310944973028600,0.889028564453125,0.5002838969230652,-0.09277242422103882,0.6345939636230469
1761310944991640000,0.90764013671875,0.4844018816947937,-0.33833301067352295,0.7702020406723022
1761310945010253000,0.926253173828125,0.582748293876648,-0.053678203374147415,0.8111287951469421
1761310945028864500,0.944864501953125,0.7007181644439697,0.35864371061325073,0.8251782655715942
1761310945047477500,0.9634775390625,0.5864133834838867,0.7581378221511841,0.7928034067153931
1761310945066089000,0.9820888671875,0.444085955619812,0.8015079498291016,0.6266529560089111
1761310945084702000,1.000701904296875,0.29381752014160156,0.5003602504730225,0.2662530541419983
1761310945103313400,1.0193134765625,0.012827792204916477,-0.0231358390301466,-0.35566580295562744
1761310945121926400,1.037926513671875,-0.2761029601097107,-0.5948888659477234,-1.1320526599884033
1761310945140537900,1.056537841796875,-0.49112120270729065,-0.8575531840324402,-1.867512822151184
1761310945159150800,1.07515087890625,-0.522885262966156,-1.3303489685058594,-2.1448373794555664
1761310945177762600,1.093762451171875,-0.5919110178947449,-1.245441198348999,-1.8559067249298096
1761310945196375300,1.112375244140625,-0.45141613483428955,-0.5112028121948242,-1.5303250551223755
1761310945214987000,1.130987060546875,-0.11056335270404816,0.07826480269432068,-0.8883246183395386
1761310945233600000,1.14960009765625,-0.12155860662460327,0.16989189386367798,-0.18401773273944855
1761310945252211500,1.16821142578125,-0.11667182296514511,0.42461520433425903,0.3029038906097412
1761310945270824400,1.186824462890625,-0.03787253051996231,0.5651100873947144,0.4085804522037506
1761310945289436000,1.205435791015625,0.009773556143045425,0.5919873714447021,0.3181750774383545
1761310945308049000,1.224048828125,0.24494975805282593,0.7037724256515503,0.07444700598716736
1761310945326660400,1.242660400390625,0.4453076422214508,1.0824977159500122,0.1862320601940155
1761310945345273300,1.2612734375,0.4086568057537079,1.307365894317627,0.34993913769721985
1761310945363884800,1.279884765625,0.4190412163734436,1.3427950143814087,0.3847574293613434
1761310945382497800,1.298497802734375,0.3164188861846924,1.03424072265625,0.35054996609687805
1761310945401109200,1.317109130859375,0.17286977171897888,0.48997586965560913,0.4116346836090088
1761310945419722200,1.33572216796875,0.16676130890846252,0.053830914199352264,0.18989713490009308
1761310945438334000,1.354333984375,0.20402298867702484,-0.035352785140275955,-0.0594048947095871
1761310945456946700,1.37294677734375,0.1973036676645279,-0.22838051617145538,-0.14431266486644745
1761310945475558400,1.391558349609375,0.10017894953489304,-0.5203655362129211,-0.2921377122402191
1761310945494171400,1.41017138671875,-0.15026842057704926,-0.8954257369041443,-0.4112529158592224
1761310945512782800,1.428782958984375,-0.4190412163734436,-0.9595646858215332,-0.36666107177734375
1761310945531395800,1.447395751953125,-0.23090025782585144,-1.2252832651138306,-0.5303681492805481
1761310945550007300,1.46600732421875,-0.01588202826678753,-0.8624399900436401,-0.6061131954193115
1761310945568620300,1.484620361328125,0.2644968628883362,-0.329781174659729,-0.42041563987731934
1761310945587231700,1.503231689453125,0.19363857805728912,-0.40491536259651184,-0.22738789021968842
1761310945605844700,1.5218447265625,0.24372805655002594,-1.0157626867294312,-0.04352286830544472
1761310945624456200,1.540456298828125,0.37689274549484253,-1.5802618265151978,0.0817771777510643
1761310945643069400,1.5590693359375,0.4703523814678192,-1.868581771850586,0.13003410398960114
1761310945661681000,1.577680908203125,0.43981003761291504,-1.0939511060714722,0.06589514762163162
1761310945680294000,1.5962939453125,0.3701734244823456,0.2688491642475128,-0.20722992718219757
1761310945698905300,1.6149052734375,0.3005368411540985,0.2615189850330353,-0.18340688943862915
1761310945717518300,1.633518310546875,0.16065283119678497,0.05199837312102318,-0.279920756816864
1761310945736129800,1.6521298828125,0.042759306728839874,-0.027411770075559616,-0.2408265322446823
1761310945754742800,1.67074267578125,-0.13621893525123596,0.025731941685080528,-0.10705098509788513
1761310945773354200,1.689354248046875,-0.3640649616718292,0.11125055700540543,-0.04107947647571564
1761310945791967200,1.70796728515625,-0.4330907166004181,0.3897969126701355,-0.1375933438539505
1761310945810578700,1.72657861328125,0.006719320081174374,0.10514208674430847,-0.30068957805633545
1761310945829191700,1.745191650390625,0.10628741979598999,-0.2821350693702698,-0.31534990668296814
1761310945847803400,1.763803466796875,0.01710372418165207,-0.3163425326347351,-0.26220619678497314
1761310945866416400,1.78241650390625,-0.0653606578707695,-0.18256697058677673,-0.10888352245092392
1761310945885027800,1.80102783203125,-0.10873081535100937,-0.03596363216638565,0.11170869320631027
1761310945903640800,1.819640869140625,-0.1172826737165451,0.005573981441557407,0.24365170300006866
1761310945922252300,1.838252197265625,-0.11056335270404816,-0.035352785140275955,0.2558686435222626
1761310945940865300,1.856865234375,-0.0659715011715889,-0.11537377536296844,0.2546469569206238
1761310945959476700,1.875476806640625,-0.1301104724407196,-0.22166119515895844,0.2754157483577728
1761310945978089700,1.89408984375,-0.11422843486070633,-0.29984965920448303,0.37864893674850464
1761310945996701200,1.912701171875,-0.1178935244679451,-0.29740625619888306,0.3926984369754791
1761310946015314400,1.931314453125,-0.1582094430923462,-0.3322245478630066,0.47027602791786194
1761310946033926000,1.94992578125,-0.2498365342617035,-0.2778591513633728,0.4910448491573334
1761310946052539000,1.968538818359375,-0.29626092314720154,-0.37559470534324646,0.44400960206985474
1761310946071150300,1.987150390625,-0.29565006494522095,-0.5454102754592896,0.33772218227386475
1761310946089763300,2.005763427734375,-0.3035911023616791,-0.7219451069831848,0.308401495218277
1761310946108374800,2.024374755859375,-0.2651077210903168,-0.7952467799186707,0.3071798086166382
1761310946126987800,2.04298779296875,-0.12705622613430023,-0.8276216983795166,0.22838051617145538
1761310946145599500,2.061599609375,-0.06841489672660828,-0.7860840559005737,0.12026055157184601
1761310946164212500,2.08021240234375,0.03787253051996231,-0.7408813834190369,0.0164165198802948
1761310946182824000,2.098823974609375,0.07207997888326645,-0.6425349712371826,0.00908635277301073
1761310946201437000,2.11743701171875,0.062306419014930725,-0.5026509165763855,0.11415208131074905
1761310946220048400,2.13604833984375,0.055587101727724075,-0.5252522826194763,0.2528144121170044
1761310946238661400,2.154661376953125,0.16126367449760437,-0.5478536486625671,0.22899135947227478
1761310946257272800,2.17327294921875,0.18569757044315338,-0.5539621114730835,0.18378867208957672
1761310946275885800,2.1918857421875,0.14965757727622986,-0.6187118887901306,-0.008093725889921188
1761310946294497500,2.21049755859375,0.020157959312200546,-0.5020400881767273,-0.16080553829669952
1761310946313110500,2.229110595703125,-0.04886778071522713,-0.33955472707748413,-0.2414373755455017
1761310946331722000,2.247721923828125,-0.04214845970273018,-0.17706935107707977,-0.20051060616970062
1761310946350335000,2.2663349609375,0.04825693368911743,-0.026190076023340225,-0.1626380831003189
1761310946368946400,2.284946533203125,0.22662433981895447,0.019623467698693275,-0.17974179983139038
1761310946387559400,2.303559326171875,0.3255815804004669,0.06543701142072678,-0.12354385852813721
1761310946406171100,2.322171142578125,0.24250635504722595,-0.07811209559440613,-0.06490252166986465
1761310946424784100,2.3407841796875,0.13621893525123596,-0.06650599837303162,0.05856497958302498
1761310946443395600,2.3593955078125,0.029320668429136276,-0.09888090193271637,0.1477486789226532
1761310946462008600,2.378008544921875,-0.08307522535324097,-0.14225105941295624,0.19539476931095123
1761310946480620000,2.3966201171875,-0.10995250940322876,-0.14164020121097565,0.2631988227367401
1761310946499233000,2.41523291015625,-0.043981000781059265,-0.13125580549240112,0.3010713458061218
1761310946517844700,2.4338447265625,0.0781884491443634,-0.11354123055934906,0.37437301874160767
1761310946536457700,2.452457763671875,0.21868331730365753,-0.024968381971120834,0.5539621114730835
1761310946555069200,2.471069091796875,0.3805578351020813,-0.12514732778072357,0.7445464730262756
1761310946573682200,2.48968212890625,0.5882459282875061,-0.1880646049976349,0.8025769591331482
1761310946592293600,2.508293701171875,0.8534299731254578,-0.15263545513153076,0.7585959434509277
1761310946610907000,2.526906982421875,1.080665111541748,-0.27236151695251465,0.7983010411262512
1761310946629518300,2.545518310546875,1.1185376644134521,-0.44034451246261597,0.8037986159324646
1761310946648131300,2.56413134765625,1.1484692096710205,-0.4910448491573334,0.9229138493537903
1761310946666742800,2.58274267578125,1.1985586881637573,-0.4256841838359833,1.0084325075149536
1761310946685355800,2.601355712890625,1.1845091581344604,-0.28763270378112793,0.9094752073287964
1761310946703967200,2.61996728515625,1.1521342992782593,-0.18378867208957672,0.7249993681907654
1761310946722580500,2.63858056640625,1.1081533432006836,-0.16363070905208588,0.5582380294799805
1761310946741192000,2.65719189453125,1.0751675367355347,-0.1074327602982521,0.3926984369754791
1761310946759805000,2.675804931640625,1.155799388885498,0.00007635590736754239,0.19295138120651245
1761310946778416400,2.69441650390625,1.2370420694351196,0.0752105712890625,0.06711684167385101
1761310946797029400,2.713029296875,1.216273307800293,-0.012751436792314053,0.03352024406194687
1761310946815641000,2.73164111328125,1.0934929847717285,-0.05184566229581833,-0.04718795046210289
1761310946834254000,2.750254150390625,0.9267316460609436,-0.16851748526096344,-0.1119377613067627
1761310946852865500,2.768865478515625,0.7324821949005127,-0.2796916961669922,-0.058183200657367706
1761310946871478500,2.787478515625,0.6170321106910706,-0.329781174659729,0.0029778804164379835
1761310946890090200,2.80609033203125,0.7214869856834412,-0.28763270378112793,0.02557922899723053
1761310946908703200,2.824703125,0.7410340905189514,-0.23448899388313293,0.20577916502952576
1761310946927314700,2.843314697265625,0.7129350900650024,-0.11720632016658783,0.4098021686077118
1761310946945927700,2.861927734375,0.5686988234519958,-0.08055548369884491,0.5545729398727417
1761310946964539100,2.8805390625,0.45385950803756714,-0.010918894782662392,0.6327614188194275
1761310946983152400,2.89915234375,0.393385648727417,0.13263021409511566,0.6498651504516602
1761310947001763800,2.917763916015625,0.37383851408958435,0.19004985690116882,0.5735092163085938
1761310947020376800,2.936376953125,0.3530697226524353,0.18455222249031067,0.3682645559310913
1761310947038988500,2.954988525390625,0.28282228112220764,0.1784437596797943,0.13675342500209808
1761310947057601500,2.9736015625,0.11606097966432571,0.1271325796842575,-0.03436015918850899
1761310947076213000,2.992212890625,-0.05375456064939499,0.13018682599067688,-0.10644013434648514
1761310947094826000,3.010825927734375,-0.1698155403137207,0.12530004978179932,-0.09300149232149124
1761310947113437700,3.029437744140625,-0.29442837834358215,0.07154548168182373,-0.009315420873463154
1761310947132050700,3.04805078125,-0.4459185004234314,0.0623827762901783,0.09093988686800003
1761310947150662100,3.066662109375,-0.46302223205566406,0.09720107167959213,0.19783815741539001
1761310947169275100,3.085275146484375,-0.5253286361694336,0.000687203137204051,0.2638096511363983
1761310947187886800,3.103886962890625,-0.6737645268440247,-0.06528430432081223,0.2656421959400177
1761310947206499800,3.122499755859375,-0.873511552810669,-0.15324631333351135,0.2528144121170044
1761310947225111300,3.141111328125,-0.9608627557754517,-0.16607409715652466,0.24914932250976562
1761310947243724300,3.159724365234375,-0.962695300579071,-0.01763821393251419,0.24731677770614624
1761310947262336000,3.1783359375,-0.8893936276435852,0.11369394510984421,0.3047364354133606
1761310947280949000,3.196948974609375,-0.6193991303443909,0.2602972984313965,0.2002815455198288
1761310947299560400,3.215560546875,-0.610236406326294,0.6164212226867676,-0.36360684037208557
1761310947318173700,3.234173583984375,-0.9743013978004456,0.817389965057373,-0.7447755336761475
1761310947336785200,3.25278515625,-1.4446537494659424,0.6775059700012207,-0.5780141949653625
1761310947355398100,3.271398193359375,-1.6089717149734497,0.6286382079124451,-0.27503398060798645
1761310947374009900,3.290009765625,-1.2736165523529053,0.8308286070823669,-0.030695075169205666
1761310947392622800,3.308622802734375,-0.9034430980682373,1.2505570650100708,0.19234053790569305
1761310947411234300,3.327234375,-0.6780404448509216,1.372726559638977,0.48249298334121704
1761310947429847600,3.34584765625,-0.5515950918197632,1.311641812324524,0.6749098896980286
1761310947448459000,3.364458984375,-0.42453885078430176,1.2823210954666138,0.667579710483551
1761310947467072000,3.383072021484375,-0.37383851408958435,1.2377293109893799,0.5301390886306763
1761310947485683500,3.401683349609375,-0.6542174220085144,1.0580638647079468,0.4488963782787323
1761310947504296700,3.420296630859375,-1.1141854524612427,0.7807391285896301,0.03290939703583717
1761310947522908200,3.438908203125,-1.4470971822738647,0.6799493432044983,-0.5425850749015808
1761310947541521400,3.457521484375,-1.5918679237365723,0.6689541339874268,-0.47233763337135315
1761310947560132900,3.4761328125,-1.599808931350708,0.431334525346756,-0.15286453068256378
1761310947578745900,3.494745849609375,-1.3689087629318237,0.25357797741889954,0.10682191699743271
1761310947597357600,3.513357666015625,-0.864959716796875,0.4178958833217621,0.26075541973114014
1761310947615970600,3.531970458984375,-0.30908870697021484,0.5565581917762756,0.41591063141822815
1761310947634582000,3.55058203125,0.17653486132621765,0.6994964480400085,0.561292290687561
1761310947653195300,3.5691953125,0.3402419090270996,0.6658998727798462,0.6938461065292358
1761310947671806700,3.587806640625,0.3011476993560791,0.8302177786827087,0.8129613399505615
1761310947690419700,3.606419677734375,0.22784602642059326,1.0159153938293457,0.7891383171081543
1761310947709031400,3.625031494140625,0.23823043704032898,0.8760313391685486,0.7714237570762634
1761310947727644400,3.64364453125,0.2858765125274658,0.5571690797805786,0.8551098108291626
1761310947746256100,3.662256103515625,0.33718767762184143,0.3103867769241333,0.958342969417572
1761310947764869000,3.680869140625,0.41110020875930786,-0.07322531193494797,1.0597436428070068
1761310947783480600,3.69948046875,0.23028941452503204,-0.010308047756552696,1.2240616083145142
1761310947802093800,3.71809375,-0.01038440316915512,-0.19478392601013184,1.5899590253829956
1761310947820705300,3.736705322265625,-0.11422843486070633,-0.27358320355415344,1.6919705867767334
1761310947839318500,3.755318603515625,-0.19058434665203094,-0.23265644907951355,1.679142713546753
1761310947857930000,3.773929931640625,-0.3029802441596985,-0.226547971367836,1.5759096145629883
1761310947876543000,3.79254296875,-0.3805578351020813,-0.2931303381919861,1.3309597969055176
1761310947895154700,3.81115478515625,-0.448361873626709,-0.2754157483577728,0.9980480670928955
1761310947913767700,3.829767578125,-0.4092676639556885,-0.2925194799900055,0.667579710483551
1761310947932379400,3.84837939453125,-0.2883199155330658,-0.40186113119125366,0.3719296157360077
1761310947950992400,3.866992431640625,-0.1459924876689911,-0.49715331196784973,0.08910734206438065
1761310947969604000,3.88560400390625,-0.06291726976633072,-0.3945309817790985,-0.2579302489757538
1761310947988217000,3.904217041015625,-0.04947862774133682,-0.16485241055488586,-0.4937172830104828
1761310948006828800,3.922828857421875,-0.033596597611904144,0.0745997205376625,-0.5548020005226135
1761310948025441800,3.94144189453125,0.09529217332601547,0.3238253891468048,-0.5596888065338135
1761310948044053200,3.96005322265625,0.367730051279068,0.40690064430236816,-0.4943281412124634
1761310948062666500,3.97866650390625,0.6597914099693298,0.4007921516895294,-0.31168481707572937
1761310948081278000,3.99727783203125,0.9273424744606018,0.39773792028427124,-0.01725643500685692
1761310948099891200,4.01589111328125,1.1448041200637817,0.3733040392398834,0.3328354060649872
1761310948118502700,4.034502685546875,1.3146196603775024,0.20165595412254333,0.6626929044723511
1761310948137116000,4.053115966796875,1.3763152360916138,-0.09338327497243881,0.8716026544570923
1761310948155727400,4.071727294921875,1.28590989112854,-0.24853847920894623,0.7341620326042175
1761310948174340600,4.090340576171875,0.9444462060928345,-0.16912832856178284,0.357269287109375
1761310948192952000,4.1089521484375,0.42759308218955994,-0.005421269219368696,-0.08261708915233612
1761310948211565300,4.1275654296875,-0.05619794875383377,0.32810133695602417,-0.5694623589515686
1761310948230176800,4.1461767578125,-0.2473931461572647,0.5180748105049133,-0.9225320816040039
1761310948248789800,4.164789794921875,-0.10140064358711243,0.4178958833217621,-1.1112838983535767
1761310948267401500,4.1834013671875,0.23028941452503204,0.35620030760765076,-1.2169604301452637
1761310948286014700,4.2020146484375,0.605426013469696,0.24991288781166077,-1.2084085941314697
1761310948304626200,4.220626220703125,0.8277744054794312,0.16256172955036163,-0.9726215600967407
1761310948323239400,4.239239501953125,0.7471425533294678,-0.05184566229581833,-0.439351886510849
1761310948341851000,4.257850830078125,0.5699204802513123,-0.11720632016658783,0.03962871432304382
1761310948360464100,4.276464111328125,0.43858832120895386,0.14423631131649017,0.0689493864774704
1761310948379075600,4.29507568359375,0.3292466700077057,0.48569992184638977,-0.2279987335205078
1761310948397688800,4.313688720703125,0.17653486132621765,0.2963372766971588,-0.27747735381126404
1761310948416300300,4.33230029296875,0.1563768982887268,0.09109259396791458,-0.30007871985435486
1761310948434913500,4.35091357421875,0.2229592502117157,0.0019088976550847292,-0.35505497455596924
1761310948453525000,4.36952490234375,0.29565006494522095,0.0019088976550847292,-0.3898732662200928
1761310948472138200,4.38813818359375,0.3286358118057251,0.020845163613557816,-0.4399627447128296
1761310948490750000,4.40675,0.33413344621658325,0.040392275899648666,-0.47233763337135315
1761310948509363000,4.425363037109375,0.33474430441856384,0.06910209357738495,-0.48638713359832764
1761310948527974700,4.443974609375,0.3640649616718292,0.1271325796842575,-0.4515688419342041
1761310948546587600,4.462587646484375,0.46668729186058044,0.2315874695777893,-0.3727695345878601
1761310948565199400,4.481199462890625,0.6701757907867432,0.43683215975761414,-0.2951919436454773
1761310948583812400,4.499812255859375,0.747753381729126,0.5657209157943726,-0.26098448038101196
1761310948602424000,4.518424072265625,0.6579588651657104,0.590765655040741,-0.3177932798862457
1761310948621037000,4.537037109375,0.46729815006256104,0.609701931476593,-0.37765631079673767
1761310948639648800,4.555648681640625,0.2492256760597229,0.3219928741455078,-0.2658712565898895
1761310948658262000,4.574261962890625,0.12644538283348083,0.1552315652370453,-0.020310672000050545
1761310948676873500,4.59287353515625,0.06841489672660828,0.07765395939350128,0.40125030279159546
1761310948695486700,4.61148681640625,-0.04459185153245926,0.16011834144592285,0.5264739990234375
1761310948714098200,4.63009814453125,-0.09895725548267365,0.5528931021690369,0.18439951539039612
1761310948732711400,4.64871142578125,-0.0525328628718853,0.9762102961540222,-0.37887802720069885
1761310948751323100,4.6673232421875,0.004275931045413017,1.2481136322021484,-0.9500201940536499
1761310948769936100,4.68593603515625,0.04153761267662048,1.090438723564148,-1.0691354274749756
1761310948788547800,4.7045478515625,0.24128466844558716,0.6530720591545105,-0.6531484127044678
1761310948807160800,4.723160888671875,0.5277720093727112,0.25296711921691895,0.07017108052968979
1761310948825772500,4.7417724609375,0.7007181644439697,-0.07505785673856735,0.7671477794647217
1761310948844385800,4.7603857421875,0.7673004865646362,-0.5961105823516846,1.2295591831207275
1761310948862997200,4.778997314453125,0.6616239547729492,-1.04569411277771,1.392655372619629
1761310948881610500,4.797610595703125,0.5057815313339233,-1.032866358757019,1.1532032489776611
1761310948900222200,4.81622216796875,0.5088357925415039,-0.6987329125404358,0.7152257561683655
1761310948918835200,4.834835205078125,0.46546560525894165,-0.1874537467956543,0.3029038906097412
1761310948937447000,4.853447021484375,0.3127537965774536,0.2340308576822281,-0.06490252166986465
1761310948956060200,4.87206005859375,0.1429382562637329,0.5614449977874756,-0.4008685052394867
1761310948974671600,4.890671630859375,0.036039989441633224,0.5950415730476379,-0.5193728804588318
1761310948993284900,4.909284912109375,0.05497625470161438,0.5070796012878418,-0.44362783432006836
1761310949011896300,4.927896240234375,0.1557660549879074,0.4301128387451172,-0.34100547432899475
1761310949030509600,4.946509521484375,0.30847787857055664,0.3775799572467804,-0.32512345910072327
1761310949049121300,4.965121337890625,0.5021164417266846,0.3659738600254059,-0.40636613965034485
1761310949067734500,4.983734619140625,0.7740198373794556,0.4136199355125427,-0.5242596864700317
1761310949086346000,5.002345947265625,0.9817079305648804,0.5223507881164551,-0.5993938446044922
1761310949104959200,5.020959228515625,1.1423606872558594,0.6310815811157227,-0.677582323551178
1761310949123571000,5.039571044921875,1.0183587074279785,0.7318713665008545,-0.6213843822479248
1761310949142184000,5.058183837890625,0.8754204511642456,0.6292490363121033,-0.462564080953598
1761310949160795600,5.076795654296875,0.7416449189186096,0.4673745036125183,-0.2921377122402191
1761310949179409000,5.095408935546875,0.7575269341468811,0.46370941400527954,-0.2695363461971283
1761310949198020400,5.114020263671875,0.641465961933136,0.3897969126701355,-0.2047865390777588
1761310949216633600,5.132633544921875,0.4159869849681854,0.08559497445821762,-0.07956285774707794
1761310949235245300,5.151245361328125,0.19424942135810852,-0.11842801421880722,-0.039857782423496246
1761310949253858300,5.1698583984375,0.021990500390529633,-0.2931303381919861,0.004810422193259001
1761310949272470000,5.188469970703125,-0.04459185153245926,-0.3450523316860199,0.04695888236165047
1761310949291083300,5.207083251953125,0.01832541823387146,-0.29496288299560547,0.1459161341190338
1761310949309695000,5.225695068359375,0.05008947476744652,-0.2931303381919861,0.3682645559310913
1761310949328308000,5.244307861328125,0.02504473738372326,-0.2900761067867279,0.5502970218658447
1761310949346919700,5.262919677734375,0.004886778071522713,-0.26197710633277893,0.6419241428375244
1761310949365533000,5.281532958984375,0.0006108472589403391,-0.21066594123840332,0.7011762857437134
1761310949384144600,5.30014453125,-0.045202698558568954,-0.1611873209476471,0.7891383171081543
1761310949402757600,5.318757568359375,-0.14965757727622986,-0.004199574701488018,0.7384379506111145
1761310949421369300,5.337369384765625,-0.13438639044761658,0.14851224422454834,0.5246414542198181
1761310949439982600,5.355982666015625,0.13988402485847473,0.29145050048828125,0.37742725014686584
1761310949458594300,5.37459423828125,0.577861487865448,0.5449520945549011,0.35177165269851685
1761310949477207300,5.393207275390625,1.1234244108200073,0.7526401877403259,0.4873797595500946
1761310949495819000,5.411819091796875,1.5314704179763794,0.845488965511322,0.6871268153190613
1761310949514432300,5.430432373046875,1.705561876296997,0.6274164915084839,0.9803335070610046
1761310949533044000,5.4490439453125,1.6799063682556152,0.3641413152217865,1.1037245988845825
1761310949551657000,5.467656982421875,1.5253620147705078,0.4802022874355316,0.90336674451828
1761310949570268700,5.4862685546875,1.1784007549285889,0.845488965511322,0.5057051777839661
1761310949588882000,5.5048818359375,0.5595360994338989,0.822276771068573,0.24365170300006866
1761310949607493600,5.52349365234375,0.1185043677687645,0.8253310322761536,0.059175826609134674
1761310949626106600,5.542106689453125,0.03665083646774292,1.0000332593917847,-0.125987246632576
1761310949644718300,5.56071826171875,0.28343313932418823,1.1063207387924194,-0.22677704691886902
1761310949663331600,5.57933154296875,0.6622347831726074,1.1319763660430908,-0.252432644367218
1761310949681943300,5.597943359375,0.9927031397819519,1.053176999092102,-0.21089501678943634
1761310949700556300,5.616556396484375,1.1185376644134521,0.8851940631866455,-0.11682453751564026
1761310949719168000,5.63516796875,1.0898278951644897,0.7850151062011719,-0.029473381116986275
1761310949737781200,5.65378125,1.0128611326217651,0.7581378221511841,-0.02764083817601204
1761310949756393000,5.67239306640625,0.9548306465148926,0.8131140470504761,-0.11621369421482086
1761310949775006200,5.691006103515625,0.9218448400497437,0.7935669422149658,-0.21150586009025574
1761310949793618000,5.709617919921875,0.8864157199859619,0.6347466707229614,-0.2292204350233078
1761310949812231000,5.72823095703125,0.8302177786827087,0.4826456904411316,-0.28786176443099976
1761310949830842600,5.746842529296875,0.8039513230323792,0.4020138382911682,-0.25060009956359863
1761310949849455900,5.765455810546875,0.7538618445396423,0.35558944940567017,-0.20661908388137817
1761310949868067600,5.784067626953125,0.6842252612113953,0.35436776280403137,-0.13209572434425354
1761310949886680800,5.802680908203125,0.5925218462944031,0.32810133695602417,-0.049020491540431976
1761310949905292300,5.821292236328125,0.4679090082645416,0.3091650605201721,-0.04230117425322533
1761310949923905500,5.839905517578125,0.3426853120326996,0.3513135313987732,-0.22372281551361084
1761310949942517200,5.858517333984375,0.24006296694278717,0.3616979420185089,-0.32634514570236206
1761310949961130500,5.877130615234375,0.1710372269153595,0.29145050048828125,-0.32573428750038147
1761310949979742200,5.8957421875,0.07452336698770523,0.05932854115962982,-0.36727190017700195
1761310949998355500,5.91435546875,0.28282228112220764,-0.020692450925707817,-0.5034908652305603
1761310950016967000,5.932966796875,0.29687178134918213,-0.020692450925707817,-0.5896202921867371
1761310950035580200,5.951580078125,0.24617144465446472,-0.07322531193494797,-0.6213843822479248
1761310950054191900,5.97019189453125,0.1966928243637085,-0.13797512650489807,-0.728282630443573
1761310950072805000,5.98880517578125,0.18691925704479218,-0.07872293889522552,-0.8290724158287048
1761310950091416800,6.007416748046875,0.07207997888326645,0.07948649674654007,-0.9463551044464111
1761310950110030000,6.026030029296875,0.05925218388438225,0.5443412661552429,-1.4014363288879395
1761310950128641500,6.0446416015625,0.16615045070648193,1.0366841554641724,-2.0611512660980225
1761310950147254800,6.0632548828125,0.09956810623407364,1.1564102172851562,-2.361077308654785
1761310950165866500,6.081866455078125,-0.022601349279284477,0.8363262414932251,-2.0446584224700928
1761310950184479700,6.100479736328125,0.006719320081174374,0.26640576124191284,-1.1839747428894043
1761310950203091500,6.119091552734375,0.1973036676645279,-0.013362283818423748,-0.06612421572208405
1761310950221704700,6.13770458984375,0.38544461131095886,-0.1740151196718216,0.9320765733718872
1761310950240316400,6.15631640625,0.5204418897628784,-0.37803810834884644,1.4360255002975464
1761310950258929400,6.174929443359375,0.6347466707229614,-0.4366794228553772,1.3786059617996216
1761310950277541000,6.193541015625,0.7770740985870361,-0.18012358248233795,0.8398386240005493
1761310950296154400,6.212154296875,0.8558733463287354,0.17600037157535553,0.08910734206438065
1761310950314766000,6.23076611328125,0.8436564207077026,0.4160633385181427,-0.5926745533943176
1761310950333379300,6.24937939453125,0.7312605381011963,0.5559473633766174,-1.0416473150253296
1761310950351991000,6.267990966796875,0.5473191738128662,0.4960843324661255,-1.2896512746810913
1761310950370604300,6.286604248046875,0.33352261781692505,0.3342097997665405,-1.372726559638977
1761310950389216000,6.305216064453125,0.11545012891292572,0.044668205082416534,-1.22795569896698
1761310950407829000,6.3238291015625,0.06413896381855011,-0.21677441895008087,-0.936581552028656
1761310950426440700,6.342440673828125,0.0910162404179573,-0.31145575642585754,-0.5499152541160583
1761310950445054000,6.361053955078125,0.1325538605451584,-0.3334462344646454,-0.19440214335918427
1761310950463665700,6.379665771484375,0.20341213047504425,-0.26930728554725647,0.0231358390301466
1761310950482279000,6.39827880859375,0.24617144465446472,-0.07505785673856735,0.09216158092021942
1761310950500890600,6.416890625,0.24678228795528412,0.06116108223795891,0.044515494257211685
1761310950519504000,6.43550390625,0.2767138183116913,0.19615831971168518,-0.12354385852813721
1761310950538115600,6.454115478515625,0.34451785683631897,0.3403182923793793,-0.24815669655799866
1761310950556728800,6.472728759765625,0.33535513281822205,0.3488701283931732,-0.2579302489757538
1761310950575340300,6.49134033203125,0.24067382514476776,0.21265120804309845,-0.1638597846031189
1761310950593953500,6.50995361328125,0.1429382562637329,0.09170344471931458,-0.07528692483901978
1761310950612565200,6.528565185546875,0.045202698558568954,0.05688514932990074,-0.009315420873463154
1761310950631178500,6.547178466796875,0.0024433890357613564,0.0025197449140250683,0.036574479192495346
1761310950649790200,6.565790283203125,0.021379653364419937,-0.054899897426366806,0.11598462611436844
1761310950668403500,6.584403564453125,0.0030542362947016954,-0.2943520247936249,0.3010713458061218
1761310950687015200,6.60301513671875,0.08124268800020218,-0.3432198166847229,0.4348468780517578
1761310950705628400,6.62162841796875,0.1985253542661667,-0.32367268204689026,0.5325824618339539
1761310950724240100,6.640240234375,0.19180603325366974,-0.2754157483577728,0.5667899250984192
1761310950742853400,6.658853271484375,0.130721315741539,-0.15080291032791138,0.4745519757270813
1761310950761465000,6.677465087890625,-0.0024433890357613564,-0.11964970827102661,0.36521029472351074
1761310950780078000,6.696078125,-0.2608317732810974,-0.29557371139526367,0.23448899388313293
1761310950798689800,6.714689697265625,-0.6090146899223328,-0.276637464761734,-0.13331741094589233
1761310950817303000,6.733302978515625,-0.8625163435935974,-0.14408360421657562,-0.7631009221076965
1761310950835914800,6.751914794921875,-0.9077190160751343,-0.03840702027082443,-1.2694933414459229
1761310950854528000,6.770528076171875,-0.8509102463722229,0.18882815539836884,-1.5174973011016846
1761310950873139700,6.7891396484375,-0.7446228265762329,0.3598653972148895,-1.3427950143814087
1761310950891753000,6.8077529296875,-0.6517740488052368,0.25418880581855774,-0.6012263894081116
1761310950910364700,6.82636474609375,-0.3530697226524353,-0.11170869320631027,0.2253262847661972
1761310950928978000,6.84497802734375,0.020157959312200546,-0.5783960223197937,0.8850412964820862
1761310950947589600,6.863589599609375,0.3005368411540985,-0.7396596670150757,1.2112337350845337
1761310950966202600,6.88220263671875,0.3512371778488159,-0.621155321598053,1.1538140773773193
1761310950984814600,6.900814697265625,0.1459924876689911,-0.3462740480899811,0.7555416822433472
1761310951003427600,6.919427490234375,-0.2107423096895218,-0.11842801421880722,0.1740151196718216
1761310951022039300,6.938039306640625,-0.4599680006504059,0.11002886295318604,-0.2829749882221222
1761310951040652500,6.956652587890625,-0.4062134325504303,0.2871745824813843,-0.5144860744476318
1761310951059264300,6.97526416015625,-0.21807247400283813,0.40690064430236816,-0.4375193417072296
1761310951077877500,6.99387744140625,-0.014660334214568138,0.26701661944389343,-0.11682453751564026
1761310951096489200,7.0124892578125,0.2626643180847168,0.08376242965459824,0.18928629159927368
1761310951115102500,7.0311025390625,0.47829338908195496,0.012293301522731781,0.37437301874160767
1761310951133714200,7.049714111328125,0.5882459282875061,-0.04818057641386986,0.47882789373397827
1761310951152327400,7.068327392578125,0.6439093947410583,-0.07261446863412857,0.4916556775569916
1761310951170939100,7.086939208984375,0.5882459282875061,-0.03962871432304382,0.3994177579879761
1761310951189552400,7.105552490234375,0.3823903799057007,-0.027411770075559616,0.27113983035087585
1761310951208164000,7.1241640625,0.1301104724407196,-0.035352785140275955,0.1361425817012787
1761310951226777300,7.14277734375,-0.04825693368911743,-0.050013117492198944,-0.0050394898280501366
1761310951245389000,7.16138916015625,-0.10262233763933182,-0.07750124484300613,-0.06551336497068405
1761310951264002000,7.180001953125,-0.06169557198882103,-0.11598462611436844,-0.06734590977430344
1761310951282614000,7.198614013671875,-0.031153209507465363,-0.15446799993515015,-0.008093725889921188
1761310951301227000,7.21722705078125,-0.08674030750989914,-0.17096087336540222,0.06589514762163162
1761310951319838700,7.235838623046875,-0.16615045070648193,-0.15324631333351135,0.1330883502960205
1761310951338452000,7.254451904296875,-0.18081079423427582,-0.050013117492198944,0.2131093442440033
1761310951357063700,7.273063720703125,-0.22479179501533508,0.13201937079429626,0.3181750774383545
1761310951375677000,7.291677001953125,-0.29320669174194336,0.2963372766971588,0.4629458785057068
1761310951394288600,7.31028857421875,-0.31947311758995056,0.4661528170108795,0.5460211038589478
1761310951412902000,7.32890185546875,-0.24494975805282593,0.5883222818374634,0.5325824618339539
1761310951431513600,7.347513671875,-0.1557660549879074,0.5473955273628235,0.5112028121948242
1761310951450126800,7.366126953125,-0.183865025639534,0.3739148676395416,0.3810923397541046
1761310951468738600,7.384738525390625,-0.21807247400283813,0.3879643678665161,-0.07467607408761978
1761310951487351800,7.403351806640625,-0.25655585527420044,0.6078693866729736,-0.6403206586837769
1761310951505963500,7.421963623046875,-0.2217375487089157,0.873587965965271,-1.0251544713974
1761310951524576800,7.44057666015625,-0.15454435348510742,0.9255099296569824,-1.0392038822174072
1761310951543188500,7.4591884765625,-0.033596597611904144,0.61397784948349,-0.5981721878051758
1761310951561801700,7.4778017578125,0.12827792763710022,0.22364644706249237,0.1984490007162094
1761310951580413400,7.496413330078125,0.2620534598827362,-0.0035887276753783226,0.9381850361824036
1761310951599026700,7.515026611328125,0.3915531039237976,-0.03901786729693413,1.2527713775634766
1761310951617638400,7.533638427734375,0.49417543411254883,0.023899398744106293,1.096394419670105
1761310951636251600,7.552251708984375,0.6164212226867676,0.13079766929149628,0.6193227767944336
1761310951654863000,7.570863037109375,0.6982747912406921,0.322603702545166,0.013973130844533443
1761310951673476400,7.589476318359375,0.6915554404258728,0.5840463638305664,-0.621995210647583
1761310951692088000,7.608088134765625,0.6115344762802124,0.8583167791366577,-1.1418262720108032
1761310951710701300,7.626701416015625,0.42392799258232117,0.8515974283218384,-1.2603305578231812
1761310951729313000,7.64531298828125,0.2492256760597229,0.5638883709907532,-1.0911259651184082
1761310951747926300,7.66392626953125,0.08796200156211853,0.39712706208229065,-0.8296833038330078
1761310951766538000,7.6825380859375,0.11178504675626755,0.1814979910850525,-0.5315898060798645
1761310951785151200,7.701151123046875,0.19180603325366974,0.04650074616074562,-0.1620272397994995
1761310951803763000,7.719762939453125,0.1557660549879074,-0.0011453386396169662,0.0823880210518837
1761310951822376200,7.738376220703125,0.08124268800020218,0.028786176815629005,0.10926530510187149
1761310951840988000,7.75698779296875,0.006719320081174374,0.13507360219955444,0.012751436792314053
1761310951859601200,7.77560107421875,-0.023212196305394173,0.16072918474674225,-0.0850604772567749
1761310951878212900,7.794212890625,-0.009773556143045425,0.09475768357515335,-0.17302247881889343
1761310951896826000,7.812826171875,0.021379653364419937,-0.021303297951817513,-0.2707580327987671
1761310951915437800,7.831437744140625,0.007941014133393764,-0.1214822456240654,-0.362995982170105
1761310951934051000,7.850051025390625,-0.0653606578707695,-0.15507884323596954,-0.37704548239707947
1761310951952662800,7.868662841796875,-0.15271180868148804,-0.14897038042545319,-0.2927485406398773
1761310951971276000,7.887276123046875,-0.20463383197784424,-0.15080291032791138,-0.16080553829669952
1761310951989887700,7.9058876953125,-0.22601348161697388,-0.1856212168931961,-0.031916771084070206
1761310952008501000,7.9245009765625,-0.21685077250003815,-0.20761170983314514,0.03168770298361778
1761310952027112700,7.94311279296875,-0.16676130890846252,-0.18439951539039612,0.027411770075559616
1761310952045725700,7.9617255859375,-0.0922379344701767,-0.10621106624603271,-0.011147962883114815
1761310952064337700,7.980337646484375,-0.036039989441633224,-0.06284090876579285,-0.0587940476834774
1761310952082950700,7.99895068359375,-0.006108472589403391,-0.07811209559440613,-0.07040014863014221
1761310952101562400,8.017562255859374,-0.10017894953489304,-0.2259371280670166,0.02008160389959812
1761310952120175600,8.036175537109376,-0.17836740612983704,-0.280913382768631,0.11903885751962662
1761310952138787300,8.054787353515625,-0.3500154912471771,-0.3438306450843811,0.30962321162223816
1761310952157400600,8.073400634765624,-0.6664343476295471,-0.4629458785057068,0.46844348311424255
1761310952176012300,8.09201220703125,-0.888171911239624,-0.4519506096839905,0.31328830122947693
1761310952194625500,8.11062548828125,-0.9248227477073669,-0.39025503396987915,0.04146125912666321
1761310952213237200,8.1292373046875,-0.7831062078475952,-0.24609509110450745,-0.2011214643716812
1761310952231850500,8.1478505859375,-0.4960079789161682,-0.12331479042768478,-0.2805316150188446
1761310952250462200,8.166462158203124,-0.11422843486070633,-0.09155073016881943,-0.04474456235766411
1761310952269075500,8.185075439453126,0.26938363909721375,-0.24243000149726868,0.44400960206985474
1761310952287687200,8.203687255859375,0.6744517087936401,-0.4391228258609772,0.8587749004364014
1761310952306300400,8.222300537109374,1.0739458799362183,-0.5509078502655029,1.0389748811721802
1761310952324912000,8.240912109375,1.1545777320861816,-0.41529977321624756,0.8300650715827942
1761310952343525400,8.259525390625,0.7355364561080933,-0.2271588295698166,0.3419981002807617
1761310952362137000,8.27813720703125,0.047646086663007736,-0.043293800204992294,-0.24632415175437927
1761310952380750300,8.296750244140625,-0.5253286361694336,0.037948887795209885,-0.7124006152153015
1761310952399362000,8.315362060546875,-0.7012526392936707,0.15034478902816772,-1.000720500946045
1761310952417975300,8.333975341796876,-0.5418215394020081,0.22425730526447296,-1.0679137706756592
1761310952436587000,8.3525869140625,-0.16553960740566254,-0.030466007068753242,-0.9335273504257202
1761310952455200300,8.3712001953125,0.13744063675403595,-0.1336991935968399,-0.5364766120910645
1761310952473812000,8.38981201171875,0.31886225938796997,-0.2143310308456421,-0.09605573117733002
1761310952492425200,8.40842529296875,0.3646758198738098,-0.2815242409706116,0.17584764957427979
1761310952511037000,8.427036865234374,0.23823043704032898,-0.2900761067867279,0.26930728554725647
1761310952529650000,8.44564990234375,0.021379653364419937,-0.20211409032344818,0.21982865035533905
1761310952548261600,8.46426171875,-0.16492876410484314,-0.15385715663433075,0.13064496219158173
1761310952566875000,8.482875,-0.2730487287044525,-0.15752223134040833,0.00786465872079134
1761310952585486600,8.501486572265625,-0.291374146938324,-0.14958122372627258,-0.09177979826927185
1761310952604099800,8.520099853515624,-0.24067382514476776,-0.14530529081821442,-0.13576079905033112
1761310952622711600,8.538711669921875,-0.1985253542661667,-0.18439951539039612,-0.10949437320232391
1761310952641324800,8.55732470703125,-0.17286977171897888,-0.24426254630088806,-0.009315420873463154
1761310952659936500,8.5759365234375,-0.18753011524677277,-0.2546469569206238,0.11842801421880722
1761310952678549800,8.5945498046875,-0.20219044387340546,-0.24426254630088806,0.21982865035533905
1761310952697161500,8.613161376953125,-0.12094775587320328,-0.15752223134040833,0.26991814374923706
1761310952715774700,8.631774658203126,0.043981000781059265,-0.0035887276753783226,0.25892287492752075
1761310952734386400,8.650386474609375,0.27060532569885254,0.13507360219955444,0.2002815455198288
1761310952752999700,8.668999755859375,0.3915531039237976,0.1790546029806137,0.061619218438863754
1761310952771611400,8.687611328125,0.37506023049354553,0.2077644169330597,-0.09666658192873001
1761310952790224600,8.706224609375,0.2724378705024719,0.23525254428386688,-0.13942588865756989
1761310952808836400,8.72483642578125,0.1563768982887268,0.24319356679916382,-0.05757235363125801
1761310952827449600,8.74344970703125,0.09834641218185425,0.193104088306427,0.07078192383050919
1761310952846061300,8.762061279296875,0.07513421028852463,0.16072918474674225,0.12392564117908478
1761310952864674300,8.78067431640625,0.02993151545524597,0.246247798204422,0.015805672854185104
1761310952883286000,8.7992861328125,0.05497625470161438,0.44782739877700806,-0.2536543309688568
1761310952901899300,8.817899169921875,0.20341213047504425,0.6524612307548523,-0.5358657836914062
1761310952920511000,8.836510986328125,0.3164188861846924,0.6408551335334778,-0.6384881138801575
1761310952939124200,8.855124267578125,0.3530697226524353,0.46432027220726013,-0.3605526089668274
1761310952957736000,8.87373583984375,0.3249707520008087,0.38002336025238037,0.17645850777626038
1761310952976349200,8.89234912109375,0.34451785683631897,0.32871219515800476,0.704230546951294
1761310952994961000,8.9109609375,0.44042086601257324,0.17111359536647797,1.0298120975494385
1761310953013574100,8.92957421875,0.5729747414588928,-0.12270393967628479,1.028590440750122
1761310953032185900,8.948185791015625,0.5772506594657898,-0.2118876427412033,0.44523128867149353
1761310953050799000,8.966799072265625,0.5296045541763306,-0.08360971510410309,-0.35383328795433044
1761310953069410800,8.985410888671876,0.5210527181625366,0.06116108223795891,-0.9378032684326172
1761310953088024000,9.004024169921875,0.5112791657447815,0.193104088306427,-1.1320526599884033
1761310953106635800,9.0226357421875,0.3939964771270752,0.2627406716346741,-0.9579612016677856
1761310953125249000,9.0412490234375,0.17409147322177887,0.24930204451084137,-0.6006155610084534
1761310953143860700,9.05986083984375,-0.06169557198882103,0.07032378762960434,-0.20906247198581696
1761310953162474000,9.078473876953124,-0.19180603325366974,-0.20700086653232574,0.14041851460933685
1761310953181085700,9.097085693359375,-0.17836740612983704,-0.44523128867149353,0.35360419750213623
1761310953199698700,9.11569873046875,0.009773556143045425,-0.5118136405944824,0.41407808661460876
1761310953218310400,9.134310302734375,0.2718270421028137,-0.38964420557022095,0.37864893674850464
1761310953236923600,9.152923583984375,0.5106683373451233,-0.174625962972641,0.31389912962913513
1761310953255535400,9.171535400390624,0.6946097016334534,0.03733803704380989,0.16851748526096344
1761310953274148600,9.190148681640625,0.7556943893432617,0.12285665422677994,0.02924431301653385
1761310953292760300,9.20876025390625,0.7208760976791382,0.08437328040599823,-0.06306997686624527
1761310953311373600,9.22737353515625,0.6035934686660767,-0.020692450925707817,-0.13148486614227295
1761310953329985300,9.2459853515625,0.4960079789161682,-0.07444700598716736,-0.20356485247612
1761310953348598500,9.2645986328125,0.39949411153793335,-0.06406260281801224,-0.22494450211524963
1761310953367210200,9.283210205078126,0.33535513281822205,-0.044515494257211685,-0.1522536724805832
1761310953385823500,9.301823486328125,0.32008397579193115,-0.04085041210055351,-0.005650337319821119
1761310953404435200,9.320435302734374,0.3432961702346802,-0.07627955079078674,0.19600561261177063
1761310953423048400,9.33904833984375,0.3512371778488159,-0.14897038042545319,0.38903334736824036
1761310953441660200,9.35766015625,0.3261924386024475,-0.21921780705451965,0.5289173722267151
1761310953460273400,9.3762734375,0.28098973631858826,-0.23326729238033295,0.593056321144104
1761310953478884900,9.394884765625,0.2107423096895218,-0.24181915819644928,0.6101600527763367
1761310953497498000,9.413498046875,0.12644538283348083,-0.2760266065597534,0.5790068507194519
1761310953516109800,9.43210986328125,0.1178935244679451,-0.406137079000473,0.5130353569984436
1761310953534723000,9.45072314453125,0.014049487188458443,-0.5631248354911804,0.37498384714126587
1761310953553334800,9.469334716796874,-0.09773556143045425,-0.35360419750213623,-0.047798797488212585
1761310953571948000,9.487947998046875,-0.12461283802986145,-0.15080291032791138,-0.48577627539634705
1761310953590559700,9.506559814453125,-0.022601349279284477,0.026342788711190224,-0.6806365847587585
1761310953609173000,9.525173095703124,0.09651386737823486,0.12346750497817993,-0.4680617153644562
1761310953627784700,9.54378466796875,0.2339545041322708,0.11735902726650238,0.11842801421880722
1761310953646398000,9.56239794921875,0.46668729186058044,0.01901262067258358,0.769591212272644
1761310953665009700,9.581009765625,0.7978428602218628,-0.14897038042545319,1.2503279447555542
1761310953683623000,9.599622802734375,0.9487221240997314,-0.26197710633277893,1.3254622220993042
1761310953702234600,9.618234619140624,0.9071845412254333,-0.14102935791015625,0.9760575890541077
1761310953720848000,9.636847900390626,0.7111025452613831,0.1295759677886963,0.37742725014686584
1761310953739459600,9.65545947265625,0.4227063059806824,0.4392755329608917,-0.24021568894386292
1761310953758072600,9.674072509765624,0.2089097648859024,0.6848361492156982,-0.7130114436149597
1761310953776684300,9.692684326171875,0.16187451779842377,0.799064576625824,-0.9555178284645081
1761310953795297500,9.711297607421875,0.29748260974884033,0.7306496500968933,-0.881605327129364
1761310953813909200,9.7299091796875,0.5674771070480347,0.5461738109588623,-0.5596888065338135
1761310953832522500,9.7485224609375,0.8381587862968445,0.3348206579685211,-0.125987246632576
1761310953851134200,9.76713427734375,0.9847621321678162,0.13201937079429626,0.2503710091114044
1761310953869747500,9.78574755859375,0.9548306465148926,0.025121092796325684,0.4898231327533722
1761310953888359200,9.804359130859375,0.854040801525116,0.06116108223795891,0.5167004466056824
1761310953906972400,9.822972412109374,0.7520293593406677,0.13873867690563202,0.3664320111274719
1761310953925584100,9.841584228515625,0.6402443051338196,0.2566322088241577,0.16485241055488586
1761310953944197400,9.860197265625,0.5320479869842529,0.3531460762023926,0.01885990984737873
1761310953962809000,9.87880908203125,0.47707170248031616,0.37024980783462524,-0.03924693539738655
1761310953981422000,9.897422119140625,0.46607646346092224,0.31893861293792725,-0.039857782423496246
1761310954000033800,9.91603369140625,0.48928865790367126,0.24319356679916382,-0.03436015918850899
1761310954018647000,9.93464697265625,0.4978405237197876,0.1821088343858719,0.036574479192495346
1761310954037258800,9.9532587890625,0.4581354558467865,0.1668376624584198,0.1862320601940155
1761310954055872000,9.9718720703125,0.37506023049354553,0.15706409513950348,0.3163425326347351
1761310954074483700,9.990483642578125,0.31886225938796997,0.1265217363834381,0.3682645559310913
1761310954093097000,10.009096923828125,0.39766156673431396,0.15095563232898712,0.3664320111274719
1761310954111708700,10.027708740234376,0.5821374654769897,0.18577392399311066,0.33955472707748413
1761310954130322000,10.046322021484375,0.6249731183052063,0.1802763044834137,0.3462740480899811
1761310954148933600,10.06493359375,0.5088357925415039,0.1662268042564392,0.33955472707748413
1761310954167547000,10.083546875,0.36284327507019043,0.18271969258785248,0.32733777165412903
1761310954186158600,10.10215869140625,0.33474430441856384,0.1790546029806137,0.34810659289360046
1761310954204771600,10.120771484375,0.37200596928596497,0.09048175066709518,0.40063944458961487
1761310954223383300,10.13938330078125,0.337798535823822,0.13629528880119324,0.27175068855285645
1761310954241996500,10.15799658203125,0.25411245226860046,0.3922402858734131,-0.1754658818244934
1761310954260608300,10.176608154296876,0.24311721324920654,0.7538618445396423,-0.7178982496261597
1761310954279221500,10.195221435546875,0.29626092314720154,0.9694909453392029,-1.0960127115249634
1761310954297833200,10.213833251953124,0.4874561131000519,0.9059628248214722,-0.8315158486366272
1761310954316446500,10.232446533203126,0.799064576625824,0.7135459780693054,-0.11926792562007904
1761310954335058200,10.25105810546875,1.1331980228424072,0.5333459973335266,0.597332239151001
1761310954353671200,10.269671142578124,1.381201982498169,0.32932302355766296,1.0707389116287231
1761310954372283100,10.288283203125,1.4239612817764282,0.061771929264068604,1.1984059810638428
1761310954390896000,10.306896240234375,1.2254359722137451,-0.07505785673856735,0.9039775729179382
1761310954409507800,10.3255078125,1.067226529121399,0.01901262067258358,0.31389912962913513
1761310954428121000,10.34412109375,1.0898278951644897,0.30366745591163635,-0.3232909142971039
1761310954446732800,10.36273291015625,1.1692379713058472,0.6445202231407166,-0.8241856694221497
1761310954465346000,10.381345947265626,1.2345986366271973,0.8992435336112976,-1.0880717039108276
1761310954483957800,10.399957763671875,1.2620867490768433,0.9853729605674744,-1.1057862043380737
1761310954502571000,10.418571044921874,1.2474265098571777,0.7782957553863525,-0.9793408513069153
1761310954521182700,10.4371826171875,1.1234244108200073,0.3360423445701599,-0.8003626465797424
1761310954539795700,10.455795654296875,0.9591065645217896,0.03978142887353897,-0.5963396430015564
1761310954558407400,10.474407470703126,0.8302177786827087,0.04772244393825531,-0.35383328795433044
1761310954577020700,10.493020751953125,0.7789065837860107,0.18333053588867188,-0.1632489264011383
1761310954595632400,10.51163232421875,0.8021187782287598,0.1674485057592392,-0.13392825424671173
1761310954614245600,10.53024560546875,0.8112815022468567,-0.0164165198802948,-0.3190149664878845
1761310954632857300,10.548857421875,0.8906916379928589,-0.18012358248233795,-0.6061131954193115
1761310954651470600,10.567470703125,1.0824977159500122,-0.19172967970371246,-0.8840487003326416
1761310954670082300,10.586082275390625,1.3964731693267822,0.000687203137204051,-0.7704311013221741
1761310954688695300,10.6046953125,1.6915124654769897,0.516242265701294,-0.5291464328765869
1761310954707307000,10.62330712890625,1.8320072889328003,0.8625926971435547,-0.3868190348148346
1761310954725920300,10.641920166015625,1.8436133861541748,1.4209834337234497,-0.5352548956871033
1761310954744532000,10.660531982421874,1.585224986076355,1.6689873933792114,-0.8095253109931946
1761310954763145200,10.679145263671876,1.1057099103927612,0.4979168772697449,-0.9860602021217346
1761310954781757000,10.6977568359375,0.5076140761375427,-0.8447254300117493,-1.0440906286239624
1761310954800370200,10.7163701171875,0.008551862090826035,-0.5826719403266907,-0.6085565686225891
1761310954818982000,10.73498193359375,-0.20157960057258606,-0.19722731411457062,0.043293800204992294
1761310954837595000,10.753594970703125,-0.1178935244679451,-0.20761170983314514,0.6419241428375244
1761310954856206600,10.77220654296875,0.0916270911693573,-0.034131091088056564,1.3199645280838013
1761310954874819300,10.7908193359375,0.21746163070201874,0.1656159609556198,1.811085820198059
1761310954893431000,10.80943115234375,0.23151111602783203,0.24380441009998322,1.9509698152542114
1761310954912044300,10.828044189453125,0.18630841374397278,0.1540098637342453,1.703576683998108
1761310954930656000,10.846656005859375,0.17409147322177887,-0.009697199799120426,1.278427004814148
1761310954949269200,10.865269287109374,0.13805148005485535,-0.07994463294744492,0.8361735343933105
1761310954967881000,10.883880859375,0.17225892841815948,-0.05673243850469589,0.5246414542198181
1761310954986494000,10.902493896484375,0.21807247400283813,-0.31328830122947693,0.2937411665916443
1761310955005106000,10.92110595703125,0.2919849753379822,-0.32672691345214844,0.2937411665916443
1761310955023719000,10.939718994140625,0.41476529836654663,-0.3413872718811035,0.4110238552093506
1761310955042330600,10.95833056640625,0.578472375869751,-0.24120831489562988,0.6089383363723755
1761310955060944000,10.97694384765625,0.637190043926239,-0.01885990984737873,0.7793647646903992
1761310955079555600,10.9955556640625,0.6988856196403503,0.12407834827899933,0.9943829774856567
1761310955098168800,11.0141689453125,0.5424323678016663,-0.08605311065912247,1.1318236589431763
1761310955116780500,11.032780517578125,0.2724378705024719,-0.16729579865932465,1.0811232328414917
1761310955135393500,11.0513935546875,0.16187451779842377,0.02695363573729992,0.8019660711288452
1761310955154005200,11.070005126953125,0.2229592502117157,0.4539358615875244,0.4067479074001312
1761310955172618500,11.088618408203125,0.3555130958557129,0.5797703862190247,0.036574479192495346
1761310955191230200,11.107230224609374,0.5986303091049194,0.2205922156572342,-0.28969430923461914
1761310955209843500,11.125843505859375,0.6866686940193176,-0.010308047756552696,-0.5132644176483154
1761310955228455200,11.144455078125,0.5198310017585754,0.14729054272174835,-0.5609105229377747
1761310955247068400,11.163068359375,0.3512371778488159,0.6897228956222534,-0.4943281412124634
1761310955265680000,11.181679931640625,0.2089097648859024,1.0867736339569092,-0.4240806996822357
1761310955284293000,11.200293212890625,0.16004198789596558,0.8821398019790649,-0.37765631079673767
1761310955302904800,11.21890478515625,0.26877278089523315,0.8155574202537537,-0.3483356535434723
1761310955321518000,11.23751806640625,0.448361873626709,0.8644252419471741,-0.37704548239707947
1761310955340129800,11.2561298828125,0.6396334171295166,0.8851940631866455,-0.42041563987731934
1761310955358743000,11.274742919921875,0.6964422464370728,0.7373690009117126,-0.4240806996822357
1761310955377354500,11.2933544921875,0.6750625967979431,0.554114818572998,-0.34100547432899475
1761310955395967700,11.3119677734375,0.6390225887298584,0.558390736579895,-0.22311195731163025
1761310955414579500,11.330579345703125,0.5369347333908081,0.5437304377555847,-0.150421142578125
1761310955433192700,11.349192626953124,0.46607646346092224,0.5473955273628235,-0.13026317954063416
1761310955451804400,11.367804443359375,0.5155550837516785,0.5522822737693787,-0.18585027754306793
1761310955470417400,11.38641748046875,0.5741963982582092,0.6017609238624573,-0.13148486614227295
1761310955489029000,11.405029052734376,0.5729747414588928,0.49058669805526733,0.06039752438664436
1761310955507642400,11.423642333984375,0.5809157490730286,0.2609081268310547,0.34016555547714233
1761310955526254000,11.442254150390625,0.6042042970657349,0.039170581847429276,0.5948888659477234
1761310955544867300,11.460867431640626,0.6494069695472717,-0.11598462611436844,0.5826719403266907
1761310955563479000,11.47947900390625,0.6793385148048401,-0.1862320601940155,0.27358320355415344
1761310955582092000,11.498092041015624,0.6518504023551941,-0.0035887276753783226,-0.10399674624204636
1761310955600703700,11.516703857421875,0.3567348122596741,0.18821731209754944,-0.4265241026878357
1761310955619317000,11.53531689453125,0.14843589067459106,0.44904908537864685,-0.4912739098072052
