time,seconds_elapsed,z,y,x
1761370519984925200,0.27692529296875,0.01958751678466797,0.004308223724365234,0.002238638699054718
1761370520003536400,0.295536376953125,0.020809173583984375,0.007899582386016846,-0.00051850825548172
1761370520022149000,0.314149169921875,0.013881683349609375,0.002715587615966797,0.004023488610982895
1761370520040760600,0.332760498046875,0.009854316711425781,-0.0023758411407470703,0.0036156252026557922
1761370520059373300,0.351373291015625,0.02230072021484375,0.0001081228256225586,0.0009592920541763306
1761370520077984800,0.36998486328125,0.013336181640625,-0.0021628886461257935,-0.010173216462135315
1761370520096597500,0.388597412109375,0.009882926940917969,-0.0017991960048675537,-0.00240442156791687
1761370520115208700,0.407208740234375,0.011392593383789062,-0.006337478756904602,-0.002050258219242096
1761370520133821400,0.425821533203125,0.014805793762207031,-0.006006479263305664,0.004834875464439392
1761370520152433000,0.444432861328125,0.020801544189453125,0.0013908594846725464,0.00024790316820144653
1761370520171045600,0.463045654296875,0.010270118713378906,0.005748078227043152,0.002723783254623413
1761370520189656800,0.48165673828125,0.016536712646484375,-0.003738716244697571,0.00028536468744277954
1761370520208269800,0.500269775390625,0.010935783386230469,-0.0010179132223129272,0.002701651304960251
1761370520226881000,0.518881103515625,0.005748748779296875,0.0014407485723495483,0.007258795201778412
1761370520245493800,0.53749365234375,0.010058403015136719,-0.0009922832250595093,-0.0020770616829395294
1761370520264105200,0.556105224609375,0.021127700805664062,-0.0033169835805892944,-0.001858144998550415
1761370520282718000,0.574718017578125,0.0039424896240234375,-0.003030627965927124,-0.006050456315279007
1761370520301329400,0.593329345703125,0.017652511596679688,0.0015930533409118652,0.0034364238381385803
1761370520319942100,0.611942138671875,0.01236724853515625,-0.005330607295036316,0.010290626436471939
1761370520338553300,0.63055322265625,0.011814117431640625,-0.0005047023296356201,0.010042190551757812
1761370520357166300,0.649166259765625,0.009004592895507812,-0.0005739182233810425,0.009826496243476868
1761370520375777500,0.667777587890625,0.015709877014160156,-0.007543206214904785,0.004915814846754074
1761370520394390500,0.686390625,0.015093803405761719,-0.007303133606910706,0.004958167672157288
1761370520413001700,0.705001708984375,0.016959190368652344,-0.000205308198928833,-0.0020533353090286255
1761370520431614700,0.72361474609375,0.011676788330078125,-0.002640664577484131,-0.004104789346456528
1761370520450226000,0.742225830078125,0.01591777801513672,-0.0071071237325668335,0.0031787343323230743
1761370520468838700,0.760838623046875,0.013037681579589844,0.004691630601882935,0.007882684469223022
1761370520487450000,0.7794501953125,0.014920234680175781,0.006913214921951294,0.0031845681369304657
1761370520506062800,0.798062744140625,0.005126953125,-0.005025818943977356,-0.0014118142426013947
1761370520524674300,0.81667431640625,0.01194000244140625,-0.002537339925765991,0.008203808218240738
1761370520543287000,0.835287109375,0.011544227600097656,0.004496350884437561,-0.0012276358902454376
1761370520561898500,0.8538984375,0.008765220642089844,-0.00022929906845092773,0.0060297101736068726
1761370520580511200,0.87251123046875,0.015614509582519531,-0.002515137195587158,-0.0009057559072971344
1761370520599122700,0.891122802734375,0.010427474975585938,-0.004725724458694458,-0.0007532835006713867
1761370520617735400,0.9097353515625,0.007649421691894531,-0.002194702625274658,-0.0004891045391559601
1761370520636347000,0.928346923828125,0.019165992736816406,-0.002179667353630066,0.004241276532411575
1761370520654959600,0.946959716796875,0.0044803619384765625,0.00043258070945739746,0.004223641008138657
1761370520673571000,0.965571044921875,0.018297195434570312,0.0004699826240539551,0.008876733481884003
1761370520692183800,0.984183837890625,0.010783195495605469,0.0028854012489318848,0.011075459420681
1761370520710795300,1.002795166015625,0.0034399032592773438,-0.004196718335151672,-0.0007275007665157318
1761370520729408000,1.021407958984375,0.010268211364746094,0.0006324201822280884,0.004182144999504089
1761370520748019500,1.04001953125,0.012319564819335938,-0.003942832350730896,-0.0005955435335636139
1761370520766632200,1.058632080078125,0.00955963134765625,-0.0038461685180664062,0.004200577735900879
1761370520785243600,1.07724365234375,0.00457763671875,-0.0039027631282806396,0.0016022324562072754
1761370520803856400,1.0958564453125,0.009173393249511719,0.005625665187835693,0.0064368173480033875
1761370520822467800,1.1144677734375,0.01349639892578125,-0.0014292895793914795,0.004125539213418961
1761370520841080600,1.13308056640625,0.013087272644042969,0.003306865692138672,-0.0005236715078353882
1761370520859692000,1.151692138671875,0.0056304931640625,-0.001410454511642456,0.006625190377235413
1761370520878304800,1.1703046875,0.005442619323730469,0.007917240262031555,0.0041353739798069
1761370520896916200,1.188916259765625,0.0076160430908203125,0.0006531625986099243,-0.00037360936403274536
1761370520915529000,1.207529052734375,0.0120697021484375,-0.001662135124206543,-0.0001667402684688568
1761370520934140400,1.226140380859375,0.004604339599609375,-0.006144925951957703,-0.000023208558559417725
1761370520952753400,1.24475341796875,0.011474609375,-0.0013072341680526733,0.004959031939506531
1761370520971364600,1.263364501953125,-0.0029144287109375,0.005811735987663269,0.00030520185828208923
1761370520989977600,1.2819775390625,0.011267662048339844,-0.0014388561248779297,0.00027125701308250427
1761370521008588800,1.3005888671875,0.006148338317871094,0.00563734769821167,0.007465831935405731
1761370521027201800,1.319201904296875,0.013083457946777344,0.003212854266166687,0.0027271807193756104
1761370521045813200,1.337813232421875,0.007822990417480469,0.0007342100143432617,0.002761583775281906
1761370521064426000,1.356426025390625,-0.004050254821777344,0.0008099377155303955,0.0005325637757778168
1761370521083037400,1.375037353515625,0.005377769470214844,0.0008759498596191406,0.0029505938291549683
1761370521101650200,1.393650146484375,0.00292205810546875,0.003221854567527771,0.0006781518459320068
1761370521120261600,1.41226171875,0.005099296569824219,0.0031758397817611694,-0.0014417655766010284
1761370521138874400,1.430874267578125,0.007283210754394531,-0.0016162991523742676,-0.0012789256870746613
1761370521157485800,1.44948583984375,0.004725456237792969,0.0007884502410888672,0.010674308985471725
1761370521176098800,1.468098876953125,-0.009438514709472656,-0.008610814809799194,0.008241381496191025
1761370521194710000,1.4867099609375,0.007273674011230469,-0.003729701042175293,0.005682755261659622
1761370521213323000,1.505322998046875,0.0045223236083984375,0.0033442527055740356,0.005727808922529221
1761370521231934500,1.5239345703125,0.0021333694458007812,-0.0035790205001831055,0.005496293306350708
1761370521250547200,1.542547119140625,0.0020599365234375,0.001245647668838501,-0.001532476395368576
1761370521269158700,1.56115869140625,0.011290550231933594,-0.00801900029182434,0.005703497678041458
1761370521287771600,1.579771728515625,0.0016155242919921875,0.0016053467988967896,-0.0014393925666809082
1761370521306382800,1.5983828125,0.010820388793945312,0.0016284286975860596,0.008068196475505829
1761370521324995800,1.616995849609375,-0.0012712478637695312,0.0015173554420471191,0.007845703512430191
1761370521343607300,1.635607177734375,-0.0011529922485351562,0.0038426220417022705,0.007764618843793869
1761370521362220000,1.654219970703125,0.008221626281738281,0.003680706024169922,0.005467135459184647
1761370521380831500,1.67283154296875,0.014932632446289062,0.003674834966659546,0.003095131367444992
1761370521399444500,1.691444580078125,0.009769439697265625,-0.0010948032140731812,0.0007067061960697174
1761370521418055700,1.7100556640625,0.007050514221191406,-0.005785003304481506,0.0008298419415950775
1761370521436668700,1.728668701171875,0.00453948974609375,-0.0031796544790267944,0.0055177658796310425
1761370521455280000,1.747280029296875,-0.00024509429931640625,0.003962591290473938,-0.003785420209169388
1761370521473892900,1.765892822265625,0.0021572113037109375,-0.0008317530155181885,0.003407292068004608
1761370521492504300,1.78450439453125,0.0066356658935546875,0.0014757812023162842,0.0059075728058815
1761370521539035600,1.83103564453125,0.004166603088378906,-0.0038405805826187134,0.005711827427148819
1761370521557646800,1.849646728515625,-0.00519561767578125,-0.005842030048370361,0.012615453451871872
1761370521576259800,1.868259765625,-0.00043582916259765625,0.0037267208099365234,0.01224459707736969
1761370521594871000,1.88687109375,0.0019702911376953125,-0.0033991187810897827,0.004980392754077911
1761370521613484000,1.905484130859375,0.0018281936645507812,-0.00328122079372406,0.0024595484137535095
1761370521632095500,1.924095458984375,0.00408172607421875,0.0013835877180099487,0.009445823729038239
1761370521650708500,1.94270849609375,-0.0006465911865234375,-0.0008622109889984131,-0.00009739398956298828
1761370521669319700,1.961319580078125,0.008596420288085938,0.006156474351882935,0.0023270659148693085
1761370521687932700,1.9799326171875,-0.000911712646484375,-0.003403887152671814,0.0024295002222061157
1761370521706544000,1.998544189453125,0.010694503784179688,-0.0009717941284179688,0.004827987402677536
1761370521725157000,2.0171572265625,0.0010395050048828125,0.006199479103088379,0.0024925842881202698
1761370521743768300,2.035768310546875,0.010339736938476562,0.006086289882659912,0.0025348663330078125
1761370521762381300,2.05438134765625,0.0030117034912109375,-0.003471195697784424,-0.002189274877309799
1761370521780992800,2.07299267578125,0.0076198577880859375,0.0014516711235046387,0.002714194357395172
1761370521799605800,2.091605712890625,0.007328987121582031,0.0037006735801696777,-0.00675608217716217
1761370521818217000,2.110217041015625,-0.006880760192871094,0.001213356852531433,0.005165737122297287
1761370521836830000,2.128829833984375,0.007235527038574219,0.003454238176345825,0.0005444437265396118
1761370521864747500,2.15674755859375,0.0071086883544921875,0.0010711997747421265,0.007699761539697647
1761370521883360500,2.175360595703125,0.0045166015625,0.005726218223571777,0.009976845234632492
1761370521901971700,2.1939716796875,0.00205230712890625,-0.010843530297279358,0.002694699913263321
1761370521920584700,2.212584716796875,0.0019063949584960938,0.0010399073362350464,0.0027292706072330475
1761370521939196200,2.231196044921875,0.0018415451049804688,0.0010654926300048828,0.0052118562161922455
1761370521957809200,2.24980908203125,-0.00045871734619140625,-0.003562837839126587,0.0004568733274936676
1761370521976420600,2.268420654296875,-0.0027990341186523438,0.005953863263130188,0.009945020079612732
1761370521995033300,2.287033447265625,0.006591796875,0.003384336829185486,0.007481638342142105
1761370522013644800,2.305644775390625,0.008687973022460938,0.0009785294532775879,0.002594027668237686
1761370522032257800,2.3242578125,0.0014162063598632812,0.0009510666131973267,0.011969324201345444
1761370522050869200,2.342869140625,0.0036859512329101562,0.010112732648849487,0.000045105814933776855
1761370522069482200,2.361482177734375,0.01749420166015625,0.002744510769844055,0.007072910666465759
1761370522088093700,2.38009375,0.007575035095214844,0.005084320902824402,-0.007004410028457642
1761370522106706400,2.39870654296875,0.009680747985839844,0.002433210611343384,0.0050051249563694
1761370522125318000,2.41731787109375,0.004729270935058594,0.00005854666233062744,0.01204337552189827
1761370522143931000,2.435930908203125,0.009160041809082031,0.0025023221969604492,0.004746720194816589
1761370522162542300,2.454542236328125,-0.007428169250488281,0.002495288848876953,0.004697151482105255
1761370522181155300,2.4731552734375,0.006823539733886719,0.00007990002632141113,0.004664629697799683
1761370522199766800,2.491766845703125,-0.0027446746826171875,0.00020882487297058105,-0.0023901760578155518
1761370522218379800,2.5103798828125,0.0066814422607421875,0.0026710331439971924,-0.0022266507148742676
1761370522236991000,2.528990966796875,-0.0029191970825195312,0.00026538968086242676,0.0026820115745067596
1761370522255604000,2.54760400390625,0.004197120666503906,-0.008989900350570679,0.009867236018180847
1761370522274215400,2.56621533203125,-0.0005369186401367188,0.005445763468742371,0.0073116011917591095
1761370522292828400,2.584828369140625,0.0017566680908203125,0.0005619823932647705,0.007193651050329208
1761370522311440000,2.60343994140625,0.0015811920166015625,0.005139067769050598,0.000042766332626342773
1761370522330052900,2.622052978515625,-0.0007076263427734375,0.0003992319107055664,0.00016517192125320435
1761370522348664300,2.640664306640625,0.001628875732421875,-0.001891806721687317,-0.0021244436502456665
1761370522367277000,2.659277099609375,0.00392913818359375,0.005175843834877014,0.005281668156385422
1761370522385888500,2.677888427734375,-0.000873565673828125,0.002726227045059204,0.007506556808948517
1761370522404501500,2.69650146484375,-0.00084686279296875,0.002672940492630005,0.00038456544280052185
1761370522423113000,2.715113037109375,-0.0009403228759765625,-0.001953229308128357,0.0029054023325443268
1761370522441726000,2.733725830078125,-0.00083160400390625,-0.0041436851024627686,-0.0018682293593883514
1761370522460337400,2.75233740234375,-0.00786590576171875,-0.004041329026222229,0.0053798481822013855
1761370522478950400,2.770950439453125,0.00879669189453125,0.003003418445587158,0.0006009936332702637
1761370522497561900,2.789561767578125,0.0015163421630859375,0.0007758587598800659,0.0007614828646183014
1761370522516174800,2.8081748046875,0.0037832260131835938,-0.003953859210014343,0.010238610208034515
1761370522534786300,2.826786376953125,0.006051063537597656,0.0077964067459106445,0.005315504968166351
1761370522553399300,2.8453994140625,0.001178741455078125,0.002984181046485901,0.014626633375883102
1761370522572010800,2.8640107421875,-0.008197784423828125,0.0051272958517074585,0.004945944994688034
1761370522599928800,2.8919287109375,0.0013484954833984375,0.00023564696311950684,0.0001280270516872406
1761370522618541800,2.910541748046875,0.008289337158203125,0.004901617765426636,0.004861056804656982
1761370522637153300,2.9291533203125,0.012801170349121094,-0.00683826208114624,0.0000063963234424591064
1761370522655766300,2.947766357421875,0.0029611587524414062,-0.004291728138923645,0.00007525086402893066
1761370522674377700,2.966377685546875,0.0005445480346679688,-0.0016643404960632324,0.009502965956926346
1761370522692990700,2.98499072265625,-0.011086463928222656,-0.0062967389822006226,-0.00013604015111923218
1761370522720908300,3.012908203125,0.003154754638671875,0.000779464840888977,0.004639483988285065
1761370522739521300,3.031521240234375,-0.004052162170410156,0.010058566927909851,0.006947621703147888
1761370522758132700,3.0501328125,0.005459785461425781,0.0002996474504470825,0.006895415484905243
1761370522776745700,3.068745849609375,-0.003981590270996094,-0.0020431727170944214,0.004380416125059128
1761370522795357200,3.087357177734375,0.003131866455078125,-0.0065681785345077515,-0.0002943165600299835
1761370522813970200,3.10597021484375,0.0007085800170898438,0.0007479935884475708,-0.004790741950273514
1761370522832581600,3.12458154296875,-0.004063606262207031,-0.010987773537635803,0.009594704955816269
1761370522851194600,3.143194580078125,0.005406379699707031,0.00353790819644928,0.007115241140127182
1761370522869806000,3.16180615234375,-0.004153251647949219,-0.0012509524822235107,-0.002279825508594513
1761370522888419000,3.180419189453125,0.0030841827392578125,0.0010871142148971558,0.0002889558672904968
1761370522907030500,3.199030517578125,0.0030193328857421875,-0.003463536500930786,0.0027007348835468292
1761370522925643500,3.2176435546875,0.00519561767578125,0.003601357340812683,0.007443614304065704
1761370522944255000,3.2362548828125,-0.0020427703857421875,0.005912214517593384,0.00025872141122817993
1761370522962868000,3.254867919921875,0.007399559020996094,-0.0011918842792510986,0.0027208328247070312
1761370522981479400,3.2734794921875,-0.0021448135375976562,0.0034047365188598633,-0.0018762573599815369
1761370523000092400,3.292092529296875,-0.0020742416381835938,-0.0013164430856704712,-0.0017233267426490784
1761370523018704000,3.310703857421875,0.00038623809814453125,0.003378242254257202,-0.0015982948243618011
1761370523037316900,3.32931689453125,0.00264739990234375,0.008145272731781006,0.0009498856961727142
1761370523055928300,3.34792822265625,-0.0020351409912109375,0.010266408324241638,0.008066590875387192
1761370523074541300,3.366541259765625,0.0026617050170898438,-0.001783713698387146,0.007939208298921585
1761370523093152800,3.38515283203125,0.000293731689453125,-0.0016486793756484985,0.010117482393980026
1761370523111765800,3.403765869140625,0.004954338073730469,0.005473926663398743,0.007591858506202698
1761370523130377200,3.422377197265625,0.0001983642578125,-0.004079043865203857,0.00040206313133239746
1761370523148990200,3.440990234375,0.0001506805419921875,-0.0039074718952178955,0.00037744641304016113
1761370523167601700,3.4596015625,-0.0022068023681640625,0.005470648407936096,0.005048491060733795
1761370523186214700,3.478214599609375,0.0025739669799804688,0.002917364239692688,0.007453534752130508
1761370523204826000,3.496826171875,-0.006892204284667969,0.0005662292242050171,0.007330898195505142
1761370523223439000,3.515439208984375,0.0026760101318359375,0.005261704325675964,0.00013235583901405334
1761370523242050600,3.534050537109375,-0.004359245300292969,0.0026751458644866943,0.0049601346254348755
1761370523260663600,3.55266357421875,0.0027303695678710938,0.005001157522201538,0.002400685101747513
1761370523279275000,3.57127490234375,-0.006663322448730469,0.0002818852663040161,0.0047590471804142
1761370523297888000,3.589887939453125,-0.006404876708984375,0.00025460124015808105,-2.868473529815674e-7
1761370523316499700,3.608499755859375,-0.00403594970703125,-0.004402264952659607,0.009517483413219452
1761370523335112400,3.627112548828125,-0.0015106201171875,0.0004182159900665283,0.007081780582666397
1761370523353724200,3.64572412109375,-0.00146484375,0.0052048563957214355,0.011829394847154617
1761370523372337200,3.664337158203125,-0.0036935806274414062,0.00506928563117981,0.013758450746536255
1761370523390948600,3.682948486328125,-0.010674476623535156,0.0026071667671203613,0.011287763714790344
1761370523409561600,3.7015615234375,-0.0056552886962890625,-0.0020563453435897827,0.0016609132289886475
1761370523428173000,3.720173095703125,-0.00307464599609375,0.0026625394821166992,0.00395076721906662
1761370523446786000,3.7387861328125,0.003972053527832031,0.00024107098579406738,0.010857939720153809
1761370523465397500,3.7573974609375,0.0014848709106445312,0.00025409460067749023,0.003623194992542267
1761370523484010500,3.776010498046875,-0.005549430847167969,0.004935279488563538,0.005983356386423111
1761370523502622000,3.7946220703125,0.006327629089355469,-0.004521399736404419,-0.0034682340919971466
1761370523521235000,3.81323486328125,-0.01251983642578125,0.0027033239603042603,0.0013682320713996887
1761370523539846400,3.831846435546875,0.004139900207519531,-0.0021840035915374756,0.010770589113235474
1761370523558459600,3.850459716796875,-0.0030202865600585938,-0.002147004008293152,0.005871150642633438
1761370523577071000,3.869071044921875,-0.00064849853515625,0.005039647221565247,0.0011068768799304962
1761370523595684000,3.88768408203125,-0.010006904602050781,0.002634704113006592,0.005902420729398727
1761370523614295600,3.906295654296875,-0.007206916809082031,-0.004320651292800903,-0.0036021173000335693
1761370523632908500,3.924908447265625,0.0000133514404296875,0.0028436630964279175,0.001332692801952362
1761370523651520000,3.94352001953125,-0.0023031234741210938,0.0027700960636138916,-0.0032940320670604706
1761370523670133000,3.962133056640625,0.0000457763671875,-0.004268765449523926,0.003924686461687088
1761370523688744700,3.98074462890625,0.00004100799560546875,0.0030112415552139282,0.006234653294086456
1761370523707357700,3.999357666015625,0.0023527145385742188,0.002947881817817688,0.006082214415073395
1761370523725969200,4.01796923828125,-0.00235748291015625,0.007783785462379456,0.003635302186012268
1761370523744582100,4.03658203125,-0.006911277770996094,0.0005010068416595459,0.0012309737503528595
1761370523763193600,4.055193603515625,-0.0020551681518554688,0.0006541162729263306,-0.0010918974876403809
1761370523781806600,4.073806640625,0.00267791748046875,-0.0038818717002868652,0.001439504325389862
1761370523800418300,4.092418212890625,-0.0020818710327148438,0.0032274872064590454,0.0014774054288864136
1761370523819031300,4.11103125,0.004971504211425781,0.0007888078689575195,0.0016069337725639343
1761370523837642800,4.129642822265625,-0.009163856506347656,-0.003791511058807373,-0.0007158815860748291
1761370523856255700,4.148255859375,-0.004195213317871094,0.003354385495185852,0.0019197948276996613
1761370523874867200,4.1668671875,-0.004015922546386719,-0.003829643130302429,0.0066874586045742035
1761370523893480200,4.185480224609375,0.005415916442871094,0.0033410191535949707,0.0018827319145202637
1761370523912092000,4.204091796875,-0.004065513610839844,0.010275214910507202,0.00902126356959343
1761370523930705000,4.222704833984375,-0.008640289306640625,0.0076579749584198,0.001767810434103012
1761370523949316400,4.24131640625,0.0009832382202148438,0.00266207754611969,0.0018713325262069702
1761370523967929300,4.259929443359375,0.0009479522705078125,0.007398039102554321,0.004170678555965424
1761370523986540800,4.278540771484375,-0.0014362335205078125,0.00005601346492767334,0.004031781107187271
1761370524005154000,4.297154052734375,0.005672454833984375,0.00007542967796325684,0.001627810299396515
1761370524023765500,4.315765625,0.00069427490234375,0.002597630023956299,0.0017215199768543243
1761370524042378500,4.33437841796875,0.0030622482299804688,-0.00682869553565979,-0.0028242208063602448
1761370524060990000,4.352989990234375,0.002960205078125,0.0051492005586624146,0.011252783238887787
1761370524079603000,4.37160302734375,-0.00180816650390625,-0.004298806190490723,-0.003043152391910553
1761370524098214700,4.390214599609375,0.0029582977294921875,0.000533178448677063,0.006465785205364227
1761370524116827600,4.40882763671875,-0.004164695739746094,0.0006067007780075073,0.0038720443844795227
1761370524135439000,4.427439208984375,0.007625579833984375,-0.006455227732658386,-0.0008952394127845764
1761370524154052000,4.446052001953125,0.00034809112548828125,-0.0014963597059249878,0.010975368320941925
1761370524172663600,4.46466357421875,0.0003757476806640625,0.00546400249004364,0.006045281887054443
1761370524191276800,4.48327685546875,-0.0019521713256835938,0.000634312629699707,0.006008416414260864
1761370524209888300,4.50188818359375,0.002780914306640625,-0.0017201155424118042,0.008178416639566422
1761370524228501200,4.520501220703125,0.005005836486816406,-0.003973603248596191,-0.0013228952884674072
1761370524247112700,4.53911279296875,0.004799842834472656,0.0032175183296203613,0.005774002522230148
1761370524265726000,4.557725830078125,0.0046787261962890625,0.005446568131446838,0.0010004602372646332
1761370524284337400,4.57633740234375,0.009150505065917969,0.0030269622802734375,0.0033678337931632996
1761370524302950400,4.594950439453125,0.004177093505859375,0.0029803067445755005,0.005716998130083084
1761370524321562000,4.61356201171875,0.008665084838867188,0.007705762982368469,-0.0036308690905570984
1761370524340175000,4.632175048828125,0.006103515625,-0.004142269492149353,0.0012119598686695099
1761370524358786600,4.65078662109375,0.005824089050292969,-0.0017632991075515747,0.0035157278180122375
1761370524377399600,4.669399658203125,0.008062362670898438,0.007710188627243042,0.005781613290309906
1761370524396011300,4.68801123046875,0.0030498504638671875,0.0027512460947036743,0.010352537035942078
1761370524414624300,4.706624267578125,0.002948760986328125,0.005035519599914551,0.0054102204740047455
1761370524433235700,4.725235595703125,0.0005331039428710938,0.002551034092903137,0.0005921013653278351
1761370524451848700,4.7438486328125,0.0074977874755859375,-0.00203154981136322,0.003009326756000519
1761370524470460400,4.76246044921875,0.00018787384033203125,0.0004342794418334961,0.002963501960039139
1761370524489073400,4.781073486328125,0.009521484375,0.0026223957538604736,-0.004072282463312149
1761370524507684900,4.799684814453125,-0.0024089813232421875,-0.004428043961524963,0.005507003515958786
1761370524526298000,4.818298095703125,0.009284019470214844,0.0026836395263671875,-0.0016118772327899933
1761370524544909600,4.83690966796875,-0.00032138824462890625,0.0026230067014694214,0.01016472652554512
1761370524563522600,4.8555224609375,-0.00030994415283203125,-0.002283945679664612,0.007692180573940277
1761370524582134000,4.874134033203125,0.006606101989746094,0.007149919867515564,0.005340643227100372
1761370524600747300,4.892747314453125,0.011056900024414062,0.0022499561309814453,0.01213880255818367
1761370524619358700,4.911358642578125,0.006140708923339844,-0.00017306208610534668,-0.0022181980311870575
1761370524637971700,4.9299716796875,0.010606765747070312,-0.0025953948497772217,0.007318135350942612
1761370524656583200,4.948583251953125,0.012609481811523438,-0.00009544193744659424,-0.0022321902215480804
1761370524675196400,4.967196533203125,0.007526397705078125,-0.0025914162397384644,0.0048968493938446045
1761370524693807900,4.985807861328125,0.0048847198486328125,0.0020892173051834106,0.002529323101043701
1761370524712421000,5.004421142578125,0.007117271423339844,-0.00019530951976776123,0.006994184106588364
1761370524731032600,5.023032470703125,-0.0023794174194335938,0.0021851062774658203,0.004596572369337082
1761370524749645600,5.0416455078125,0.00464630126953125,-0.0050785839557647705,0.004419814795255661
1761370524768257000,5.060257080078125,0.009120941162109375,-0.00012564659118652344,0.006618518382310867
1761370524786870300,5.078870361328125,0.004229545593261719,-0.004786357283592224,0.0018398873507976532
1761370524805481700,5.097481689453125,0.0016946792602539062,-0.0022760331630706787,0.0018883757293224335
1761370524824094700,5.1160947265625,0.01332855224609375,-0.002140834927558899,-0.00040343403816223145
1761370524842706400,5.13470654296875,0.005827903747558594,0.0001156926155090332,-0.0027134083211421967
1761370524861319400,5.1533193359375,0.010422706604003906,0.009494632482528687,0.006650548428297043
1761370524879931000,5.171930908203125,0.01694202423095703,-0.00012131035327911377,0.0019812509417533875
1761370524898544000,5.190544189453125,0.00244903564453125,0.004721909761428833,0.0020415671169757843
1761370524917155600,5.209155517578125,0.016376495361328125,-0.00492483377456665,0.011420734226703644
1761370524935768600,5.2277685546875,0.001827239990234375,0.002319440245628357,0.004144687205553055
1761370524954380300,5.24638037109375,0.001766204833984375,-0.0023502856492996216,-0.0005675926804542542
1761370524972993300,5.2649931640625,0.004058837890625,-0.0021414458751678467,0.013544239103794098
1761370524991604700,5.283604736328125,0.010909080505371094,0.0024692565202713013,0.003790043294429779
1761370525010218000,5.302218017578125,0.010589599609375,-0.002331957221031189,0.008497986942529678
1761370525028829400,5.320829345703125,0.014868736267089844,0.002379894256591797,-0.003336150199174881
1761370525047442700,5.339442626953125,-0.0019435882568359375,-0.00004774332046508789,0.003905896097421646
1761370525066054100,5.35805419921875,0.009813308715820312,-0.007104784250259399,-0.0008377060294151306
1761370525084667100,5.376667236328125,0.004817008972167969,-0.0020851343870162964,0.001590535044670105
1761370525103278600,5.395278564453125,0.00928497314453125,-0.004334181547164917,0.0015678927302360535
1761370525121891800,5.413891845703125,-0.0003204345703125,-0.0041701942682266235,0.0015697292983531952
1761370525140503300,5.43250341796875,0.008990287780761719,0.005177035927772522,0.003902912139892578
1761370525159116500,5.451116455078125,-0.0006046295166015625,0.0003416389226913452,0.0037863366305828094
1761370525177728000,5.46972802734375,0.006398200988769531,-0.0043180882930755615,-0.0032920725643634796
1761370525196341000,5.488341064453125,0.010816574096679688,0.00285378098487854,-0.0005957446992397308
1761370525214952700,5.50695263671875,-0.00119781494140625,0.000497475266456604,0.006603125482797623
1761370525233565700,5.525565673828125,-0.0034723281860351562,-0.004182919859886169,-0.00043515488505363464
1761370525252177200,5.54417724609375,0.0036640167236328125,-0.004023924469947815,0.009113587439060211
1761370525270790400,5.562790283203125,0.015155792236328125,-0.00394865870475769,0.008881520479917526
1761370525289401900,5.58140185546875,0.003002166748046875,0.000989481806755066,-0.0006017871201038361
1761370525308014800,5.600014892578125,0.014593124389648438,0.0009930282831192017,-0.000590253621339798
1761370525326626600,5.61862646484375,0.018776893615722656,0.005721300840377808,0.006554696708917618
1761370525345239600,5.637239501953125,0.008854866027832031,-0.0037853866815567017,0.001872226595878601
1761370525363851300,5.655851318359375,0.008521080017089844,0.005737751722335815,-0.002732951194047928
1761370525382464300,5.67446435546875,0.005962371826171875,-0.0037688910961151123,-0.00029874593019485474
1761370525401075700,5.69307568359375,0.008039474487304688,0.003360837697982788,0.0022996701300144196
1761370525419689000,5.71168896484375,0.010164260864257812,-0.003618106245994568,0.004606764763593674
1761370525438300400,5.730300537109375,0.0028429031372070312,-0.0011239200830459595,0.009301315993070602
1761370525456913400,5.748913330078125,0.0144805908203125,-0.0034041106700897217,-0.0025520212948322296
1761370525475525000,5.767525146484375,0.009289741516113281,0.0015878528356552124,0.006938815116882324
1761370525494138000,5.78613818359375,0.013574600219726562,-0.0008927434682846069,0.004612427204847336
1761370525512749800,5.804749755859375,0.006100654602050781,0.003961116075515747,0.002057194709777832
1761370525531362800,5.82336279296875,0.012959480285644531,0.0014748424291610718,0.009267773479223251
1761370525549974500,5.841974609375,0.007900238037109375,0.0037997663021087646,0.013629540801048279
1761370525568587500,5.86058740234375,0.01003265380859375,-0.0010293275117874146,0.006278596818447113
1761370525587199000,5.879198974609375,0.0025987625122070312,0.0013406872749328613,0.003786027431488037
1761370525605812200,5.897812255859375,0.00015735626220703125,0.005986258387565613,0.010769926011562347
1761370525624423700,5.916423583984375,0.011883735656738281,-0.003489941358566284,-0.0036028102040290833
1761370525643036700,5.93503662109375,0.0067386627197265625,0.0013318061828613281,0.003743056207895279
1761370525661648400,5.9536484375,0.008867263793945312,-0.003306150436401367,0.006004501134157181
1761370525680261400,5.972261474609375,0.0061779022216796875,-0.0007670968770980835,0.0013010501861572266
1761370525698872800,5.990872802734375,0.006011009216308594,0.006222933530807495,0.0013045184314250946
1761370525717486000,6.009486083984375,0.005814552307128906,-0.001095890998840332,0.003685764968395233
1761370525736097500,6.02809765625,0.0033845901489257812,-0.0032991021871566772,0.005949050188064575
1761370525754710800,6.046710693359375,0.005545616149902344,-0.0007600188255310059,0.001191660761833191
1761370525773322200,6.065322265625,0.007633209228515625,-0.0029180198907852173,0.003629453480243683
1761370525791935200,6.083935302734375,0.012050628662109375,0.0018836110830307007,0.0035084299743175507
1761370525810547000,6.102546875,0.006939888000488281,0.004212424159049988,-0.001176450401544571
1761370525829160000,6.121159912109375,0.0067882537841796875,-0.005261167883872986,-0.0033822767436504364
1761370525847771600,6.139771728515625,0.008878707885742188,-0.0026967674493789673,0.00849127396941185
1761370525866384600,6.158384521484375,0.008584976196289062,0.002026572823524475,-0.001057542860507965
1761370525884996000,6.17699609375,0.012891769409179688,0.0041467249393463135,0.006085533648729324
1761370525903609300,6.195609375,0.012501716613769531,-0.0028422176837921143,0.006009366363286972
1761370525922220800,6.214220703125,0.012086868286132812,0.006609559059143066,-0.0010309107601642609
1761370525940834000,6.232833984375,0.00705718994140625,-0.000572890043258667,0.0013108812272548676
1761370525959445500,6.251445556640625,0.006861686706542969,0.008845210075378418,0.0037830322980880737
1761370525978058500,6.27005859375,0.013616561889648438,0.001590043306350708,0.010804377496242523
1761370525996670200,6.288670166015625,0.006142616271972656,0.003873467445373535,0.003571540117263794
1761370526015283200,6.307283203125,0.010567665100097656,-0.000848129391670227,0.008097849786281586
1761370526033894700,6.325894775390625,0.01488494873046875,0.003869488835334778,0.005696021020412445
1761370526052508000,6.3445078125,-0.0020074844360351562,0.003746122121810913,0.0055769383907318115
1761370526071119400,6.363119384765625,0.007397651672363281,-0.0010260939598083496,0.0029578544199466705
1761370526089732600,6.381732666015625,0.004837989807128906,-0.001025959849357605,0.003101825714111328
1761370526108344000,6.400343994140625,0.006953239440917969,0.005996584892272949,0.000674128532409668
1761370526126957000,6.41895703125,-0.0002613067626953125,0.003465220332145691,0.009964395314455032
1761370526145568800,6.43756884765625,0.011439323425292969,0.001018807291984558,0.005128137767314911
1761370526164181800,6.456181640625,0.011057853698730469,-0.003529980778694153,0.005178656429052353
1761370526182793500,6.47479345703125,0.0037050247192382812,0.0012539178133010864,0.0005181729793548584
1761370526201406500,6.493406494140625,-0.0010900497436523438,0.0035485029220581055,0.0007758662104606628
1761370526220018000,6.512017822265625,0.010601043701171875,-0.0012735426425933838,-0.001588486135005951
1761370526238631200,6.530631103515625,0.005618095397949219,-0.003375828266143799,0.0008326508104801178
1761370526257242600,6.54924267578125,0.012414932250976562,-0.005637213587760925,-0.003832053393125534
1761370526275856000,6.56785595703125,0.009768486022949219,-0.0008167177438735962,-0.003675311803817749
1761370526294467300,6.58646728515625,0.009366035461425781,0.00160178542137146,0.0035005174577236176
1761370526313080300,6.605080322265625,0.009095191955566406,-0.003116697072982788,-0.008196283131837845
1761370526331692000,6.623692138671875,0.006476402282714844,0.0017712712287902832,0.0038922280073165894
1761370526350305000,6.642304931640625,0.008575439453125,0.001749679446220398,0.008555818349123001
1761370526368916500,6.66091650390625,0.005974769592285156,0.0017683953046798706,0.010736670345067978
1761370526387529700,6.67952978515625,0.003383636474609375,-0.0005686283111572266,0.003372862935066223
1761370526406141400,6.698141357421875,0.01496124267578125,0.0017856061458587646,-0.0012817345559597015
1761370526424754400,6.71675439453125,0.009875297546386719,0.0018031299114227295,-0.0011856704950332642
1761370526443366000,6.735365966796875,-0.004536628723144531,-0.000567510724067688,-0.0012095160782337189
1761370526461979000,6.753978759765625,0.000400543212890625,0.006456136703491211,0.006019070744514465
1761370526480590600,6.772590576171875,0.004975318908691406,-0.005428403615951538,0.001254308968782425
1761370526499203600,6.79120361328125,0.011714935302734375,0.0018503367900848389,-0.0009689033031463623
1761370526517815300,6.809815185546875,0.00677490234375,-0.0005289316177368164,0.008409790694713593
1761370526536428300,6.82842822265625,0.008826255798339844,0.008870020508766174,0.01055629551410675
1761370526555039700,6.847039794921875,0.0062580108642578125,-0.0007017701864242554,0.005530938506126404
1761370526573653000,6.865653076171875,0.0060100555419921875,0.006287992000579834,0.0032367296516895294
1761370526592264400,6.884264404296875,0.008202552795410156,0.0015258491039276123,0.0031598135828971863
1761370526610877400,6.90287744140625,-0.0038022994995117188,0.0014961808919906616,0.007793840020895004
1761370526629489200,6.9214892578125,0.005621910095214844,0.0037986785173416138,0.003015819936990738
1761370526648102100,6.94010205078125,0.007747650146484375,-0.003235951066017151,0.003003980964422226
1761370526666713900,6.9587138671875,0.007568359375,0.0015441030263900757,0.0006765685975551605
1761370526685326800,6.977326904296875,0.000293731689453125,0.0015693306922912598,0.0055061765015125275
1761370526703938300,6.995938232421875,0.011973381042480469,-0.0031306296586990356,0.00546390563249588
1761370526722551600,7.014551513671875,0.006908416748046875,-0.0007070302963256836,-0.0015364624559879303
1761370526741163000,7.0331630859375,0.011307716369628906,0.0016523748636245728,0.0055833421647548676
1761370526759776000,7.05177587890625,0.008617401123046875,-0.003033772110939026,0.005546540021896362
1761370526778387700,7.0703876953125,0.00362396240234375,0.0017405152320861816,0.007781587541103363
1761370526797000700,7.089000732421875,0.008172988891601562,-0.005319908261299133,-0.0016808025538921356
1761370526815612400,7.1076123046875,0.007903099060058594,-0.0004930645227432251,0.0006639622151851654
1761370526834225400,7.126225341796875,0.012270927429199219,-0.00047284364700317383,-0.003822542726993561
1761370526852836900,7.1448369140625,-0.0021457672119140625,-0.00028683245182037354,0.005800466984510422
1761370526871450000,7.1634501953125,0.0002765655517578125,0.0043350160121917725,0.0035139620304107666
1761370526890061600,7.1820615234375,0.009603500366210938,-0.00508686900138855,0.0034298114478588104
1761370526908674600,7.200674560546875,0.0023031234741210938,-0.00734749436378479,0.003387685865163803
1761370526927286300,7.219286376953125,0.01387786865234375,0.004513606429100037,0.0012514404952526093
1761370526945899300,7.237899169921875,0.004119873046875,0.006755039095878601,0.0011853016912937164
1761370526964510700,7.2565107421875,0.010929107666015625,-0.0004469454288482666,0.003474574536085129
1761370526983124000,7.2751240234375,0.005896568298339844,0.0019035637378692627,-0.0010892152786254883
1761370527001735400,7.2937353515625,0.0033864974975585938,-0.002713620662689209,0.008299566805362701
1761370527020348700,7.3123486328125,0.003353118896484375,-0.004879161715507507,0.005631580948829651
1761370527038960000,7.330960205078125,0.00551605224609375,0.0069491565227508545,0.0054991282522678375
1761370527057573000,7.349572998046875,0.00305938720703125,-0.004945576190948486,-0.003911379724740982
1761370527076184800,7.368184814453125,0.014570236206054688,-0.0024463534355163574,0.005643092095851898
1761370527094797800,7.3867978515625,0.0047931671142578125,0.0021576285362243652,0.003212854266166687
1761370527113409300,7.4054091796875,-0.0023899078369140625,0.002106785774230957,0.003083806484937668
1761370527132022500,7.4240224609375,0.007025718688964844,-0.0002962648868560791,0.007743038237094879
1761370527150634000,7.442634033203125,-0.0025835037231445312,-0.007266387343406677,-0.0017251111567020416
1761370527169247000,7.4612470703125,0.0068378448486328125,-0.0000212937593460083,0.0030860938131809235
1761370527187858700,7.479858642578125,0.011321067810058594,0.0022436827421188354,0.00776180624961853
1761370527206471700,7.4984716796875,0.006318092346191406,-0.00021910667419433594,0.007464870810508728
1761370527225083400,7.51708349609375,0.006031036376953125,-0.002545297145843506,0.0024527162313461304
1761370527243696400,7.5356962890625,0.019878387451171875,-0.0023619085550308228,0.007149402052164078
1761370527262308000,7.55430810546875,0.012195587158203125,0.002273350954055786,0.00228867307305336
1761370527280921000,7.572921142578125,0.009555816650390625,0.0021631568670272827,-0.0023466013371944427
1761370527299532500,7.591532470703125,0.004528999328613281,0.0022455155849456787,0.004863914102315903
1761370527318145500,7.6101455078125,0.002063751220703125,0.004506722092628479,0.00006603449583053589
1761370527336757200,7.62875732421875,0.0090179443359375,-0.0027003437280654907,0.0001880638301372528
1761370527355370200,7.647370361328125,0.01099395751953125,0.004433080554008484,0.00034630298614501953
1761370527373981700,7.665981689453125,0.00368499755859375,-0.0004961192607879639,0.0004600696265697479
1761370527392595000,7.684594970703125,-0.0011081695556640625,0.004265740513801575,0.002863410860300064
1761370527411206400,7.703206298828125,0.008185386657714844,0.001886129379272461,0.0005800053477287292
1761370527429819400,7.7218193359375,0.0149383544921875,0.0018430352210998535,0.002876557409763336
1761370527448431000,7.74043115234375,0.000396728515625,-0.0006454288959503174,0.0007094405591487885
1761370527467044000,7.759044189453125,0.005089759826660156,-0.002903193235397339,0.007640369236469269
1761370527485655600,7.777655517578125,0.0025644302368164062,-0.005046769976615906,0.0029861368238925934
1761370527504268800,7.796268798828125,0.009501457214355469,-0.00016643106937408447,-0.0017349570989608765
1761370527522880300,7.81488037109375,-0.0024290084838867188,-0.00020264089107513428,-0.0015376731753349304
1761370527541493200,7.8334931640625,-0.0024271011352539062,-0.002467796206474304,0.007921837270259857
1761370527560105000,7.85210498046875,0.00467681884765625,-0.00006674230098724365,0.0007481426000595093
1761370527578718000,7.870718017578125,0.009228706359863281,-0.0024371743202209473,0.0007937364280223846
1761370527597329400,7.889329345703125,0.011237144470214844,0.00234965980052948,0.005539312958717346
1761370527615942700,7.907942626953125,0.008509635925292969,-0.0022586584091186523,0.0056374818086624146
1761370527634554000,7.92655419921875,0.0035190582275390625,0.004765674471855164,0.010168056935071945
1761370527653167000,7.9451669921875,0.00347900390625,-0.006929829716682434,0.0005649849772453308
1761370527671778800,7.96377880859375,0.001007080078125,-0.002050042152404785,0.010088354349136353
1761370527690391800,7.982391845703125,0.007917404174804688,-0.0020961016416549683,-0.004109743982553482
1761370527709003500,8.00100341796875,-0.0016832351684570312,-0.0019278377294540405,0.0008048787713050842
1761370527727616300,8.0196162109375,0.0030803680419921875,0.00047166645526885986,0.005461912602186203
1761370527746228000,8.03822802734375,0.0006246566772460938,-0.004170283675193787,0.0006120316684246063
1761370527764841000,8.056841064453126,0.00527191162109375,0.0005636513233184814,-0.0016616582870483398
1761370527783452400,8.075452392578125,-0.001926422119140625,0.0006596893072128296,0.003022029995918274
1761370527802065700,8.094065673828124,-0.00888824462890625,0.0006904006004333496,0.0007186979055404663
1761370527820677000,8.112677001953125,0.007803916931152344,-0.0017056763172149658,-0.0013986453413963318
1761370527839290000,8.1312900390625,0.0005598068237304688,-0.00153370201587677,0.0009946152567863464
1761370527857901800,8.14990185546875,-0.008836746215820312,-0.0037774592638015747,0.010409686714410782
1761370527876514800,8.168514892578125,-0.001522064208984375,0.003335118293762207,0.003247920423746109
1761370527895126500,8.18712646484375,0.00547027587890625,-0.003722772002220154,0.007934968918561935
1761370527913739300,8.2057392578125,0.002971649169921875,0.005814939737319946,0.0030512921512126923
1761370527932351000,8.22435107421875,0.009855270385742188,0.005754008889198303,-0.0015698820352554321
1761370527950964000,8.2429638671875,0.01419830322265625,-0.0015344321727752686,0.003066517412662506
1761370527969575400,8.261575439453125,0.004311561584472656,0.005560144782066345,0.003059089183807373
1761370527988188700,8.280188720703125,-0.00046253204345703125,0.0008629262447357178,0.002914629876613617
1761370528006800100,8.298800048828125,0.011246681213378906,0.0054295361042022705,0.0005011223256587982
1761370528025413000,8.3174130859375,0.0038890838623046875,0.002876847982406616,0.005203410983085632
1761370528044024800,8.33602490234375,0.0036792755126953125,0.0006203800439834595,0.0005051717162132263
1761370528062637800,8.354637939453125,-0.0011920928955078125,0.0005422085523605347,0.014660459011793137
1761370528081249300,8.373249267578124,0.0035953521728515625,-0.0017868280410766602,0.007302276790142059
1761370528099862300,8.3918623046875,0.0011205673217773438,0.00537225604057312,0.00014712661504745483
1761370528118474000,8.410473876953125,0.0011205673217773438,0.0005454272031784058,0.002601146697998047
1761370528137087000,8.4290869140625,0.005710601806640625,0.0075875818729400635,-0.0020659826695919037
1761370528155698400,8.447698486328125,0.005558967590332031,0.005020305514335632,-0.006558235734701157
1761370528174311400,8.4663115234375,0.00765228271484375,-0.0021243691444396973,0.0007895901799201965
1761370528192923100,8.484923095703126,-0.004097938537597656,0.007210493087768555,0.0054638199508190155
1761370528211536100,8.5035361328125,0.0028629302978515625,0.000047788023948669434,0.007685214281082153
1761370528230147600,8.522147705078124,0.005162239074707031,0.011452510952949524,0.0005164742469787598
1761370528248760800,8.5407607421875,0.0072689056396484375,-0.0005352795124053955,0.007689211517572403
1761370528267372300,8.559372314453125,0.00004291534423828125,-0.0051659345626831055,0.0005203410983085632
1761370528285985300,8.5779853515625,0.0047054290771484375,0.0021601319313049316,0.005221102386713028
1761370528304596700,8.5965966796875,0.0044689178466796875,-0.002543926239013672,-0.001731831580400467
1761370528323210000,8.6152099609375,0.009030342102050781,0.0022147148847579956,0.010174598544836044
1761370528341821400,8.633821533203125,0.0111236572265625,-0.00019188225269317627,-0.0017848201096057892
1761370528360434400,8.652434326171875,0.006085395812988281,0.002110987901687622,0.003107890486717224
1761370528379046000,8.6710458984375,-0.0035753250122070312,-0.00010381639003753662,0.007744673639535904
1761370528397659100,8.6896591796875,0.0012111663818359375,-0.0024739354848861694,0.005207780748605728
1761370528416270600,8.7082705078125,0.012823104858398438,0.000022098422050476074,0.002673327922821045
1761370528434883600,8.726883544921876,-0.0015707015991210938,-0.009374633431434631,0.007418673485517502
1761370528453495000,8.7454951171875,0.005463600158691406,0.00039042532444000244,-0.0020425058901309967
1761370528472108300,8.7641083984375,-0.006407737731933594,0.00023160874843597412,0.00033872947096824646
1761370528490719700,8.7827197265625,-0.0015277862548828125,0.00020705163478851318,0.005024906247854233
1761370528509332700,8.801332763671875,0.0031900405883789062,-0.004425272345542908,0.002683918923139572
1761370528527944200,8.819944091796875,-0.0016231536865234375,0.004984989762306213,0.004941288381814957
1761370528546557200,8.83855712890625,0.007848739624023438,-0.0022385120391845703,0.00010852515697479248
1761370528565169000,8.8571689453125,0.002838134765625,0.00022621452808380127,-0.002068992704153061
1761370528583782000,8.875781982421875,0.005177497863769531,0.000278472900390625,0.0004249364137649536
1761370528602393300,8.894393310546874,0.009633064270019531,0.00044015049934387207,0.0027962252497673035
1761370528621006300,8.91300634765625,0.00691986083984375,0.0004071742296218872,0.0028683654963970184
1761370528639618000,8.9316181640625,0.006610870361328125,-0.004254654049873352,0.00289887934923172
1761370528658231000,8.95023095703125,-0.0052242279052734375,-0.001699790358543396,0.007636800408363342
1761370528676842500,8.968842529296875,0.006720542907714844,0.003030046820640564,0.005140803754329681
1761370528695455500,8.98745556640625,0.011128425598144531,0.0005013793706893921,0.00031619518995285034
1761370528714067200,9.006067138671876,0.0012655258178710938,-0.0019035637378692627,0.0073602572083473206
1761370528732680200,9.02468017578125,0.006009101867675781,0.005337581038475037,0.0027242153882980347
1761370528751291600,9.043291748046874,0.0034952163696289062,-0.0018018484115600586,-0.0019508153200149536
1761370528769904600,9.061904541015625,-0.0036058425903320312,0.0028689056634902954,0.0028149597346782684
1761370528788516000,9.08051611328125,0.012797355651855469,0.007446125149726868,0.009793125092983246
1761370528807129300,9.09912939453125,-0.0016355514526367188,-0.004455357789993286,0.004870694130659103
1761370528825740800,9.11774072265625,-0.001544952392578125,0.00047548115253448486,-0.0022030435502529144
1761370528844353800,9.136353759765624,0.0054492950439453125,-0.0019131749868392944,0.0026652589440345764
1761370528862965200,9.15496533203125,0.0052280426025390625,-0.001789882779121399,0.009781759232282639
1761370528881578200,9.173578125,0.0005035400390625,0.0029259473085403442,0.007176600396633148
1761370528900189700,9.192189697265626,-0.00653839111328125,-0.0018982142210006714,0.00231904536485672
1761370528918803000,9.210802978515625,0.010038375854492188,-0.00407525897026062,0.007007382810115814
1761370528937414400,9.229414306640624,0.0026798248291015625,0.0008599907159805298,-0.00010556355118751526
1761370528956027400,9.24802734375,0.004866600036621094,-0.003895580768585205,0.002266671508550644
1761370528974638800,9.266638916015625,0.00945281982421875,-0.0037475377321243286,-0.0023824982345104218
1761370528993251800,9.285251953125,0.0044307708740234375,0.003491833806037903,0.011719200760126114
1761370529011863600,9.303863525390625,-0.005095481872558594,0.005751088261604309,-0.009572695940732956
1761370529030476500,9.3224765625,-0.0025348663330078125,-0.003795444965362549,0.00482061505317688
1761370529049088000,9.341087890625,-0.004729270935058594,0.010547325015068054,0.009361624717712402
1761370529067701000,9.359700927734375,-0.0022573471069335938,0.003140866756439209,-0.00030993297696113586
1761370529086312400,9.3783125,-0.006775856018066406,0.00311221182346344,0.0021660923957824707
1761370529104925400,9.396925537109375,0.004982948303222656,-0.001733526587486267,-0.00013336539268493652
1761370529123537200,9.415537109375,-0.0044803619384765625,-0.008670985698699951,0.004625394940376282
1761370529142150100,9.434150146484376,0.0026912689208984375,0.007902666926383972,0.011527065187692642
1761370529160761600,9.45276171875,-0.0020694732666015625,0.0005993545055389404,-0.002656649798154831
1761370529179374600,9.47137451171875,0.00027370452880859375,0.0006383657455444336,0.00902143120765686
1761370529197986000,9.489986083984375,0.007367134094238281,0.007471784949302673,0.004258852452039719
1761370529216599000,9.50859912109375,0.000057220458984375,-0.004352673888206482,0.0018892362713813782
1761370529235210800,9.527210693359375,0.00009250640869140625,-0.01352660357952118,-0.0026051662862300873
1761370529253823700,9.54582373046875,-0.004620552062988281,0.0010044127702713013,0.0022214651107788086
1761370529272435200,9.564435302734376,0.004909515380859375,0.007976129651069641,0.009202543646097183
1761370529291048200,9.583048095703125,0.002353668212890625,-0.0016603171825408936,0.0066145919263362885
1761370529309659600,9.60165966796875,-0.0023956298828125,0.01010073721408844,0.001703009009361267
1761370529328272600,9.620272705078126,0.009334564208984375,0.005158960819244385,0.0041253045201301575
1761370529346884400,9.63888427734375,-0.0003147125244140625,0.0027656257152557373,-0.009893126785755157
1761370529365497300,9.657497314453124,-0.004933357238769531,-0.00199049711227417,0.002254664897918701
1761370529384108800,9.67610888671875,-0.00241851806640625,0.002764657139778137,0.0023466795682907104
1761370529402721800,9.6947216796875,-0.009401321411132812,0.0003788173198699951,0.0022060945630073547
1761370529421333200,9.713333251953125,-0.0020303726196289062,0.005016699433326721,0.004652947187423706
1761370529439946200,9.7319462890625,-0.004317283630371094,0.00024147331714630127,0.004513677209615707
1761370529458557700,9.7505576171875,-0.0018224716186523438,0.002530008554458618,0.00673409178853035
1761370529477170700,9.769170654296875,-0.0018033981323242188,0.0024665743112564087,0.0019304193556308746
1761370529495782400,9.787782470703124,0.000530242919921875,-0.004445761442184448,0.0067258551716804504
1761370529514395400,9.8063955078125,0.0005502700805664062,0.002705812454223633,0.0018429942429065704
1761370529533006800,9.8250068359375,0.0028848648071289062,0.0003543049097061157,0.004325352609157562
1761370529551619800,9.843619873046874,-0.0018825531005859375,-0.0019914358854293823,0.008884645998477936
1761370529570231300,9.862231201171875,0.0028095245361328125,-0.0018655657768249512,0.001597810536623001
1761370529588844300,9.88084423828125,0.009738922119140625,0.0028304755687713623,0.006226733326911926
1761370529607455700,9.899455810546876,-0.006985664367675781,-0.006580621004104614,0.003696940839290619
1761370529626068700,9.91806884765625,0.0002288818359375,0.0029787272214889526,-0.0009837746620178223
1761370529644680400,9.936680419921874,0.007205009460449219,-0.0017458349466323853,-0.0008484460413455963
1761370529663293400,9.95529345703125,0.00002002716064453125,0.007687658071517944,-0.003064967691898346
1761370529681905000,9.97390478515625,0.004731178283691406,-0.0067038387060165405,-0.0005145445466041565
1761370529700518000,9.992517822265626,-0.002410888671875,0.005285114049911499,-0.0004801228642463684
1761370529719129300,10.01112939453125,-0.00704193115234375,-0.0018522441387176514,0.0018985606729984283
1761370529737742300,10.029742431640624,0.011866569519042969,0.00989849865436554,0.0019464120268821716
1761370529756353800,10.048353759765625,-0.00018310546875,0.004978850483894348,-0.0026067644357681274
1761370529774966800,10.066966796875,0.009121894836425781,0.0024808943271636963,0.004573147743940353
1761370529793578200,10.085578125,-0.0051479339599609375,0.0023804455995559692,0.004531607031822205
1761370529812191500,10.10419140625,-0.0003528594970703125,-0.00219707190990448,-0.00016001984477043152
1761370529830803000,10.122802978515624,-0.0073261260986328125,-0.0021265149116516113,0.002175692468881607
1761370529849416000,10.141416015625,-0.004730224609375,0.007396817207336426,-0.004904106259346008
1761370529868027400,10.16002734375,-0.006890296936035156,0.0026368051767349243,0.009321164339780807
1761370529886640400,10.178640380859376,0.0003204345703125,0.009553954005241394,0.004415307193994522
1761370529905251800,10.197251953125,-0.004477500915527344,-8.791685104370117e-7,-0.002589412033557892
1761370529923864800,10.21586474609375,0.0120697021484375,0.002295374870300293,0.011590752750635147
1761370529942476300,10.234476318359375,-0.00469207763671875,-0.0024690330028533936,-0.00035754963755607605
1761370529961089300,10.25308935546875,-0.013875007629394531,0.00460052490234375,-0.0025343336164951324
1761370529979700700,10.27170068359375,0.0006685256958007812,-0.0025697946548461914,0.01166653260588646
1761370529998313700,10.290313720703125,0.000568389892578125,-0.0024643540382385254,0.004273012280464172
1761370530016925400,10.308925537109374,0.002826690673828125,-0.0001817941665649414,0.006556380540132523
1761370530035538200,10.3275380859375,0.007515907287597656,0.002293124794960022,0.006426766514778137
1761370530054150000,10.34614990234375,0.0025959014892578125,0.0022940337657928467,0.003946226090192795
1761370530072763000,10.364762939453126,-0.004591941833496094,0.002237454056739807,0.0015015341341495514
1761370530091374300,10.383374267578125,0.009604454040527344,0.004460632801055908,0.011027403175830841
1761370530109987300,10.4019873046875,0.013994216918945312,0.0019405633211135864,-0.0010160505771636963
1761370530128598800,10.420598876953125,0.0018405914306640625,-0.0028043389320373535,-0.0008149035274982452
1761370530147211800,10.439211669921875,0.0040950775146484375,-0.0004873722791671753,0.006306823343038559
1761370530165823200,10.4578232421875,0.0062732696533203125,0.0019985735416412354,0.00615304708480835
1761370530184436200,10.476436279296875,0.0037097930908203125,-0.0004005730152130127,-0.0009885355830192566
1761370530203047700,10.495047607421874,-0.0010042190551757812,0.0018931478261947632,-0.000806950032711029
1761370530221660700,10.51366064453125,0.0036611557006835938,-0.0028347820043563843,-0.0008982494473457336
1761370530240272100,10.532272216796875,0.010601997375488281,0.0019325315952301025,0.008636340498924255
1761370530258885000,10.550885009765626,0.0031480789184570312,0.004125922918319702,0.003807082772254944
1761370530277496600,10.56949658203125,0.007747650146484375,0.004216387867927551,-0.0008223764598369598
1761370530296109600,10.588109619140624,0.0051746368408203125,-0.00061054527759552,-0.0053232163190841675
1761370530314721300,10.60672119140625,0.00037288665771484375,-0.007609277963638306,-0.0003507360816001892
1761370530333334000,10.625333984375,-0.006667137145996094,-0.007242709398269653,-0.00017157569527626038
1761370530351945700,10.64394580078125,-0.00644683837890625,-0.006926879286766052,0.004479479044675827
1761370530370558700,10.662558837890625,-0.0016040802001953125,0.004959180951118469,0.002032853662967682
1761370530389170200,10.681170166015624,0.0031976699829101562,-0.0022625476121902466,-0.007206141948699951
1761370530407783200,10.699783203125,-0.003933906555175781,-0.009229227900505066,0.004903949797153473
1761370530426394600,10.71839453125,0.0031795501708984375,-0.0018184930086135864,0.00012056902050971985
1761370530445007600,10.737007568359376,0.0030727386474609375,-0.001682877540588379,0.00951254740357399
1761370530463619000,10.755619140625,0.0076808929443359375,0.0005816072225570679,0.00008128955960273743
1761370530482232000,10.774232177734374,-0.0019140243530273438,0.007756084203720093,0.0024099983274936676
1761370530500843500,10.792843505859375,0.002819061279296875,0.0004959404468536377,0.00475592166185379
1761370530519456500,10.81145654296875,-0.0042591094970703125,0.00046175718307495117,0.0021648332476615906
1761370530538068000,10.83006787109375,0.005219459533691406,0.005175366997718811,-0.00015032291412353516
1761370530556681000,10.848680908203125,0.0027303695678710938,-0.001959294080734253,0.0022959858179092407
1761370530575292400,10.86729248046875,0.0025987625122070312,-0.001802682876586914,-0.004786822944879532
1761370530593905400,10.885905517578125,-0.006827354431152344,0.0006316453218460083,0.0025053732097148895
1761370530612516900,10.904516845703125,-0.0018939971923828125,-0.0017624646425247192,-0.0021909400820732117
1761370530631129900,10.9231298828125,0.009900093078613281,-0.0015496015548706055,0.0001736469566822052
1761370530649741300,10.9417412109375,0.0025501251220703125,-0.0038481056690216064,0.002555225044488907
1761370530668354300,10.960354248046874,-0.0068759918212890625,0.00023664534091949463,0.019332677125930786
1761370530686965800,10.9789658203125,-0.00209808349609375,0.004891052842140198,-0.023296386003494263
1761370530705578800,10.997578857421875,0.021353721618652344,-0.002176716923713684,0.010481912642717361
1761370530724190200,11.016190185546876,0.004483222961425781,-0.006446361541748047,0.0018992498517036438
1761370530742803200,11.03480322265625,-0.005082130432128906,0.0009536296129226685,0.007953498512506485
