time,seconds_elapsed,z,y,x
1761370519984925200,0.27692529296875,0,0.000687203137204051,0.0005344913806766272
1761370520003536400,0.295536376953125,0,0.00129805039614439,-0.00015271181473508477
1761370520022149000,0.314149169921875,0,0.000687203137204051,-0.00015271181473508477
1761370520040760600,0.332760498046875,0.0006108472589403391,0.000687203137204051,0.0005344913806766272
1761370520059373300,0.351373291015625,-0.0006108472589403391,0.000687203137204051,0.0005344913806766272
1761370520077984800,0.36998486328125,0,0.000687203137204051,-0.00015271181473508477
1761370520096597500,0.388597412109375,0,0.000687203137204051,-0.00015271181473508477
1761370520115208700,0.407208740234375,0.0006108472589403391,0.000687203137204051,0.0005344913806766272
1761370520133821400,0.425821533203125,0.0006108472589403391,0.000687203137204051,0.0005344913806766272
1761370520152433000,0.444432861328125,0.0006108472589403391,0.00129805039614439,0.0005344913806766272
1761370520171045600,0.463045654296875,0,0.00129805039614439,-0.00015271181473508477
1761370520189656800,0.48165673828125,0.0006108472589403391,0.000687203137204051,-0.0007635590736754239
1761370520208269800,0.500269775390625,0,0.000687203137204051,-0.0007635590736754239
1761370520226881000,0.518881103515625,0.0006108472589403391,0.000687203137204051,-0.00015271181473508477
1761370520245493800,0.53749365234375,0.0006108472589403391,0.000687203137204051,0.0005344913806766272
1761370520264105200,0.556105224609375,0.0006108472589403391,0.00129805039614439,-0.00015271181473508477
1761370520282718000,0.574718017578125,0.0006108472589403391,0.00129805039614439,-0.00015271181473508477
1761370520301329400,0.593329345703125,0,0.00007635590736754239,-0.00015271181473508477
1761370520319942100,0.611942138671875,0,0.00129805039614439,-0.00015271181473508477
1761370520338553300,0.63055322265625,0,0.000687203137204051,-0.00015271181473508477
1761370520357166300,0.649166259765625,0,0.000687203137204051,0.0005344913806766272
1761370520375777500,0.667777587890625,0.0006108472589403391,0.00007635590736754239,0.0005344913806766272
1761370520394390500,0.686390625,0.0012216945178806782,0.00129805039614439,0.0005344913806766272
1761370520413001700,0.705001708984375,0.0006108472589403391,0.000687203137204051,0.0005344913806766272
1761370520431614700,0.72361474609375,0.0006108472589403391,0.00129805039614439,0.0005344913806766272
1761370520450226000,0.742225830078125,0,0.000687203137204051,-0.0007635590736754239
1761370520468838700,0.760838623046875,0,0.000687203137204051,0.0005344913806766272
1761370520487450000,0.7794501953125,0.0012216945178806782,0.00129805039614439,-0.0007635590736754239
1761370520506062800,0.798062744140625,0.0006108472589403391,0.00129805039614439,-0.00015271181473508477
1761370520524674300,0.81667431640625,0.0012216945178806782,0.00129805039614439,-0.0007635590736754239
1761370520543287000,0.835287109375,0.0006108472589403391,0.00129805039614439,0.0005344913806766272
1761370520561898500,0.8538984375,0.0006108472589403391,0.00129805039614439,-0.0007635590736754239
1761370520580511200,0.87251123046875,0.0012216945178806782,0.0019088976550847292,-0.00015271181473508477
1761370520599122700,0.891122802734375,0.0006108472589403391,0.000687203137204051,-0.00015271181473508477
1761370520617735400,0.9097353515625,0.0006108472589403391,0.000687203137204051,0.0005344913806766272
1761370520636347000,0.928346923828125,0.0006108472589403391,0.000687203137204051,-0.00015271181473508477
1761370520654959600,0.946959716796875,0.0006108472589403391,0.000687203137204051,-0.0007635590736754239
1761370520673571000,0.965571044921875,0.0006108472589403391,0.000687203137204051,-0.00015271181473508477
1761370520692183800,0.984183837890625,0.0006108472589403391,0.000687203137204051,-0.0007635590736754239
1761370520710795300,1.002795166015625,0.0006108472589403391,0.000687203137204051,-0.00015271181473508477
1761370520729408000,1.021407958984375,0.0006108472589403391,0.000687203137204051,-0.00015271181473508477
1761370520748019500,1.04001953125,0.0006108472589403391,0.000687203137204051,-0.00015271181473508477
1761370520766632200,1.058632080078125,0,0.00007635590736754239,-0.00015271181473508477
1761370520785243600,1.07724365234375,0.0006108472589403391,0.00007635590736754239,0.0011453386396169662
1761370520803856400,1.0958564453125,0,0.00129805039614439,-0.0007635590736754239
1761370520822467800,1.1144677734375,0.0006108472589403391,0.000687203137204051,-0.00015271181473508477
1761370520841080600,1.13308056640625,0,0.00129805039614439,0.0005344913806766272
1761370520859692000,1.151692138671875,0.0006108472589403391,0.000687203137204051,-0.0007635590736754239
1761370520878304800,1.1703046875,0.0006108472589403391,0.000687203137204051,-0.00015271181473508477
1761370520896916200,1.188916259765625,0.0006108472589403391,0.00129805039614439,-0.00015271181473508477
1761370520915529000,1.207529052734375,0.0006108472589403391,0.0019088976550847292,-0.00015271181473508477
1761370520934140400,1.226140380859375,0.0006108472589403391,0.000687203137204051,-0.0007635590736754239
1761370520952753400,1.24475341796875,0,0.00129805039614439,0.0005344913806766272
1761370520971364600,1.263364501953125,0,0.000687203137204051,-0.0007635590736754239
1761370520989977600,1.2819775390625,0,0.00007635590736754239,0.0005344913806766272
1761370521008588800,1.3005888671875,0,0.00129805039614439,-0.00015271181473508477
1761370521027201800,1.319201904296875,0.0006108472589403391,0.000687203137204051,-0.0007635590736754239
1761370521045813200,1.337813232421875,0.0006108472589403391,0.00129805039614439,-0.00015271181473508477
1761370521064426000,1.356426025390625,0.0012216945178806782,0.00129805039614439,-0.00015271181473508477
1761370521083037400,1.375037353515625,0.0006108472589403391,0.000687203137204051,-0.0007635590736754239
1761370521101650200,1.393650146484375,0,0.000687203137204051,-0.00015271181473508477
1761370521120261600,1.41226171875,0.0006108472589403391,0.00129805039614439,-0.00015271181473508477
1761370521138874400,1.430874267578125,0.0006108472589403391,0.00129805039614439,-0.00015271181473508477
1761370521157485800,1.44948583984375,0.0006108472589403391,0.00129805039614439,-0.00015271181473508477
1761370521176098800,1.468098876953125,0,0.00129805039614439,0.0005344913806766272
1761370521194710000,1.4867099609375,0.0006108472589403391,0.000687203137204051,-0.00015271181473508477
1761370521213323000,1.505322998046875,0.0006108472589403391,0.00129805039614439,-0.00015271181473508477
1761370521231934500,1.5239345703125,0.0006108472589403391,-0.0005344913806766272,-0.001374406274408102
1761370521250547200,1.542547119140625,0.0012216945178806782,0.00129805039614439,-0.00015271181473508477
1761370521269158700,1.56115869140625,0,0.00007635590736754239,-0.00015271181473508477
1761370521287771600,1.579771728515625,0.0006108472589403391,0.000687203137204051,-0.00015271181473508477
1761370521306382800,1.5983828125,0.0006108472589403391,0.000687203137204051,-0.00015271181473508477
1761370521324995800,1.616995849609375,0.0006108472589403391,0.000687203137204051,-0.00015271181473508477
1761370521343607300,1.635607177734375,0.0006108472589403391,0.00129805039614439,-0.00015271181473508477
1761370521362220000,1.654219970703125,0,0.00129805039614439,0.0005344913806766272
1761370521380831500,1.67283154296875,0,0.000687203137204051,-0.0007635590736754239
1761370521399444500,1.691444580078125,0.0006108472589403391,0.00007635590736754239,-0.00015271181473508477
1761370521418055700,1.7100556640625,0.0006108472589403391,0.000687203137204051,-0.00015271181473508477
1761370521436668700,1.728668701171875,0,0.000687203137204051,-0.00015271181473508477
1761370521455280000,1.747280029296875,0.0006108472589403391,0.00129805039614439,-0.0007635590736754239
1761370521473892900,1.765892822265625,0.0006108472589403391,0.000687203137204051,-0.00015271181473508477
1761370521492504300,1.78450439453125,0.0006108472589403391,0.00129805039614439,0.0005344913806766272
1761370521539035600,1.83103564453125,0.0006108472589403391,0.000687203137204051,-0.00015271181473508477
1761370521557646800,1.849646728515625,0,0.00007635590736754239,-0.001374406274408102
1761370521576259800,1.868259765625,0,0.00129805039614439,-0.0007635590736754239
1761370521594871000,1.88687109375,0,0.000687203137204051,-0.00015271181473508477
1761370521613484000,1.905484130859375,0.0006108472589403391,0.00007635590736754239,-0.00015271181473508477
1761370521632095500,1.924095458984375,0.0006108472589403391,0.000687203137204051,0.0005344913806766272
1761370521650708500,1.94270849609375,0,0.00007635590736754239,-0.00015271181473508477
1761370521669319700,1.961319580078125,0.0006108472589403391,0.000687203137204051,-0.00015271181473508477
1761370521687932700,1.9799326171875,0,0.000687203137204051,-0.00015271181473508477
1761370521706544000,1.998544189453125,0.0006108472589403391,0.00129805039614439,0.0005344913806766272
1761370521725157000,2.0171572265625,0,0.000687203137204051,-0.0007635590736754239
1761370521743768300,2.035768310546875,0,0.000687203137204051,-0.0007635590736754239
1761370521762381300,2.05438134765625,0.0006108472589403391,0.000687203137204051,-0.00015271181473508477
1761370521780992800,2.07299267578125,0.0006108472589403391,0.000687203137204051,-0.00015271181473508477
1761370521799605800,2.091605712890625,0.0006108472589403391,0.00007635590736754239,-0.00015271181473508477
1761370521818217000,2.110217041015625,0.0006108472589403391,0.000687203137204051,0.0005344913806766272
1761370521836830000,2.128829833984375,0,0.000687203137204051,-0.00015271181473508477
1761370521855441400,2.14744140625,0.0006108472589403391,0.00129805039614439,-0.00015271181473508477
1761370521874054400,2.166054443359375,0.0006108472589403391,0.00129805039614439,-0.00015271181473508477
1761370521892665900,2.184665771484375,-0.0006108472589403391,0.00007635590736754239,-0.00015271181473508477
1761370521911278600,2.203278564453125,0.0006108472589403391,0.00007635590736754239,0.0005344913806766272
1761370521929890000,2.22189013671875,0,0.00129805039614439,-0.00015271181473508477
1761370521948503000,2.2405029296875,-0.0006108472589403391,0.000687203137204051,-0.00015271181473508477
1761370521967114500,2.259114501953125,0,0.000687203137204051,0.0005344913806766272
1761370521985727500,2.2777275390625,0,0.000687203137204051,-0.00015271181473508477
1761370522004338700,2.296338623046875,0,0.000687203137204051,-0.00015271181473508477
1761370522022951700,2.31495166015625,0.0006108472589403391,0.000687203137204051,-0.00015271181473508477
1761370522041563100,2.333563232421875,0,0.000687203137204051,0.0005344913806766272
1761370522060176100,2.352176025390625,0.0006108472589403391,0.00007635590736754239,0.0005344913806766272
1761370522078787600,2.37078759765625,0,0.000687203137204051,-0.00015271181473508477
1761370522097400600,2.389400634765625,0,0.000687203137204051,0.0005344913806766272
1761370522116011800,2.40801171875,0,0.000687203137204051,-0.00015271181473508477
1761370522134624800,2.426624755859375,-0.0006108472589403391,0.00129805039614439,-0.0007635590736754239
1761370522153236200,2.445236328125,0,0.000687203137204051,-0.0007635590736754239
1761370522171849200,2.46384912109375,0.0006108472589403391,0.000687203137204051,-0.00015271181473508477
1761370522190460700,2.482460693359375,0.0006108472589403391,0.000687203137204051,-0.0007635590736754239
1761370522209073700,2.50107373046875,0.0006108472589403391,0.000687203137204051,-0.0007635590736754239
1761370522227684900,2.519684814453125,0,0.00007635590736754239,-0.00015271181473508477
1761370522246298000,2.538298095703125,0,0.0019088976550847292,-0.0007635590736754239
1761370522264909300,2.556909423828125,0,0.000687203137204051,-0.0007635590736754239
1761370522283522300,2.575522216796875,0,0.000687203137204051,-0.00015271181473508477
1761370522302133800,2.5941337890625,-0.0006108472589403391,0.00007635590736754239,0.0005344913806766272
1761370522320746800,2.612746826171875,0,0.00129805039614439,-0.00015271181473508477
1761370522339358200,2.631358154296875,0,0.00007635590736754239,-0.00015271181473508477
1761370522357971200,2.64997119140625,0,0.00129805039614439,-0.00015271181473508477
1761370522376582400,2.66858251953125,0.0006108472589403391,0.000687203137204051,-0.0007635590736754239
1761370522395195600,2.687195556640625,-0.0006108472589403391,0.00007635590736754239,-0.00015271181473508477
1761370522413806800,2.705806884765625,0,0.000687203137204051,-0.0007635590736754239
1761370522432419800,2.724419921875,0,0.00007635590736754239,-0.00015271181473508477
1761370522451031300,2.74303125,0,0.000687203137204051,-0.00015271181473508477
1761370522469644300,2.761644287109375,0.0006108472589403391,0.000687203137204051,0.0005344913806766272
1761370522497561900,2.789561767578125,0,0.00129805039614439,-0.001374406274408102
1761370522516174800,2.8081748046875,0,0.000687203137204051,0.0005344913806766272
1761370522534786300,2.826786376953125,0.0006108472589403391,0.000687203137204051,-0.00015271181473508477
1761370522553399300,2.8453994140625,0,0.000687203137204051,-0.00015271181473508477
1761370522572010800,2.8640107421875,0,0.00129805039614439,-0.00015271181473508477
1761370522590623500,2.88262353515625,-0.0006108472589403391,0.00007635590736754239,-0.0007635590736754239
1761370522609235000,2.90123486328125,0,0.000687203137204051,-0.00015271181473508477
1761370522627848000,2.919847900390625,0,0.00007635590736754239,-0.0007635590736754239
1761370522646459400,2.93845947265625,0.0006108472589403391,0.00007635590736754239,0.0005344913806766272
1761370522665072400,2.957072265625,0,0.00007635590736754239,-0.0007635590736754239
1761370522683683800,2.975683837890625,0.0006108472589403391,0.00007635590736754239,-0.00015271181473508477
1761370522702296800,2.994296875,0,0.000687203137204051,-0.00015271181473508477
1761370522720908300,3.012908203125,0.0006108472589403391,0.00129805039614439,-0.00015271181473508477
1761370522739521300,3.031521240234375,0.0006108472589403391,0.000687203137204051,-0.00015271181473508477
1761370522758132700,3.0501328125,0.0006108472589403391,0.000687203137204051,-0.00015271181473508477
1761370522776745700,3.068745849609375,0.0006108472589403391,0.00007635590736754239,-0.00015271181473508477
1761370522795357200,3.087357177734375,0,0.000687203137204051,-0.0007635590736754239
1761370522813970200,3.10597021484375,0,0.000687203137204051,-0.00015271181473508477
1761370522832581600,3.12458154296875,0,0.00129805039614439,-0.00015271181473508477
1761370522851194600,3.143194580078125,0.0012216945178806782,0.00129805039614439,-0.00015271181473508477
1761370522869806000,3.16180615234375,0.0006108472589403391,0.000687203137204051,-0.00015271181473508477
1761370522888419000,3.180419189453125,0.0006108472589403391,0.000687203137204051,-0.00015271181473508477
1761370522907030500,3.199030517578125,0.0006108472589403391,0.00007635590736754239,-0.00015271181473508477
1761370522925643500,3.2176435546875,0.0006108472589403391,0.000687203137204051,-0.00015271181473508477
1761370522944255000,3.2362548828125,0.0006108472589403391,0.000687203137204051,-0.00015271181473508477
1761370522962868000,3.254867919921875,0,0.000687203137204051,-0.00015271181473508477
1761370522981479400,3.2734794921875,0.0006108472589403391,0.000687203137204051,-0.00015271181473508477
1761370523000092400,3.292092529296875,0.0006108472589403391,0.00007635590736754239,-0.00015271181473508477
1761370523018704000,3.310703857421875,0.0006108472589403391,0.000687203137204051,-0.00015271181473508477
1761370523037316900,3.32931689453125,0,0.00129805039614439,-0.0007635590736754239
1761370523055928300,3.34792822265625,0,0.000687203137204051,-0.00015271181473508477
1761370523074541300,3.366541259765625,-0.0006108472589403391,0.000687203137204051,-0.00015271181473508477
1761370523093152800,3.38515283203125,-0.0006108472589403391,0.000687203137204051,-0.0007635590736754239
1761370523111765800,3.403765869140625,0,0.000687203137204051,-0.00015271181473508477
1761370523130377200,3.422377197265625,0.0006108472589403391,0.000687203137204051,-0.00015271181473508477
1761370523148990200,3.440990234375,0.0006108472589403391,0.00007635590736754239,-0.00015271181473508477
1761370523167601700,3.4596015625,0,0.000687203137204051,0.0005344913806766272
1761370523186214700,3.478214599609375,0,0.000687203137204051,-0.00015271181473508477
1761370523204826000,3.496826171875,0.0006108472589403391,0.000687203137204051,-0.00015271181473508477
1761370523223439000,3.515439208984375,0.0006108472589403391,0.00007635590736754239,-0.00015271181473508477
1761370523242050600,3.534050537109375,0,0.000687203137204051,0.0005344913806766272
1761370523260663600,3.55266357421875,0.0006108472589403391,0.00007635590736754239,-0.00015271181473508477
1761370523279275000,3.57127490234375,0.0006108472589403391,0.000687203137204051,-0.00015271181473508477
1761370523297888000,3.589887939453125,0.0006108472589403391,0.00007635590736754239,-0.00015271181473508477
1761370523316499700,3.608499755859375,0,0.000687203137204051,-0.00015271181473508477
1761370523335112400,3.627112548828125,0.0006108472589403391,0.00129805039614439,-0.00015271181473508477
1761370523353724200,3.64572412109375,0,0.00129805039614439,-0.0007635590736754239
1761370523372337200,3.664337158203125,0.0006108472589403391,0.00007635590736754239,-0.00015271181473508477
1761370523390948600,3.682948486328125,-0.0006108472589403391,0.00129805039614439,-0.00015271181473508477
1761370523409561600,3.7015615234375,0,0.00007635590736754239,-0.0007635590736754239
1761370523428173000,3.720173095703125,0.0006108472589403391,0.000687203137204051,-0.00015271181473508477
1761370523446786000,3.7387861328125,0,0.00007635590736754239,-0.00015271181473508477
1761370523465397500,3.7573974609375,0,0.000687203137204051,-0.00015271181473508477
1761370523484010500,3.776010498046875,0,0.000687203137204051,-0.00015271181473508477
1761370523502622000,3.7946220703125,0,0.000687203137204051,-0.00015271181473508477
1761370523521235000,3.81323486328125,0,0.00007635590736754239,-0.00015271181473508477
1761370523539846400,3.831846435546875,0,0.000687203137204051,0.0005344913806766272
1761370523558459600,3.850459716796875,-0.0006108472589403391,0.000687203137204051,0.0005344913806766272
1761370523577071000,3.869071044921875,0.0006108472589403391,0.000687203137204051,-0.0007635590736754239
1761370523595684000,3.88768408203125,0.0006108472589403391,0.000687203137204051,-0.0007635590736754239
1761370523614295600,3.906295654296875,0,0.00007635590736754239,-0.0007635590736754239
1761370523632908500,3.924908447265625,0.0006108472589403391,0.00007635590736754239,-0.0007635590736754239
1761370523651520000,3.94352001953125,-0.0006108472589403391,0.000687203137204051,-0.00015271181473508477
1761370523670133000,3.962133056640625,0,0.000687203137204051,-0.0007635590736754239
1761370523688744700,3.98074462890625,-0.0006108472589403391,0.000687203137204051,-0.0007635590736754239
1761370523707357700,3.999357666015625,0,0.00007635590736754239,-0.00015271181473508477
1761370523725969200,4.01796923828125,0,0.00007635590736754239,-0.0007635590736754239
1761370523744582100,4.03658203125,0,0.000687203137204051,-0.0007635590736754239
1761370523763193600,4.055193603515625,-0.0006108472589403391,0.000687203137204051,-0.0007635590736754239
1761370523781806600,4.073806640625,0,0.00129805039614439,-0.0007635590736754239
1761370523800418300,4.092418212890625,0,0.000687203137204051,-0.00015271181473508477
1761370523819031300,4.11103125,0.0006108472589403391,0.00129805039614439,-0.0007635590736754239
1761370523837642800,4.129642822265625,0,0.000687203137204051,-0.00015271181473508477
1761370523856255700,4.148255859375,0.0006108472589403391,0.00129805039614439,-0.00015271181473508477
1761370523874867200,4.1668671875,0.0006108472589403391,0.000687203137204051,0.0005344913806766272
1761370523893480200,4.185480224609375,0,0.000687203137204051,-0.00015271181473508477
1761370523912092000,4.204091796875,0.0006108472589403391,0.000687203137204051,-0.00015271181473508477
1761370523930705000,4.222704833984375,0.0006108472589403391,0.00007635590736754239,-0.0007635590736754239
1761370523949316400,4.24131640625,0.0006108472589403391,0.000687203137204051,0.0005344913806766272
1761370523967929300,4.259929443359375,0,0.000687203137204051,-0.0007635590736754239
1761370523986540800,4.278540771484375,0,0.00007635590736754239,0.0005344913806766272
1761370524005154000,4.297154052734375,0.0006108472589403391,0.000687203137204051,-0.00015271181473508477
1761370524023765500,4.315765625,0,0.000687203137204051,-0.0007635590736754239
1761370524042378500,4.33437841796875,0.0006108472589403391,0.00129805039614439,-0.0007635590736754239
1761370524060990000,4.352989990234375,-0.0006108472589403391,0.00007635590736754239,-0.00015271181473508477
1761370524079603000,4.37160302734375,0.0006108472589403391,0.000687203137204051,-0.00015271181473508477
1761370524098214700,4.390214599609375,0,0.000687203137204051,-0.00015271181473508477
1761370524116827600,4.40882763671875,0,0.00007635590736754239,-0.00015271181473508477
1761370524135439000,4.427439208984375,0,0.00007635590736754239,-0.00015271181473508477
1761370524154052000,4.446052001953125,0,0.000687203137204051,-0.0007635590736754239
1761370524172663600,4.46466357421875,0,0.00129805039614439,-0.00015271181473508477
1761370524191276800,4.48327685546875,0.0006108472589403391,0.000687203137204051,0.0005344913806766272
1761370524209888300,4.50188818359375,0,0.00007635590736754239,-0.00015271181473508477
1761370524228501200,4.520501220703125,0.0006108472589403391,0.00007635590736754239,0.0005344913806766272
1761370524247112700,4.53911279296875,0,0.000687203137204051,-0.00015271181473508477
1761370524265726000,4.557725830078125,0,0.000687203137204051,-0.00015271181473508477
1761370524284337400,4.57633740234375,0,0.000687203137204051,-0.00015271181473508477
1761370524302950400,4.594950439453125,0.0012216945178806782,0.000687203137204051,-0.0007635590736754239
1761370524321562000,4.61356201171875,0,0.000687203137204051,-0.0007635590736754239
1761370524340175000,4.632175048828125,0,0.00007635590736754239,-0.00015271181473508477
1761370524358786600,4.65078662109375,0.0006108472589403391,0.00007635590736754239,-0.00015271181473508477
1761370524377399600,4.669399658203125,0.0006108472589403391,0.00007635590736754239,-0.0007635590736754239
1761370524396011300,4.68801123046875,0,0.00007635590736754239,0.0005344913806766272
1761370524414624300,4.706624267578125,0.0006108472589403391,0.000687203137204051,-0.00015271181473508477
1761370524433235700,4.725235595703125,0,0.00007635590736754239,-0.00015271181473508477
1761370524451848700,4.7438486328125,0.0006108472589403391,0.00007635590736754239,-0.0007635590736754239
1761370524470460400,4.76246044921875,0,0.00007635590736754239,-0.00015271181473508477
1761370524489073400,4.781073486328125,0,0.000687203137204051,-0.00015271181473508477
1761370524507684900,4.799684814453125,0.0006108472589403391,0.00007635590736754239,0.0005344913806766272
1761370524526298000,4.818298095703125,0,0.000687203137204051,-0.00015271181473508477
1761370524544909600,4.83690966796875,0,0.000687203137204051,0.0005344913806766272
1761370524563522600,4.8555224609375,0.0006108472589403391,0.00129805039614439,-0.00015271181473508477
1761370524582134000,4.874134033203125,0.0006108472589403391,0.000687203137204051,0.0005344913806766272
1761370524600747300,4.892747314453125,0.0006108472589403391,0.000687203137204051,-0.00015271181473508477
1761370524619358700,4.911358642578125,0,-0.0005344913806766272,-0.00015271181473508477
1761370524637971700,4.9299716796875,0.0006108472589403391,0.00129805039614439,0.0005344913806766272
1761370524656583200,4.948583251953125,0,0.00007635590736754239,-0.00015271181473508477
1761370524675196400,4.967196533203125,-0.0006108472589403391,0.00007635590736754239,0.0005344913806766272
1761370524693807900,4.985807861328125,0,0.000687203137204051,0.0005344913806766272
1761370524712421000,5.004421142578125,0,-0.0005344913806766272,-0.00015271181473508477
1761370524731032600,5.023032470703125,0,0.000687203137204051,0.0005344913806766272
1761370524749645600,5.0416455078125,0,0.00007635590736754239,0.0005344913806766272
1761370524768257000,5.060257080078125,0,0.000687203137204051,-0.0007635590736754239
1761370524786870300,5.078870361328125,0,0.000687203137204051,0.0005344913806766272
1761370524805481700,5.097481689453125,0,0.000687203137204051,-0.0007635590736754239
1761370524824094700,5.1160947265625,0,0.000687203137204051,-0.00015271181473508477
1761370524842706400,5.13470654296875,0,0.00007635590736754239,0.0005344913806766272
1761370524861319400,5.1533193359375,0,0.00007635590736754239,-0.00015271181473508477
1761370524879931000,5.171930908203125,0,0.00129805039614439,-0.00015271181473508477
1761370524898544000,5.190544189453125,0,0.000687203137204051,-0.0007635590736754239
1761370524917155600,5.209155517578125,0,0.000687203137204051,0.0005344913806766272
1761370524935768600,5.2277685546875,0,0.000687203137204051,0.0011453386396169662
1761370524954380300,5.24638037109375,0,0.00007635590736754239,-0.0007635590736754239
1761370524972993300,5.2649931640625,0,0.000687203137204051,-0.0007635590736754239
1761370524991604700,5.283604736328125,0,0.000687203137204051,0.0005344913806766272
1761370525010218000,5.302218017578125,0,0.000687203137204051,0.0005344913806766272
1761370525028829400,5.320829345703125,0.0006108472589403391,0.00129805039614439,0.0005344913806766272
1761370525047442700,5.339442626953125,0,0.00007635590736754239,-0.00015271181473508477
1761370525066054100,5.35805419921875,-0.0006108472589403391,0.00007635590736754239,0.0005344913806766272
1761370525084667100,5.376667236328125,0.0006108472589403391,0.000687203137204051,-0.0007635590736754239
1761370525103278600,5.395278564453125,0,0.00007635590736754239,-0.00015271181473508477
1761370525121891800,5.413891845703125,0,0.00007635590736754239,-0.00015271181473508477
1761370525140503300,5.43250341796875,0,0.000687203137204051,0.0005344913806766272
1761370525159116500,5.451116455078125,0.0006108472589403391,0.00007635590736754239,0.0005344913806766272
1761370525177728000,5.46972802734375,0,0.000687203137204051,-0.00015271181473508477
1761370525196341000,5.488341064453125,0.0006108472589403391,0.00129805039614439,-0.00015271181473508477
1761370525214952700,5.50695263671875,0,0.00129805039614439,-0.0007635590736754239
1761370525233565700,5.525565673828125,0,0.000687203137204051,-0.00015271181473508477
1761370525252177200,5.54417724609375,0,0.00129805039614439,-0.00015271181473508477
1761370525270790400,5.562790283203125,0,0.00007635590736754239,-0.00015271181473508477
1761370525289401900,5.58140185546875,0,0.000687203137204051,-0.00015271181473508477
1761370525308014800,5.600014892578125,0,0.000687203137204051,-0.00015271181473508477
1761370525326626600,5.61862646484375,0,0.00129805039614439,-0.0007635590736754239
1761370525345239600,5.637239501953125,0,0.000687203137204051,-0.00015271181473508477
1761370525363851300,5.655851318359375,0,0.000687203137204051,-0.00015271181473508477
1761370525382464300,5.67446435546875,0.0006108472589403391,0.000687203137204051,-0.00015271181473508477
1761370525401075700,5.69307568359375,0.0006108472589403391,0.00129805039614439,-0.00015271181473508477
1761370525419689000,5.71168896484375,0.0006108472589403391,0.000687203137204051,-0.0007635590736754239
1761370525438300400,5.730300537109375,0.0006108472589403391,0.000687203137204051,0.0005344913806766272
1761370525456913400,5.748913330078125,0.0006108472589403391,0.000687203137204051,-0.00015271181473508477
1761370525475525000,5.767525146484375,0.0006108472589403391,0.000687203137204051,-0.0007635590736754239
1761370525494138000,5.78613818359375,0.0006108472589403391,0.000687203137204051,0.0005344913806766272
1761370525512749800,5.804749755859375,0.0006108472589403391,0.000687203137204051,-0.0007635590736754239
1761370525531362800,5.82336279296875,0.0006108472589403391,0.000687203137204051,-0.0007635590736754239
1761370525549974500,5.841974609375,-0.0006108472589403391,-0.0005344913806766272,0.0005344913806766272
1761370525568587500,5.86058740234375,0.0012216945178806782,0.000687203137204051,0.0005344913806766272
1761370525587199000,5.879198974609375,0,0.000687203137204051,-0.00015271181473508477
1761370525605812200,5.897812255859375,0.0006108472589403391,0.000687203137204051,-0.00015271181473508477
1761370525624423700,5.916423583984375,0,0.00007635590736754239,-0.00015271181473508477
1761370525643036700,5.93503662109375,0,0.000687203137204051,-0.0007635590736754239
1761370525661648400,5.9536484375,-0.0006108472589403391,0.00007635590736754239,-0.00015271181473508477
1761370525680261400,5.972261474609375,0,0.000687203137204051,-0.00015271181473508477
1761370525698872800,5.990872802734375,0,0.000687203137204051,0.0005344913806766272
1761370525717486000,6.009486083984375,0,0.000687203137204051,0.0005344913806766272
1761370525736097500,6.02809765625,0,0.000687203137204051,-0.00015271181473508477
1761370525754710800,6.046710693359375,0,0.000687203137204051,-0.00015271181473508477
1761370525773322200,6.065322265625,0.0006108472589403391,0.000687203137204051,-0.0007635590736754239
1761370525791935200,6.083935302734375,-0.0006108472589403391,-0.0005344913806766272,-0.00015271181473508477
1761370525810547000,6.102546875,0.0006108472589403391,0.00129805039614439,-0.00015271181473508477
1761370525829160000,6.121159912109375,-0.0006108472589403391,0.00007635590736754239,0.0005344913806766272
1761370525847771600,6.139771728515625,0,0.00007635590736754239,-0.00015271181473508477
1761370525866384600,6.158384521484375,0,0.000687203137204051,0.0005344913806766272
1761370525884996000,6.17699609375,0,0.000687203137204051,-0.00015271181473508477
1761370525903609300,6.195609375,0,0.000687203137204051,-0.001374406274408102
1761370525922220800,6.214220703125,-0.0006108472589403391,0.00129805039614439,0.0005344913806766272
1761370525940834000,6.232833984375,-0.0006108472589403391,0.00007635590736754239,-0.00015271181473508477
1761370525959445500,6.251445556640625,0.0006108472589403391,0.000687203137204051,-0.00015271181473508477
1761370525978058500,6.27005859375,0.0006108472589403391,0.000687203137204051,-0.00015271181473508477
1761370525996670200,6.288670166015625,0.0006108472589403391,0.000687203137204051,-0.00015271181473508477
1761370526015283200,6.307283203125,0,0.00007635590736754239,-0.00015271181473508477
1761370526033894700,6.325894775390625,0,0.000687203137204051,-0.00015271181473508477
1761370526052508000,6.3445078125,0.0006108472589403391,0.000687203137204051,0.0005344913806766272
1761370526071119400,6.363119384765625,0,-0.0005344913806766272,-0.00015271181473508477
1761370526089732600,6.381732666015625,0.0006108472589403391,0.000687203137204051,-0.00015271181473508477
1761370526108344000,6.400343994140625,0.0006108472589403391,0.00007635590736754239,0.0005344913806766272
1761370526126957000,6.41895703125,0,0.00007635590736754239,-0.00015271181473508477
1761370526145568800,6.43756884765625,0.0006108472589403391,0.000687203137204051,-0.0007635590736754239
1761370526164181800,6.456181640625,0,0.00129805039614439,-0.00015271181473508477
1761370526182793500,6.47479345703125,0,0.000687203137204051,-0.0007635590736754239
1761370526201406500,6.493406494140625,0,0.0019088976550847292,-0.00015271181473508477
1761370526220018000,6.512017822265625,-0.0006108472589403391,-0.0005344913806766272,0.0005344913806766272
1761370526238631200,6.530631103515625,0.0006108472589403391,0.00007635590736754239,-0.0007635590736754239
1761370526257242600,6.54924267578125,-0.0006108472589403391,0.000687203137204051,-0.00015271181473508477
1761370526275856000,6.56785595703125,-0.0006108472589403391,0.00007635590736754239,0.0005344913806766272
1761370526294467300,6.58646728515625,0,0.000687203137204051,-0.0007635590736754239
1761370526313080300,6.605080322265625,-0.0006108472589403391,0.000687203137204051,0.0005344913806766272
1761370526331692000,6.623692138671875,0,0.000687203137204051,-0.0007635590736754239
1761370526350305000,6.642304931640625,0.0006108472589403391,0.000687203137204051,-0.00015271181473508477
1761370526368916500,6.66091650390625,0,0.000687203137204051,-0.0007635590736754239
1761370526387529700,6.67952978515625,0,0.00007635590736754239,-0.00015271181473508477
1761370526406141400,6.698141357421875,0,0.000687203137204051,-0.00015271181473508477
1761370526424754400,6.71675439453125,0,0.00007635590736754239,-0.0007635590736754239
1761370526443366000,6.735365966796875,0,0.00007635590736754239,0.0005344913806766272
1761370526461979000,6.753978759765625,0,0.00129805039614439,-0.00015271181473508477
1761370526480590600,6.772590576171875,0,0.00129805039614439,-0.0007635590736754239
1761370526499203600,6.79120361328125,-0.0006108472589403391,-0.0005344913806766272,-0.0007635590736754239
1761370526517815300,6.809815185546875,0,0.000687203137204051,-0.00015271181473508477
1761370526536428300,6.82842822265625,0,0.00007635590736754239,0.0005344913806766272
1761370526555039700,6.847039794921875,0,0.000687203137204051,-0.00015271181473508477
1761370526573653000,6.865653076171875,0,0.000687203137204051,-0.0007635590736754239
1761370526592264400,6.884264404296875,0,0.00007635590736754239,-0.00015271181473508477
1761370526610877400,6.90287744140625,0,0.00007635590736754239,-0.00015271181473508477
1761370526629489200,6.9214892578125,0,0.00007635590736754239,-0.0007635590736754239
1761370526648102100,6.94010205078125,-0.0006108472589403391,0.000687203137204051,-0.00015271181473508477
1761370526666713900,6.9587138671875,0,0.000687203137204051,0.0005344913806766272
1761370526685326800,6.977326904296875,0,0.0019088976550847292,-0.0007635590736754239
1761370526703938300,6.995938232421875,0.0006108472589403391,0.000687203137204051,-0.00015271181473508477
1761370526722551600,7.014551513671875,0,0.000687203137204051,-0.00015271181473508477
1761370526741163000,7.0331630859375,0,0.000687203137204051,-0.00015271181473508477
1761370526759776000,7.05177587890625,0,0.000687203137204051,-0.0007635590736754239
1761370526778387700,7.0703876953125,0,0.00129805039614439,-0.00015271181473508477
1761370526797000700,7.089000732421875,0,0.00007635590736754239,-0.00015271181473508477
1761370526815612400,7.1076123046875,0,0.00007635590736754239,-0.00015271181473508477
1761370526834225400,7.126225341796875,0,0.000687203137204051,0.0005344913806766272
1761370526852836900,7.1448369140625,-0.0006108472589403391,0.00129805039614439,-0.0007635590736754239
1761370526871450000,7.1634501953125,0,0.00129805039614439,-0.0007635590736754239
1761370526890061600,7.1820615234375,0,0.000687203137204051,-0.00015271181473508477
1761370526908674600,7.200674560546875,0,0.000687203137204051,0.0005344913806766272
1761370526927286300,7.219286376953125,0,0.00129805039614439,0.0005344913806766272
1761370526945899300,7.237899169921875,0,0.00007635590736754239,-0.00015271181473508477
1761370526964510700,7.2565107421875,0,0.00007635590736754239,-0.00015271181473508477
1761370526983124000,7.2751240234375,0,0.00129805039614439,-0.00015271181473508477
1761370527001735400,7.2937353515625,0,0.00007635590736754239,-0.00015271181473508477
1761370527020348700,7.3123486328125,0,0.00007635590736754239,-0.00015271181473508477
1761370527038960000,7.330960205078125,0,0.00007635590736754239,-0.0007635590736754239
1761370527057573000,7.349572998046875,-0.0006108472589403391,0.00007635590736754239,0.0005344913806766272
1761370527076184800,7.368184814453125,0,0.00129805039614439,-0.00015271181473508477
1761370527094797800,7.3867978515625,0,0.000687203137204051,0.0011453386396169662
1761370527113409300,7.4054091796875,-0.0006108472589403391,0.000687203137204051,-0.00015271181473508477
1761370527132022500,7.4240224609375,0,-0.0005344913806766272,-0.00015271181473508477
1761370527150634000,7.442634033203125,0,0.00129805039614439,0.0005344913806766272
1761370527169247000,7.4612470703125,0,0.00007635590736754239,-0.00015271181473508477
1761370527187858700,7.479858642578125,0.0006108472589403391,0.00007635590736754239,0.0005344913806766272
1761370527206471700,7.4984716796875,-0.0006108472589403391,-0.0005344913806766272,-0.00015271181473508477
1761370527225083400,7.51708349609375,0,-0.0005344913806766272,-0.00015271181473508477
1761370527243696400,7.5356962890625,0,0.00007635590736754239,-0.00015271181473508477
1761370527262308000,7.55430810546875,0.0006108472589403391,0.000687203137204051,-0.00015271181473508477
1761370527280921000,7.572921142578125,0,0.000687203137204051,0.0005344913806766272
1761370527299532500,7.591532470703125,-0.0006108472589403391,0.00007635590736754239,-0.00015271181473508477
1761370527318145500,7.6101455078125,-0.0006108472589403391,0.000687203137204051,-0.00015271181473508477
1761370527336757200,7.62875732421875,0.0006108472589403391,0.000687203137204051,0.0005344913806766272
1761370527355370200,7.647370361328125,0,0.000687203137204051,-0.00015271181473508477
1761370527373981700,7.665981689453125,0,0.000687203137204051,0.0005344913806766272
1761370527392595000,7.684594970703125,-0.0006108472589403391,0.00129805039614439,-0.0007635590736754239
1761370527411206400,7.703206298828125,-0.0006108472589403391,0.000687203137204051,-0.0007635590736754239
1761370527429819400,7.7218193359375,-0.0006108472589403391,0.00007635590736754239,0.0005344913806766272
1761370527448431000,7.74043115234375,0,0.000687203137204051,-0.00015271181473508477
1761370527467044000,7.759044189453125,-0.0006108472589403391,0.000687203137204051,-0.00015271181473508477
1761370527485655600,7.777655517578125,0,0.000687203137204051,-0.00015271181473508477
1761370527504268800,7.796268798828125,0,0.000687203137204051,-0.00015271181473508477
1761370527522880300,7.81488037109375,0,0.000687203137204051,-0.00015271181473508477
1761370527541493200,7.8334931640625,0,0.00007635590736754239,0.0005344913806766272
1761370527560105000,7.85210498046875,-0.0006108472589403391,0.000687203137204051,-0.00015271181473508477
1761370527578718000,7.870718017578125,0,0.000687203137204051,-0.00015271181473508477
1761370527597329400,7.889329345703125,0,0.000687203137204051,-0.0007635590736754239
1761370527615942700,7.907942626953125,0,0.00007635590736754239,-0.00015271181473508477
1761370527634554000,7.92655419921875,-0.0006108472589403391,0.000687203137204051,-0.00015271181473508477
1761370527653167000,7.9451669921875,-0.0006108472589403391,0.00007635590736754239,-0.0007635590736754239
1761370527671778800,7.96377880859375,0,0.000687203137204051,-0.00015271181473508477
1761370527690391800,7.982391845703125,0,0.00129805039614439,0.0005344913806766272
1761370527709003500,8.00100341796875,-0.0006108472589403391,0.00007635590736754239,-0.00015271181473508477
1761370527727616300,8.0196162109375,0,0.00007635590736754239,-0.00015271181473508477
1761370527746228000,8.03822802734375,-0.0012216945178806782,-0.0005344913806766272,0.0005344913806766272
1761370527764841000,8.056841064453126,0.0006108472589403391,0.000687203137204051,-0.00015271181473508477
1761370527783452400,8.075452392578125,-0.0006108472589403391,-0.0005344913806766272,-0.00015271181473508477
1761370527802065700,8.094065673828124,-0.0006108472589403391,0.000687203137204051,-0.0007635590736754239
1761370527820677000,8.112677001953125,-0.0006108472589403391,0.000687203137204051,-0.00015271181473508477
1761370527839290000,8.1312900390625,0,0.000687203137204051,-0.0007635590736754239
1761370527857901800,8.14990185546875,-0.0006108472589403391,0.00007635590736754239,-0.00015271181473508477
1761370527876514800,8.168514892578125,-0.0006108472589403391,0.000687203137204051,0.0005344913806766272
1761370527895126500,8.18712646484375,0,0.000687203137204051,-0.00015271181473508477
1761370527913739300,8.2057392578125,-0.0006108472589403391,0.000687203137204051,-0.0007635590736754239
1761370527932351000,8.22435107421875,0,0.00007635590736754239,-0.0007635590736754239
1761370527950964000,8.2429638671875,-0.0006108472589403391,0.000687203137204051,0.0005344913806766272
1761370527969575400,8.261575439453125,-0.0006108472589403391,0.00007635590736754239,-0.00015271181473508477
1761370527988188700,8.280188720703125,0.0006108472589403391,-0.0005344913806766272,-0.0007635590736754239
1761370528006800100,8.298800048828125,0.0006108472589403391,0.00007635590736754239,0.0005344913806766272
1761370528025413000,8.3174130859375,-0.0006108472589403391,0.00129805039614439,-0.00015271181473508477
1761370528044024800,8.33602490234375,-0.0006108472589403391,0.000687203137204051,-0.00015271181473508477
1761370528062637800,8.354637939453125,0.0006108472589403391,0.000687203137204051,-0.00015271181473508477
1761370528081249300,8.373249267578124,0,0.000687203137204051,0.0005344913806766272
1761370528099862300,8.3918623046875,0,0.000687203137204051,-0.0007635590736754239
1761370528118474000,8.410473876953125,-0.0012216945178806782,0.000687203137204051,-0.00015271181473508477
1761370528137087000,8.4290869140625,-0.0006108472589403391,0.000687203137204051,-0.0007635590736754239
1761370528155698400,8.447698486328125,0,0.000687203137204051,-0.0007635590736754239
1761370528174311400,8.4663115234375,0,0.00007635590736754239,-0.00015271181473508477
1761370528192923100,8.484923095703126,-0.0006108472589403391,0.00007635590736754239,-0.00015271181473508477
1761370528211536100,8.5035361328125,-0.0006108472589403391,0.000687203137204051,-0.00015271181473508477
1761370528230147600,8.522147705078124,0,0.00007635590736754239,0.0005344913806766272
1761370528248760800,8.5407607421875,-0.0006108472589403391,0.00129805039614439,-0.00015271181473508477
1761370528267372300,8.559372314453125,0,0.00007635590736754239,-0.00015271181473508477
1761370528285985300,8.5779853515625,-0.0006108472589403391,0.000687203137204051,-0.001374406274408102
1761370528304596700,8.5965966796875,0,0.000687203137204051,-0.00015271181473508477
1761370528323210000,8.6152099609375,0.0006108472589403391,0.00129805039614439,-0.00015271181473508477
1761370528341821400,8.633821533203125,0,0.00007635590736754239,-0.00015271181473508477
1761370528360434400,8.652434326171875,0,0.000687203137204051,-0.00015271181473508477
1761370528388353000,8.68035302734375,-0.0012216945178806782,0.00007635590736754239,-0.00015271181473508477
1761370528406964500,8.698964599609376,0,0.00007635590736754239,-0.00015271181473508477
1761370528425577500,8.717577392578125,0,0.000687203137204051,-0.00015271181473508477
1761370528444189000,8.73618896484375,0.0006108472589403391,0.000687203137204051,-0.00015271181473508477
1761370528462802200,8.75480224609375,0,-0.0005344913806766272,0.0005344913806766272
1761370528481413600,8.77341357421875,0,0.000687203137204051,0.0005344913806766272
1761370528500026600,8.792026611328126,0.0006108472589403391,0.00129805039614439,-0.00015271181473508477
1761370528518638000,8.81063818359375,0,0.00007635590736754239,-0.00015271181473508477
1761370528537251300,8.829251220703124,-0.0006108472589403391,-0.0005344913806766272,-0.00015271181473508477
1761370528555862800,8.84786279296875,0,0.00129805039614439,-0.0007635590736754239
1761370528574475800,8.866475830078125,-0.0006108472589403391,0.00007635590736754239,-0.00015271181473508477
1761370528593087200,8.885087158203126,0,0.00007635590736754239,-0.0007635590736754239
1761370528611700200,8.9037001953125,0,0.000687203137204051,-0.00015271181473508477
1761370528630312000,8.92231201171875,0,0.000687203137204051,-0.00015271181473508477
1761370528648925000,8.940925048828126,0.0006108472589403391,0.000687203137204051,-0.00015271181473508477
1761370528667536400,8.959536376953125,-0.0006108472589403391,0.000687203137204051,0.0005344913806766272
1761370528686149400,8.9781494140625,0,0.00007635590736754239,-0.00015271181473508477
1761370528704760800,8.9967607421875,0.0006108472589403391,0.00007635590736754239,0.0005344913806766272
1761370528723374000,9.0153740234375,-0.0006108472589403391,0.00129805039614439,-0.00015271181473508477
1761370528741985500,9.033985595703125,0,0.00129805039614439,-0.00015271181473508477
1761370528760598500,9.0525986328125,0,0.00007635590736754239,-0.00015271181473508477
1761370528779210000,9.0712099609375,0,0.000687203137204051,-0.0007635590736754239
1761370528797823200,9.0898232421875,0,0.000687203137204051,-0.00015271181473508477
1761370528816434700,9.1084345703125,-0.0012216945178806782,0.000687203137204051,-0.0007635590736754239
1761370528835047700,9.127047607421876,-0.0006108472589403391,0.000687203137204051,-0.00015271181473508477
1761370528853659100,9.1456591796875,0,0.000687203137204051,-0.00015271181473508477
1761370528872272100,9.164272216796874,-0.0012216945178806782,0.000687203137204051,0.0005344913806766272
1761370528890883800,9.1828837890625,-0.0006108472589403391,0.000687203137204051,-0.00015271181473508477
1761370528909496800,9.201496826171875,-0.0006108472589403391,-0.0005344913806766272,-0.0007635590736754239
1761370528928108300,9.2201083984375,-0.0006108472589403391,0.00129805039614439,-0.0007635590736754239
1761370528946721300,9.23872119140625,0,0.000687203137204051,-0.00015271181473508477
1761370528965332700,9.257332763671876,-0.0006108472589403391,0.00007635590736754239,-0.0007635590736754239
1761370528983945700,9.27594580078125,0,0.00007635590736754239,-0.0007635590736754239
1761370529002557200,9.29455712890625,-0.0006108472589403391,0.000687203137204051,-0.00015271181473508477
1761370529021170400,9.31317041015625,0,0.00007635590736754239,-0.00015271181473508477
1761370529039782000,9.331781982421875,0,0.000687203137204051,-0.0007635590736754239
1761370529058395000,9.350394775390624,-0.0006108472589403391,0.00007635590736754239,0.0005344913806766272
1761370529077006300,9.36900634765625,-0.0006108472589403391,0.00007635590736754239,-0.0007635590736754239
1761370529095619300,9.387619384765625,0,0.000687203137204051,0.0005344913806766272
1761370529114230800,9.406230712890626,0.0006108472589403391,0.00129805039614439,0.0011453386396169662
1761370529132844000,9.424843994140625,0,0.000687203137204051,-0.00015271181473508477
1761370529151455500,9.44345556640625,-0.0006108472589403391,0.000687203137204051,-0.00015271181473508477
1761370529170068500,9.462068359375,-0.0006108472589403391,0.00007635590736754239,-0.0007635590736754239
1761370529188680000,9.480679931640625,-0.0006108472589403391,0.000687203137204051,0.0005344913806766272
1761370529207293000,9.49929296875,0,0.000687203137204051,-0.0007635590736754239
1761370529225904400,9.517904296875,0,0.00129805039614439,-0.00015271181473508477
1761370529244517600,9.536517578125,-0.0006108472589403391,0.00007635590736754239,-0.00015271181473508477
1761370529263129000,9.555129150390625,0,0.00007635590736754239,-0.00015271181473508477
1761370529281742000,9.5737421875,0,0.000687203137204051,0.0005344913806766272
1761370529300353500,9.592353515625,-0.0006108472589403391,0.00007635590736754239,-0.0007635590736754239
1761370529318966500,9.610966552734375,0.0006108472589403391,0.000687203137204051,0.0005344913806766272
1761370529337578000,9.629577880859374,0,0.00129805039614439,-0.0007635590736754239
1761370529356191200,9.648191162109375,-0.0006108472589403391,0.00007635590736754239,0.0005344913806766272
1761370529374802700,9.666802734375,-0.0006108472589403391,0.000687203137204051,-0.00015271181473508477
1761370529393415700,9.685415771484376,-0.0006108472589403391,0.00007635590736754239,-0.00015271181473508477
1761370529412027100,9.704027099609375,0,0.000687203137204051,-0.00015271181473508477
1761370529430640000,9.72264013671875,-0.0006108472589403391,0.000687203137204051,-0.00015271181473508477
1761370529449251600,9.74125146484375,0,-0.0005344913806766272,-0.00015271181473508477
1761370529467864600,9.759864501953125,-0.0006108472589403391,0.000687203137204051,-0.00015271181473508477
1761370529486476300,9.778476318359376,-0.0012216945178806782,0.000687203137204051,-0.0007635590736754239
1761370529505089300,9.79708935546875,-0.0006108472589403391,0.000687203137204051,-0.00015271181473508477
1761370529523700700,9.81570068359375,0,0.00007635590736754239,-0.0007635590736754239
1761370529542313700,9.834313720703125,-0.0006108472589403391,0.00007635590736754239,-0.00015271181473508477
1761370529560925200,9.85292529296875,0,0.000687203137204051,-0.00015271181473508477
1761370529579538200,9.8715380859375,0.0006108472589403391,0.000687203137204051,-0.00015271181473508477
1761370529598149600,9.890149658203125,0.0006108472589403391,0.000687203137204051,-0.00015271181473508477
1761370529616762600,9.9087626953125,-0.0006108472589403391,0.000687203137204051,-0.00015271181473508477
1761370529635374000,9.9273740234375,-0.0006108472589403391,0.00129805039614439,-0.00015271181473508477
1761370529653987300,9.9459873046875,0,0.00007635590736754239,-0.00015271181473508477
1761370529672598800,9.964598876953126,-0.0006108472589403391,0.00007635590736754239,0.0005344913806766272
1761370529691211800,9.983211669921875,-0.0012216945178806782,0.00007635590736754239,-0.0007635590736754239
1761370529709823200,10.0018232421875,-0.0006108472589403391,0.000687203137204051,0.0005344913806766272
1761370529728436200,10.020436279296876,0,0.00007635590736754239,-0.0007635590736754239
1761370529747047700,10.039047607421875,0,0.00129805039614439,-0.00015271181473508477
1761370529765660700,10.05766064453125,0,0.00007635590736754239,-0.00015271181473508477
1761370529784272100,10.076272216796875,0,0.00007635590736754239,-0.00015271181473508477
1761370529802885400,10.094885498046875,-0.0006108472589403391,0.000687203137204051,-0.0007635590736754239
1761370529821496800,10.113496826171875,-0.0006108472589403391,0.00007635590736754239,-0.00015271181473508477
1761370529840109800,10.13210986328125,0,0.00007635590736754239,-0.0007635590736754239
1761370529858721300,10.15072119140625,-0.0006108472589403391,0.00007635590736754239,-0.0007635590736754239
1761370529877334300,10.169334228515625,-0.0006108472589403391,0.000687203137204051,-0.00015271181473508477
1761370529895945700,10.18794580078125,0,0.000687203137204051,-0.00015271181473508477
1761370529914558700,10.206558837890626,-0.0006108472589403391,0.000687203137204051,-0.00015271181473508477
1761370529933170200,10.225170166015625,-0.0012216945178806782,0.00129805039614439,-0.00015271181473508477
1761370529951783200,10.243783203125,0,0.000687203137204051,-0.00015271181473508477
1761370529970394600,10.26239453125,0,0.00007635590736754239,0.0005344913806766272
1761370529989007600,10.281007568359374,0,0.00007635590736754239,-0.00015271181473508477
1761370530007619000,10.299619140625,-0.0006108472589403391,0.000687203137204051,-0.00015271181473508477
1761370530026232300,10.318232421875,0,0.000687203137204051,-0.0007635590736754239
1761370530044843800,10.33684375,-0.0006108472589403391,0.000687203137204051,-0.00015271181473508477
1761370530063456800,10.355456787109375,-0.0006108472589403391,-0.0005344913806766272,-0.0007635590736754239
1761370530082068200,10.374068115234374,-0.0006108472589403391,0.00129805039614439,0.0005344913806766272
1761370530100681200,10.39268115234375,0.0006108472589403391,0.000687203137204051,-0.00015271181473508477
1761370530119292700,10.411292724609375,-0.0006108472589403391,0.000687203137204051,0.0011453386396169662
1761370530137905700,10.42990576171875,-0.0006108472589403391,0.000687203137204051,0.0005344913806766272
1761370530156517000,10.44851708984375,-0.0006108472589403391,0.00007635590736754239,-0.00015271181473508477
1761370530175130000,10.467130126953125,0.0006108472589403391,0.000687203137204051,-0.00015271181473508477
1761370530193741600,10.485741455078125,-0.0006108472589403391,0.000687203137204051,0.0005344913806766272
1761370530212354600,10.5043544921875,0,-0.0005344913806766272,-0.00015271181473508477
1761370530230966000,10.522966064453126,-0.0006108472589403391,0.000687203137204051,0.0005344913806766272
1761370530249579000,10.5415791015625,0,0.000687203137204051,-0.00015271181473508477
1761370530268190500,10.5601904296875,0,0.00007635590736754239,-0.0007635590736754239
1761370530286803700,10.5788037109375,0,0.00129805039614439,-0.00015271181473508477
1761370530305415000,10.597414794921875,0,0.000687203137204051,0.0005344913806766272
1761370530324028200,10.616028076171874,-0.0012216945178806782,0.000687203137204051,-0.00015271181473508477
1761370530342639600,10.6346396484375,-0.0006108472589403391,0.00007635590736754239,-0.00015271181473508477
1761370530361252600,10.653252685546875,0,-0.0005344913806766272,-0.00015271181473508477
1761370530379864000,10.671864013671875,-0.0006108472589403391,0.00007635590736754239,0.0005344913806766272
1761370530398477000,10.69047705078125,0,0.00129805039614439,-0.00015271181473508477
1761370530417088500,10.709088623046876,0,0.000687203137204051,-0.00015271181473508477
1761370530435701500,10.727701416015625,-0.0012216945178806782,0.00007635590736754239,-0.00015271181473508477
1761370530454313000,10.74631298828125,0,0.000687203137204051,0.0011453386396169662
1761370530472926000,10.764926025390626,-0.0012216945178806782,0.00007635590736754239,-0.0007635590736754239
1761370530491537400,10.783537353515625,0,0.00007635590736754239,-0.0007635590736754239
1761370530510150400,10.802150390625,-0.0006108472589403391,0.00007635590736754239,0.0005344913806766272
1761370530528761900,10.820761962890625,-0.0006108472589403391,0.00007635590736754239,-0.00015271181473508477
1761370530547374800,10.839374755859374,0,0.000687203137204051,-0.00015271181473508477
1761370530565986300,10.857986328125,-0.0006108472589403391,0.00007635590736754239,-0.0007635590736754239
1761370530584599300,10.876599365234375,-0.0006108472589403391,0.00007635590736754239,-0.00015271181473508477
1761370530603210800,10.895210693359376,-0.0012216945178806782,0.00007635590736754239,-0.00015271181473508477
1761370530621823700,10.91382373046875,-0.0006108472589403391,0.00007635590736754239,-0.00015271181473508477
1761370530640435200,10.932435302734374,-0.0006108472589403391,0.00007635590736754239,0.0005344913806766272
1761370530659048200,10.951048095703126,-0.0006108472589403391,0.0019088976550847292,0.0005344913806766272
1761370530677659600,10.96965966796875,0,0.017180079594254494,0.0035887276753783226
1761370530696272600,10.988272705078124,-0.0006108472589403391,0.007406522985547781,0.0011453386396169662
1761370530714884000,11.006884033203125,-0.0006108472589403391,-0.014583977870643139,-0.0038177953101694584
1761370530733497000,11.0254970703125,-0.0006108472589403391,-0.007253811229020357,-0.001374406274408102
1761370530752108500,11.044108642578125,0,0.004963133949786425,0.0005344913806766272
