time,seconds_elapsed,z,y,x
1761312000169609200,0.318609130859375,1.8173260688781738,0.3679213523864746,0.15423011779785156
1761312000179130400,0.32813037109375,1.5923590660095215,0.25621461868286133,0.18334197998046875
1761312000188650000,0.33764990234375,1.3761463165283203,0.13581180572509766,0.13048386573791504
1761312000198168300,0.347168212890625,1.2246479988098145,0.15235519409179688,-0.06682705879211426
1761312000207685400,0.356685302734375,1.1116676330566406,0.2577528953552246,-0.31618690490722656
1761312000217201400,0.366201416015625,1.0365934371948242,0.3015327453613281,-0.46035146713256836
1761312000226716200,0.375716064453125,1.01686429977417,0.2629280090332031,-0.41803431510925293
1761312000236230000,0.38522998046875,1.0076122283935547,0.22580671310424805,-0.26643872261047363
1761312000245742600,0.39474267578125,0.9796485900878906,0.21301555633544922,-0.11558794975280762
1761312000255254500,0.404254638671875,0.9945249557495117,0.22681474685668945,-0.04112577438354492
1761312000264765400,0.413765380859375,0.9784073829650879,0.28363561630249023,0.003559589385986328
1761312000274275600,0.423275634765625,0.8892312049865723,0.3224296569824219,0.14098095893859863
1761312000283784700,0.43278466796875,0.760714054107666,0.29870176315307617,0.3466615676879883
1761312000293293000,0.44229296875,0.6359257698059082,0.28420448303222656,0.48665356636047363
1761312000302801000,0.45180078125,0.5631251335144043,0.35024261474609375,0.518181324005127
1761312000312307700,0.4613076171875,0.4849510192871094,0.42098283767700195,0.5130858421325684
1761312000321814000,0.47081396484375,0.3829307556152344,0.40036487579345703,0.5316572189331055
1761312000331319800,0.48031982421875,0.3192110061645508,0.3152151107788086,0.6209399700164795
1761312000340824800,0.489824951171875,0.2878689765930176,0.19823455810546875,0.8152775764465332
1761312000350329300,0.499329345703125,0.2693295478820801,0.04436683654785156,1.042738676071167
1761312000359833300,0.508833251953125,0.29772329330444336,-0.13074302673339844,1.2273290157318115
1761312000369336600,0.518336669921875,0.40670156478881836,-0.2776675224304199,1.3595130443572998
1761312000378839600,0.527839599609375,0.6469588279724121,-0.37493038177490234,1.4569231271743774
1761312000388342000,0.537342041015625,0.9741840362548828,-0.5004611015319824,1.533615231513977
1761312000397844200,0.54684423828125,1.2851314544677734,-0.6980695724487305,1.5939695835113525
1761312000407345700,0.556345703125,1.5394983291625977,-0.9127945899963379,1.6604481935501099
1761312000416846800,0.565846923828125,1.6787009239196777,-1.0910673141479492,1.6934962272644043
1761312000426347800,0.57534765625,1.657773494720459,-1.226254940032959,1.6662765741348267
1761312000435848200,0.58484814453125,1.5201783180236816,-1.3342609405517578,1.628132939338684
1761312000445348400,0.594348388671875,1.2884984016418457,-1.3850393295288086,1.5778744220733643
1761312000464347400,0.613347412109375,0.627659797668457,-1.148773193359375,1.2917968034744263
1761312000483315000,0.63231494140625,-0.027767658233642578,-0.7847723960876465,0.8497716188430786
1761312000501928200,0.65092822265625,-0.7020645141601562,-0.856757640838623,0.5329686403274536
1761312000520542700,0.669542724609375,-1.1170458793640137,-0.8857307434082031,0.27074092626571655
1761312000539155700,0.68815576171875,-1.2725930213928223,-0.7972140312194824,-0.13973259925842285
1761312000557770500,0.7067705078125,-1.1213512420654297,-0.6824021339416504,-0.1491910219192505
1761312000576383500,0.725383544921875,-0.7578682899475098,-0.6767354011535645,0.008989572525024414
1761312000594998300,0.743998291015625,-0.4281892776489258,-0.5616745948791504,0.13046514987945557
1761312000613611300,0.762611328125,-0.20508432388305664,-0.5614347457885742,0.33417874574661255
1761312000632226000,0.78122607421875,-0.1394190788269043,-0.6464519500732422,0.3684917092323303
1761312000650839000,0.799839111328125,-0.3557133674621582,-0.7075481414794922,0.3455734848976135
1761312000669453600,0.81845361328125,-0.5802297592163086,-0.6059293746948242,0.34210777282714844
1761312000688066800,0.83706689453125,-0.8194022178649902,-0.5863051414489746,0.38831818103790283
1761312000706681300,0.855681396484375,-1.0887742042541504,-0.45964670181274414,0.4257027506828308
1761312000725294600,0.874294677734375,-1.2901759147644043,-0.2700967788696289,0.6005232334136963
1761312000743909000,0.8929091796875,-1.422807216644287,-0.09829902648925781,0.808418869972229
1761312000762522400,0.9115224609375,-1.4060215950012207,0.16604900360107422,0.7935155034065247
1761312000781137000,0.930136962890625,-1.2651233673095703,0.5420198440551758,0.6467722654342651
1761312000799750100,0.948750244140625,-0.9446868896484375,1.069261074066162,0.6902469396591187
1761312000818364700,0.96736474609375,-0.49703550338745117,1.5827760696411133,1.0491901636123657
1761312000836978000,0.98597802734375,0.08431339263916016,2.062251567840576,1.5415873527526855
1761312000855592400,1.004592529296875,0.7841181755065918,2.1142492294311523,1.4309134483337402
1761312000874205700,1.023205810546875,1.4062252044677734,2.0491161346435547,1.2620155811309814
1761312000892820200,1.0418203125,1.6799273490905762,1.6082305908203125,0.8450006246566772
1761312000911433500,1.06043359375,1.5941996574401855,1.235349178314209,0.31021302938461304
1761312000930048000,1.079048095703125,1.480240821838379,1.218099594116211,-0.5470253229141235
1761312000948661200,1.0976611328125,1.170827865600586,1.38667631149292,-1.3399274349212646
1761312000967275800,1.11627587890625,0.8497204780578613,1.11122465133667,-1.551037311553955
1761312000985889000,1.134888916015625,0.905064582824707,0.8670101165771484,-1.3101718425750732
1761312001004503600,1.153503662109375,1.2652206420898438,0.5316300392150879,-0.9939908981323242
1761312001023116800,1.17211669921875,1.755824089050293,0.049518585205078125,-0.9283347129821777
1761312001041731300,1.1907314453125,1.8768067359924316,-0.5731754302978516,-0.8246448040008545
1761312001060344600,1.209344482421875,1.741865634918213,-1.013425350189209,-0.6892449855804443
1761312001078959000,1.227958984375,1.2854304313659668,-1.3423805236816406,-0.5764031410217285
1761312001097572400,1.246572265625,0.6867685317993164,-1.6024885177612305,0.09799647331237793
1761312001116187000,1.265186767578125,0.09216833114624023,-1.6110563278198242,0.36079490184783936
1761312001134800100,1.283800048828125,-0.2559633255004883,-1.5139899253845215,0.328441858291626
1761312001153414700,1.30241455078125,-0.4331545829772949,-1.558354377746582,0.09996950626373291
1761312001172028000,1.32102783203125,-0.7229452133178711,-1.7839465141296387,-0.305444598197937
1761312001190642400,1.339642333984375,-1.074765682220459,-1.9178509712219238,-0.687598705291748
1761312001209255700,1.358255615234375,-1.2912116050720215,-1.7869210243225098,-0.945367693901062
1761312001227870200,1.3768701171875,-1.306394100189209,-1.6099090576171875,-0.9279789924621582
1761312001246483500,1.3954833984375,-1.114192008972168,-1.4994654655456543,-0.7614638805389404
1761312001265098000,1.414097900390625,-0.8008527755737305,-1.393481731414795,-0.6917836666107178
1761312001283711200,1.432711181640625,-0.5337643623352051,-1.288398265838623,-0.5887467861175537
1761312001302325800,1.45132568359375,-0.46439123153686523,-1.1299500465393066,-0.42139172554016113
1761312001320939000,1.46993896484375,-0.5194602012634277,-0.937415599822998,-0.1567065715789795
1761312001339553500,1.488553466796875,-0.7116260528564453,-0.7701859474182129,0.2474355697631836
1761312001358166800,1.507166748046875,-0.7654824256896973,-0.5516939163208008,0.5641429424285889
1761312001376781300,1.52578125,-0.6835274696350098,-0.2907118797302246,0.6532589197158813
1761312001395394600,1.54439453125,-0.7157063484191895,-0.1740736961364746,0.627740740776062
1761312001414009000,1.563009033203125,-0.7717146873474121,-0.1232309341430664,0.5150909423828125
1761312001432622300,1.581622314453125,-0.6387677192687988,-0.09628963470458984,0.1339879035949707
1761312001451237000,1.600237060546875,-0.4233393669128418,-0.17928552627563477,-0.5178623199462891
1761312001469850000,1.61885009765625,-0.1754322052001953,-0.3230857849121094,-1.1778244972229004
1761312001488465000,1.63746484375,0.09181594848632812,-0.4204859733581543,-1.7862131595611572
1761312001507078000,1.656077880859375,0.5080323219299316,-0.1905684471130371,-2.169207811355591
1761312001525692700,1.674692626953125,1.0433225631713867,0.15333127975463867,-1.8734161853790283
1761312001544305700,1.6933056640625,1.3777985572814941,0.3929471969604492,-1.1644086837768555
1761312001562920400,1.71192041015625,1.3924140930175781,0.7877078056335449,-0.9313621520996094
1761312001581533400,1.730533447265625,0.919830322265625,0.835472583770752,-1.1457946300506592
1761312001600148200,1.749148193359375,0.2349557876586914,1.0169949531555176,-0.8243539333343506
1761312001618761200,1.76776123046875,-0.07459068298339844,1.30039644241333,-0.7390427589416504
1761312001637376000,1.7863759765625,0.2756810188293457,1.2890968322753906,-0.4332702159881592
1761312001655989000,1.804989013671875,1.0966577529907227,0.7648301124572754,0.1326361894607544
1761312001674603800,1.823603759765625,1.9181480407714844,-0.06312274932861328,0.6264925003051758
1761312001693216800,1.842216796875,2.441951274871826,-0.8724608421325684,1.1047642230987549
1761312001711831600,1.86083154296875,2.3715243339538574,-1.3958673477172852,1.5809314250946045
1761312001730444500,1.879444580078125,1.952265739440918,-1.4450068473815918,1.7550865411758423
1761312001749059300,1.898059326171875,1.2897286415100098,-1.1523323059082031,1.6573774814605713
1761312001767672300,1.91667236328125,0.7249560356140137,-0.8945269584655762,1.5948395729064941
1761312001786287000,1.935287109375,0.1962594985961914,-0.8048896789550781,1.5685062408447266
1761312001804900400,1.953900390625,-0.26256418228149414,-0.6496548652648926,1.3327274322509766
1761312001823515000,1.972514892578125,-0.7183933258056641,-0.3552436828613281,0.9781564474105835
1761312001842128100,1.991128173828125,-0.94000244140625,-0.09856748580932617,0.7027568817138672
1761312001860742700,2.00974267578125,-0.8141303062438965,-0.02521228790283203,0.5660138130187988
1761312001879356000,2.02835595703125,-0.4257488250732422,-0.03909158706665039,0.5803564786911011
1761312001897970700,2.046970703125,-0.09055185317993164,-0.1251239776611328,0.855880856513977
1761312001916583700,2.065583740234375,0.07416963577270508,-0.1634521484375,1.1480553150177002
1761312001935198200,2.0841982421875,0.010076522827148438,-0.1251087188720703,1.3069448471069336
1761312001953811500,2.1028115234375,-0.2328038215637207,0.0784907341003418,1.3127495050430298
1761312001972426200,2.12142626953125,-0.5956244468688965,0.3093748092651367,1.149979591369629
1761312001991039200,2.140039306640625,-0.998110294342041,0.5158452987670898,1.0073661804199219
1761312002009654000,2.158654052734375,-1.193997859954834,0.7624521255493164,0.8605374097824097
1761312002028267000,2.17726708984375,-1.1607170104980469,0.8470287322998047,0.6408077478408813
1761312002046881800,2.1958818359375,-0.9404144287109375,0.6700911521911621,0.42088449001312256
1761312002065494800,2.214494873046875,-0.5590043067932129,0.5034980773925781,0.2526695728302002
1761312002084109600,2.233109619140625,-0.22941827774047852,0.34288978576660156,0.25707578659057617
1761312002102722600,2.25172265625,-0.032599449157714844,0.2978019714355469,0.2596536874771118
1761312002121337300,2.27033740234375,0.0763249397277832,0.2106008529663086,0.3691680431365967
1761312002139950300,2.288950439453125,0.01942729949951172,0.02871561050415039,0.5087499618530273
1761312002158565000,2.307565185546875,-0.13634634017944336,0.0597386360168457,0.434398889541626
1761312002177178400,2.326178466796875,-0.23391437530517578,0.23541545867919922,0.10107827186584473
1761312002195793000,2.34479296875,-0.2601456642150879,0.3925595283508301,-0.25219082832336426
1761312002214406100,2.36340625,-0.14773941040039062,0.5563087463378906,-0.7282676696777344
1761312002233020700,2.382020751953125,-0.1596064567565918,0.7619338035583496,-1.2309622764587402
1761312002251634000,2.400634033203125,-0.20807886123657227,0.926826000213623,-1.1723277568817139
1761312002270248700,2.419248779296875,-0.14760494232177734,0.8842763900756836,-0.508730411529541
1761312002288861700,2.43786181640625,0.24074840545654297,0.541165828704834,-0.02294325828552246
1761312002307476500,2.4564765625,0.8452701568603516,0.0845022201538086,-0.06306767463684082
1761312002326089500,2.47508935546875,1.3191843032836914,-0.43785572052001953,-0.34714412689208984
1761312002344704300,2.493704345703125,1.3735804557800293,-0.8080587387084961,-0.8504033088684082
1761312002363317200,2.512317138671875,1.183934211730957,-0.8372259140014648,-1.2802975177764893
1761312002381932000,2.53093212890625,0.8608179092407227,-0.8115973472595215,-1.2774016857147217
1761312002400545000,2.549544921875,0.33519601821899414,-0.864799976348877,-1.0176777839660645
1761312002419159800,2.568159912109375,-0.18160772323608398,-0.936772346496582,-0.7685365676879883
1761312002437772800,2.586772705078125,-0.7019925117492676,-1.1322293281555176,-0.4321558475494385
1761312002456387600,2.6053876953125,-1.1076602935791016,-1.2961864471435547,-0.5433218479156494
1761312002475000800,2.624000732421875,-1.4251670837402344,-1.0265717506408691,-0.528113842010498
1761312002493615400,2.642615478515625,-1.7524285316467285,-0.864037036895752,-0.32901930809020996
1761312002512228600,2.661228515625,-1.8629441261291504,-0.7339015007019043,-0.1747126579284668
1761312002530843400,2.679843505859375,-1.592207431793213,-0.6228060722351074,-0.02235698699951172
1761312002549456400,2.698456298828125,-1.2992982864379883,-0.8071799278259277,-0.3312976360321045
1761312002568071000,2.71707080078125,-0.9639477729797363,-0.724372386932373,-0.9126358032226562
1761312002586684200,2.73568408203125,-0.6522526741027832,-0.3260221481323242,-1.4962027072906494
1761312002605299000,2.754298828125,-0.18373584747314453,0.25889015197753906,-1.831186294555664
1761312002623912000,2.772911865234375,0.2955150604248047,0.6929340362548828,-1.433197021484375
1761312002642526700,2.791526611328125,0.6675329208374023,0.9727396965026855,-0.4015955924987793
1761312002661139700,2.8101396484375,0.7677602767944336,1.12593412399292,0.6077020168304443
1761312002679754500,2.82875439453125,0.6797246932983398,1.2876367568969727,0.8439304828643799
1761312002698367500,2.847367431640625,0.23477888107299805,1.2504816055297852,0.524177074432373
1761312002716982300,2.865982177734375,-0.38347911834716797,0.9545845985412598,0.0964968204498291
1761312002735595500,2.884595458984375,-0.7628073692321777,0.560758113861084,-0.1970984935760498
1761312002754210000,2.9032099609375,-0.7426114082336426,0.395388126373291,-0.7302367687225342
1761312002772823300,2.9218232421875,-0.4781951904296875,0.32377004623413086,-1.1542325019836426
1761312002791437800,2.940437744140625,-0.24341535568237305,0.22014427185058594,-1.1758086681365967
1761312002810051000,2.959051025390625,0.02159881591796875,0.15757083892822266,-0.8723998069763184
1761312002828665600,2.97766552734375,0.26957035064697266,0.11026620864868164,-0.40264272689819336
1761312002847278800,2.99627880859375,0.4059305191040039,0.14572620391845703,-0.0380246639251709
1761312002865893600,3.0148935546875,0.4392852783203125,0.20537281036376953,0.2416367530822754
1761312002884506600,3.033506591796875,0.3767118453979492,0.22009944915771484,0.5233423709869385
1761312002903121400,3.052121337890625,0.19504785537719727,0.2673201560974121,0.7608358860015869
1761312002921734400,3.070734375,-0.23193693161010742,0.35025978088378906,0.5696296691894531
1761312002940349200,3.08934912109375,-0.6656546592712402,0.7323417663574219,0.22246623039245605
1761312002958962200,3.107962158203125,-0.7766079902648926,1.1490216255187988,-0.10336160659790039
1761312002977577000,3.126576904296875,-0.25186872482299805,1.2437763214111328,0.20127975940704346
1761312002996190000,3.14518994140625,1.2256765365600586,0.938077449798584,1.3464176654815674
1761312003014804700,3.1638046875,2.970752716064453,0.4761333465576172,2.4751102924346924
1761312003033418000,3.18241796875,3.4831204414367676,0.09969329833984375,2.689754009246826
1761312003052032500,3.201032470703125,2.9692301750183105,-0.24746370315551758,2.2615034580230713
1761312003070645800,3.219645751953125,1.9660897254943848,-0.23314857482910156,1.2718980312347412
1761312003089260300,3.23826025390625,0.9392085075378418,-0.26607370376586914,0.8043421506881714
1761312003107873500,3.25687353515625,0.16815757751464844,-0.26335954666137695,0.44246089458465576
1761312003126488000,3.275488037109375,-0.22445297241210938,-0.26036882400512695,0.3412226438522339
1761312003145101300,3.294101318359375,-0.35936927795410156,-0.26145219802856445,0.6009960174560547
1761312003163716000,3.312716064453125,-0.36777305603027344,-0.06764888763427734,0.835748553276062
1761312003182329000,3.3313291015625,-0.4332413673400879,-0.028856277465820312,1.0536924600601196
1761312003200943900,3.34994384765625,-0.6392035484313965,-0.14961767196655273,1.0110200643539429
1761312003219556900,3.368556884765625,-0.888312816619873,-0.3247356414794922,0.7699731588363647
1761312003238171600,3.387171630859375,-1.1963796615600586,-0.5347704887390137,0.5448770523071289
1761312003256784600,3.40578466796875,-1.340555191040039,-0.653813362121582,0.3774470090866089
1761312003275399400,3.4243994140625,-1.212913990020752,-0.7105288505554199,0.20356392860412598
1761312003294012400,3.443012451171875,-1.1635541915893555,-0.7024006843566895,0.08330845832824707
1761312003312627200,3.461627197265625,-1.4325804710388184,-0.5920782089233398,0.22252416610717773
1761312003331240200,3.480240234375,-1.9199676513671875,-0.35126352310180664,0.22357726097106934
1761312003349855000,3.49885498046875,-2.18934965133667,0.002693653106689453,0.05327630043029785
1761312003368468200,3.51746826171875,-2.2110233306884766,0.3079252243041992,-0.22986507415771484
1761312003387082800,3.536082763671875,-1.9802851676940918,0.4728403091430664,-0.46970415115356445
1761312003405696000,3.554696044921875,-1.6324267387390137,0.5562024116516113,-0.49044036865234375
1761312003424310500,3.573310546875,-1.3765621185302734,0.6047401428222656,-0.43372416496276855
1761312003442923800,3.591923828125,-1.264059066772461,0.7699227333068848,-0.40334463119506836
1761312003461538300,3.610538330078125,-1.3923616409301758,0.9977469444274902,-0.25145554542541504
1761312003480151600,3.629151611328125,-1.5337672233581543,1.3024277687072754,-1.0092289447784424
1761312003498766300,3.647766357421875,-1.2128992080688477,1.4632372856140137,-1.2674081325531006
1761312003517379300,3.66637939453125,-0.011201858520507812,1.4150428771972656,-0.6046590805053711
1761312003535994000,3.684994140625,1.1726984977722168,1.5936689376831055,-0.24792075157165527
1761312003554607000,3.703607177734375,1.9616179466247559,1.6071367263793945,0.08209228515625
1761312003573222000,3.722221923828125,2.0749425888061523,1.9580879211425781,-0.16785788536071777
1761312003591835000,3.7408349609375,1.4933280944824219,2.2146072387695312,0.07193827629089355
1761312003610449700,3.75944970703125,1.1647310256958008,2.332395553588867,0.46578073501586914
1761312003629062700,3.778062744140625,1.8035073280334473,1.8472352027893066,1.0475385189056396
1761312003647677400,3.796677490234375,2.823671817779541,0.642486572265625,1.4895261526107788
1761312003666290400,3.81529052734375,3.456188201904297,-0.7967038154602051,1.497351884841919
1761312003684905200,3.8339052734375,3.252150058746338,-1.9797077178955078,0.8638675212860107
1761312003703518200,3.852518310546875,2.698296070098877,-2.5311546325683594,-0.2205970287322998
1761312003722133000,3.871133056640625,2.057616710662842,-2.8749940395355225,-0.8667593002319336
1761312003740746000,3.88974609375,1.4079408645629883,-3.124518871307373,-0.7964668273925781
1761312003759360800,3.90836083984375,0.7444195747375488,-2.959040641784668,-0.5985386371612549
1761312003777974000,3.92697412109375,-0.057973384857177734,-2.9852097034454346,-0.4473443031311035
1761312003796588500,3.945588623046875,-0.6446194648742676,-2.977750778198242,-0.40203261375427246
1761312003815201500,3.964201416015625,-1.0691986083984375,-3.0823452472686768,-0.3688628673553467
1761312003833816300,3.98281640625,-1.7266411781311035,-3.2877793312072754,-0.5366694927215576
1761312003852429600,4.0014296875,-2.5904221534729004,-3.3438990116119385,-1.4772109985351562
1761312003871044000,4.020044189453125,-3.1009819507598877,-3.0865867137908936,-2.7233524322509766
1761312003889657300,4.0386572265625,-3.2003426551818848,-3.015190601348877,-3.1663339138031006
1761312003908271900,4.05727197265625,-2.1469149589538574,-2.164416790008545,-3.365743637084961
1761312003926885000,4.075885009765625,-0.36570310592651367,-1.6021180152893066,-2.2692997455596924
1761312003945499600,4.094499755859375,0.3638014793395996,-1.3472800254821777,-0.583514928817749
1761312003964113000,4.11311279296875,0.05925416946411133,-0.6537737846374512,-0.23123550415039062
1761312003982727400,4.1317275390625,-0.13382482528686523,-0.6948719024658203,-0.02276444435119629
1761312004001340700,4.150340576171875,0.1801891326904297,-0.8068537712097168,-0.46767139434814453
1761312004019955200,4.168955078125,0.723381519317627,-0.861722469329834,-1.199526309967041
1761312004038568400,4.187568359375,1.2041540145874023,-0.3997378349304199,-0.878490686416626
1761312004057183200,4.206183349609375,1.2162513732910156,-0.147308349609375,0.2943406105041504
1761312004075796200,4.224796142578125,1.4196319580078125,0.2228860855102539,1.2695233821868896
1761312004094410800,4.24341064453125,1.4951553344726562,0.6152172088623047,1.6221646070480347
1761312004113024000,4.26202392578125,1.096639633178711,0.8890914916992188,1.6265980005264282
1761312004131638800,4.280638671875,0.4032144546508789,0.9996137619018555,1.3404573202133179
1761312004150251800,4.299251708984375,-0.49987316131591797,1.2011022567749023,0.8544795513153076
1761312004168866600,4.317866455078125,-0.7113380432128906,1.5832524299621582,0.4691767692565918
1761312004187479600,4.3364794921875,-0.04083728790283203,1.6974000930786133,0.5302859544754028
1761312004206094300,4.35509423828125,0.4506034851074219,1.408355712890625,0.9721032381057739
1761312004224707300,4.373707275390625,0.6728405952453613,1.1674880981445312,0.929131031036377
1761312004243321900,4.39232177734375,1.0870399475097656,1.2474799156188965,0.36491072177886963
1761312004261935000,4.41093505859375,1.9765286445617676,1.2909345626831055,0.5253551006317139
1761312004280550000,4.4295498046875,2.5274252891540527,0.9214119911193848,1.4027451276779175
1761312004299163000,4.448162841796875,2.105447769165039,0.44615650177001953,1.7808408737182617
1761312004317777700,4.466777587890625,0.7635483741760254,0.3495216369628906,0.8724433183670044
1761312004336390700,4.485390625,-0.6333122253417969,0.27593183517456055,0.33305495977401733
1761312004355005200,4.504005126953125,-1.2360167503356934,0.7521147727966309,0.21947652101516724
1761312004373618400,4.522618408203125,-0.8866872787475586,0.9843873977661133,0.779827356338501
1761312004392233000,4.54123291015625,-0.2529125213623047,0.735414981842041,1.2845287322998047
1761312004410846200,4.55984619140625,0.03998613357543945,0.38643407821655273,0.8361822962760925
1761312004429460700,4.578460693359375,0.24588394165039062,0.009984016418457031,0.1182745099067688
1761312004448074000,4.597073974609375,0.5138158798217773,-0.4134407043457031,-0.19004976749420166
1761312004466688500,4.6156884765625,1.25046968460083,-0.6230068206787109,-0.10995423793792725
1761312004485301800,4.6343017578125,2.1210508346557617,-0.7160677909851074,0.4640490412712097
1761312004503916300,4.652916259765625,2.406296730041504,-0.7937760353088379,1.0423990488052368
1761312004522529500,4.671529541015625,2.006627082824707,-0.7927670478820801,1.0943349599838257
1761312004541144000,4.69014404296875,0.8287467956542969,-0.8808598518371582,0.937329888343811
1761312004559757300,4.70875732421875,-0.6085381507873535,-1.0058913230895996,0.5363746285438538
1761312004578371800,4.727371826171875,-1.7189068794250488,-0.8780364990234375,0.03375077247619629
1761312004596985000,4.745985107421875,-2.1711020469665527,-0.6470398902893066,-0.21977972984313965
1761312004615599600,4.764599609375,-2.1136655807495117,-0.5481386184692383,-0.1468980312347412
1761312004634212900,4.783212890625,-1.7913603782653809,-0.43369340896606445,-0.028496623039245605
1761312004652827400,4.801827392578125,-1.3762221336364746,-0.319674015045166,0.09448695182800293
1761312004671440600,4.820440673828125,-1.1347355842590332,-0.2846221923828125,0.08513975143432617
1761312004690055200,4.83905517578125,-1.0785765647888184,-0.19216680526733398,-0.06422686576843262
1761312004708668200,4.857668212890625,-1.135976791381836,-0.02193927764892578,-0.2181081771850586
1761312004727283000,4.876282958984375,-1.1913681030273438,0.2221994400024414,-0.28622496128082275
1761312004745896000,4.89489599609375,-0.9691042900085449,0.5271100997924805,-0.31723713874816895
1761312004764510700,4.9135107421875,-0.5587563514709473,0.6446185111999512,-0.27622461318969727
1761312004783123700,4.932123779296875,-0.07069540023803711,0.6679048538208008,-0.057573795318603516
1761312004801738500,4.950738525390625,0.23761940002441406,0.6793422698974609,0.08695793151855469
1761312004820351500,4.9693515625,0.31230783462524414,0.7165193557739258,0.18448472023010254
1761312004838966300,4.98796630859375,0.19158697128295898,0.6996846199035645,0.3096294403076172
1761312004857579300,5.006579345703125,0.07855463027954102,0.6654620170593262,0.22826457023620605
1761312004876194000,5.025194091796875,-0.039641380310058594,0.7874126434326172,-0.3075215816497803
1761312004894807000,5.04380712890625,-0.504796028137207,0.8579630851745605,-0.756493330001831
1761312004913421800,5.062421875,-0.6153221130371094,1.0845847129821777,-0.9569382667541504
1761312004932034800,5.081034912109375,0.023919105529785156,1.026625633239746,-0.7640299797058105
1761312004950649300,5.0996494140625,0.9091792106628418,0.5441203117370605,-0.793665885925293
1761312004969262600,5.1182626953125,1.4167380332946777,-0.1600017547607422,-1.4169301986694336
1761312004987877000,5.136877197265625,1.583451271057129,-0.5780301094055176,-2.2321383953094482
1761312005006490400,5.155490478515625,1.6864280700683594,-0.9342756271362305,-2.3834471702575684
1761312005025105000,5.17410498046875,1.982100009918213,-1.1342592239379883,-1.584843397140503
1761312005043718000,5.1927177734375,2.1230926513671875,-1.198030948638916,-0.39276123046875
1761312005062332700,5.211332763671875,1.6399779319763184,-1.2186408042907715,0.4573097229003906
1761312005080945700,5.229945556640625,0.8644776344299316,-1.0984668731689453,0.7550866603851318
1761312005099560400,5.248560546875,-0.02731180191040039,-0.9764399528503418,0.5795872211456299
1761312005118173400,5.26717333984375,-0.7212109565734863,-0.9762377738952637,0.30592942237854004
1761312005136788200,5.285788330078125,-1.0491089820861816,-1.09895658493042,0.1421794891357422
1761312005155401200,5.304401123046875,-0.9563727378845215,-1.2936906814575195,0.09055066108703613
1761312005174016000,5.32301611328125,-0.5897002220153809,-1.3217968940734863,-0.0037107467651367188
1761312005192629000,5.34162890625,-0.4452996253967285,-1.2545561790466309,-0.2383708953857422
1761312005211243800,5.360243896484375,-0.7306880950927734,-1.2393765449523926,-0.5081892013549805
1761312005229856800,5.378856689453125,-1.0477137565612793,-1.0438966751098633,-0.8369576930999756
1761312005248471300,5.39747119140625,-1.1579580307006836,-0.7687602043151855,-0.9389419555664062
1761312005267084500,5.41608447265625,-1.109926700592041,-0.5540943145751953,-0.5994045734405518
1761312005285699000,5.434698974609375,-0.9828548431396484,-0.28319787979125977,-0.13329052925109863
1761312005304312300,5.453312255859375,-0.7595553398132324,-0.11180686950683594,0.35947537422180176
1761312005322926800,5.4719267578125,-0.592529296875,-0.03010845184326172,0.5692977905273438
1761312005341540000,5.4905400390625,-0.6010022163391113,0.06784534454345703,0.22127866744995117
1761312005360154600,5.509154541015625,-0.634676456451416,0.19202232360839844,-0.3198049068450928
1761312005378767600,5.527767578125,-0.5478262901306152,0.32713747024536133,-0.7292406558990479
1761312005397382400,5.54638232421875,-0.44736671447753906,0.5366425514221191,-0.8454458713531494
1761312005415995400,5.564995361328125,-0.26056671142578125,0.750605583190918,-0.6723217964172363
1761312005434610200,5.583610107421875,-0.007886886596679688,0.8023529052734375,-0.3590366840362549
1761312005453223200,5.60222314453125,0.16805601119995117,0.7084331512451172,-0.21947002410888672
1761312005471838000,5.620837890625,0.11754179000854492,0.477874755859375,-0.25072503089904785
1761312005490451000,5.639450927734375,-0.09255313873291016,0.22776126861572266,-0.3512146472930908
1761312005509065500,5.6580654296875,-0.34007978439331055,0.13652515411376953,-0.5958008766174316
1761312005527678700,5.6766787109375,-0.5434527397155762,0.2279067039489746,-0.9228696823120117
1761312005546293200,5.695293212890625,-0.532496452331543,0.35713911056518555,-1.0690333843231201
1761312005564906200,5.71390625,-0.3255791664123535,0.5132694244384766,-0.937777042388916
1761312005583521000,5.73252099609375,0.07579708099365234,0.7031865119934082,-0.5269526243209839
1761312005602134000,5.751134033203125,0.3627290725708008,0.872746467590332,-0.061997175216674805
1761312005620748800,5.769748779296875,0.44979000091552734,0.8922715187072754,0.4577869176864624
1761312005639361800,5.78836181640625,0.5044040679931641,0.7093935012817383,1.089813232421875
1761312005657976600,5.8069765625,0.8409557342529297,0.40139102935791016,1.5925581455230713
1761312005676589600,5.825589599609375,1.489635944366455,0.12729454040527344,1.471311330795288
1761312005695204000,5.8442041015625,1.9806647300720215,-0.39030885696411133,1.1400669813156128
1761312005713817300,5.8628173828125,2.2545361518859863,-0.701937198638916,0.6500970125198364
1761312005732432000,5.881431884765625,2.1840648651123047,-0.9302520751953125,0.2938777208328247
1761312005751045000,5.900045166015625,1.7148022651672363,-0.9803738594055176,0.03773331642150879
1761312005769659600,5.91865966796875,1.006138801574707,-0.9169979095458984,-0.11134040355682373
1761312005788272600,5.937272705078125,0.16342687606811523,-0.9141983985900879,-0.1605205535888672
1761312005806887400,5.955887451171875,-0.6344733238220215,-0.7679786682128906,-0.21395361423492432
1761312005825500400,5.97450048828125,-1.110525131225586,-0.5777425765991211,-0.2292722463607788
1761312005844115200,5.993115234375,-1.2653751373291016,-0.4780559539794922,-0.3223302364349365
1761312005862728200,6.011728271484375,-1.242490291595459,-0.4100627899169922,-0.5612344741821289
1761312005881342700,6.0303427734375,-1.0740208625793457,-0.316314697265625,-0.6197730302810669
1761312005899956000,6.0489560546875,-0.7207279205322266,-0.23606061935424805,-0.4677184820175171
1761312005918570500,6.067570556640625,-0.27745771408081055,-0.14847612380981445,-0.33085787296295166
1761312005937183500,6.08618359375,-0.011973857879638672,-0.1567378044128418,-0.05970108509063721
1761312005955798300,6.10479833984375,-0.13314151763916016,-0.10918998718261719,0.13333380222320557
1761312005974411300,6.123411376953125,-0.6459498405456543,-0.07777023315429688,0.20914113521575928
1761312005993026000,6.142026123046875,-1.1382603645324707,-0.0302276611328125,0.16734707355499268
1761312006011639000,6.16063916015625,-1.4201793670654297,-0.01067209243774414,0.11181354522705078
1761312006030253600,6.179253662109375,-1.3936772346496582,0.03353595733642578,0.13524508476257324
1761312006048866800,6.19786669921875,-1.1640825271606445,0.09733152389526367,0.09990417957305908
1761312006067481300,6.2164814453125,-0.6727299690246582,0.26682329177856445,0.11311900615692139
1761312006086094300,6.23509423828125,0.03812408447265625,0.47200584411621094,0.24278593063354492
1761312006104709000,6.253709228515625,0.636756420135498,0.6318755149841309,0.3973653316497803
1761312006123322000,6.272322021484375,0.7787375450134277,0.5419378280639648,0.45906996726989746
1761312006141936600,6.2909365234375,0.5274357795715332,0.5168490409851074,0.26080024242401123
1761312006160550000,6.3095498046875,0.1169881820678711,0.5948886871337891,-0.07131361961364746
1761312006207084500,6.35608447265625,-0.23745203018188477,1.1013097763061523,-1.408632755279541
1761312006225699000,6.374698974609375,-0.16503429412841797,1.2717366218566895,-1.8473774194717407
1761312006244312000,6.39331201171875,0.01592254638671875,1.329911231994629,-1.4385454654693604
1761312006262926800,6.4119267578125,0.270505428314209,1.274275779724121,-0.4452035427093506
1761312006281539800,6.430539794921875,0.633059024810791,0.936192512512207,0.5008484125137329
1761312006300154400,6.449154296875,1.225876808166504,0.3479900360107422,0.7539907693862915
1761312006318767600,6.467767578125,1.749692440032959,-0.43466663360595703,0.4556388854980469
1761312006337382100,6.486382080078125,2.0403051376342773,-1.0578689575195312,-0.16862428188323975
1761312006355995100,6.5049951171875,1.974973201751709,-1.320918083190918,-0.8269987106323242
1761312006374610000,6.52360986328125,1.5401577949523926,-1.351639747619629,-0.9593162536621094
1761312006393223000,6.542222900390625,1.0213723182678223,-1.1082496643066406,-0.552903413772583
1761312006411837400,6.56083740234375,0.4309115409851074,-1.047863483428955,-0.04317629337310791
1761312006430450700,6.57945068359375,-0.0893096923828125,-1.00187349319458,0.2259509563446045
1761312006449065200,6.598065185546875,-0.5095162391662598,-0.9019861221313477,0.2148723602294922
1761312006467678200,6.61667822265625,-0.7243380546569824,-0.9177646636962891,0.1580115556716919
1761312006486293000,6.63529296875,-0.7529845237731934,-1.1719913482666016,0.2131364345550537
1761312006504906000,6.653906005859375,-0.5340757369995117,-1.366201400756836,0.12130117416381836
1761312006523520500,6.6725205078125,-0.1949915885925293,-1.3475909233093262,-0.18694448471069336
1761312006542133800,6.6911337890625,0.1728825569152832,-1.2564177513122559,-0.3694624900817871
1761312006560748300,6.709748291015625,0.2770085334777832,-1.105541706085205,-0.3168671131134033
1761312006579361300,6.728361328125,-0.014918327331542969,-0.8871059417724609,-0.19291424751281738
1761312006597976000,6.74697607421875,-0.38414430618286133,-0.6946811676025391,-0.07679176330566406
1761312006616589000,6.765589111328125,-0.8168764114379883,-0.6224031448364258,0.09877419471740723
1761312006635203600,6.78420361328125,-1.1866750717163086,-0.4791865348815918,0.13716793060302734
1761312006653816800,6.80281689453125,-1.496304988861084,-0.3049135208129883,0.07752871513366699
1761312006672431400,6.821431396484375,-1.6567630767822266,-0.15002012252807617,0.07344412803649902
1761312006691044400,6.84004443359375,-1.5612268447875977,-0.0374150276184082,0.11986958980560303
1761312006709659100,6.8586591796875,-1.3083782196044922,-0.03687620162963867,0.21661579608917236
1761312006728272100,6.877272216796875,-1.0209946632385254,0.045534610748291016,0.4799281358718872
1761312006746886700,6.89588671875,-0.8020143508911133,0.20767498016357422,0.6349915266036987
1761312006765500000,6.9145,-0.5300440788269043,0.373166561126709,0.5270313024520874
1761312006784114400,6.933114501953125,-0.24700546264648438,0.5204896926879883,0.22653961181640625
1761312006802727400,6.9517275390625,0.02392864227294922,0.6407289505004883,0.1454676389694214
1761312006821342000,6.970342041015625,0.3011641502380371,0.747795581817627,0.4647015333175659
1761312006839955200,6.988955078125,0.6733040809631348,0.931279182434082,0.7228497266769409
1761312006858569700,7.00756982421875,1.1482539176940918,1.1894831657409668,0.6428428888320923
1761312006877183000,7.026182861328125,1.4616003036499023,1.4510297775268555,0.22918474674224854
1761312006895797500,7.044797607421875,1.1995515823364258,1.6496038436889648,-0.22503089904785156
1761312006914410500,7.063410400390625,0.5388565063476562,1.7526764869689941,-0.4871830940246582
1761312006933025000,7.08202490234375,0.21615314483642578,1.5161938667297363,-0.2323164939880371
1761312006951638300,7.10063818359375,0.9068255424499512,0.7634449005126953,0.4266066551208496
1761312006970252800,7.119252685546875,1.948415756225586,-0.09418010711669922,0.9457574486732483
1761312006988865800,7.13786572265625,2.5220632553100586,-0.8196992874145508,1.1122207641601562
1761312007007480600,7.15648046875,2.6266865730285645,-1.1378159523010254,0.8549646139144897
1761312007026093600,7.175093505859375,2.227047920227051,-1.1369953155517578,0.5839248895645142
1761312007044708000,7.1937080078125,1.7134547233581543,-1.0177617073059082,0.5211255550384521
1761312007063321300,7.2123212890625,1.2698636054992676,-0.8989038467407227,0.5628044009208679
1761312007081936000,7.230935791015625,0.6778335571289062,-0.7815794944763184,0.6240568161010742
1761312007100548900,7.249548828125,-0.018393516540527344,-0.5988450050354004,0.7103556990623474
1761312007119163400,7.268163330078125,-0.6335930824279785,-0.38776254653930664,0.8487862944602966
1761312007137776600,7.286776611328125,-1.0651121139526367,-0.3325052261352539,0.8723331689834595
1761312007156391200,7.30539111328125,-1.2688307762145996,-0.3452796936035156,0.5249860286712646
1761312007175004200,7.324004150390625,-1.345193862915039,-0.36521434783935547,0.041501641273498535
1761312007193619000,7.342618896484375,-1.320582389831543,-0.3939995765686035,-0.25504636764526367
1761312007212232000,7.36123193359375,-1.114102840423584,-0.4023323059082031,-0.4754183292388916
1761312007230846500,7.379846435546875,-0.7560701370239258,-0.3030848503112793,-0.5094468593597412
1761312007249459500,7.39845947265625,-0.5031719207763672,-0.10300493240356445,-0.2474590539932251
1761312007268074200,7.41707421875,-0.42569828033447266,0.10773086547851562,0.10808539390563965
1761312007286687200,7.435687255859375,-0.46088695526123047,0.30072641372680664,0.41865742206573486
1761312007305301800,7.4543017578125,-0.551002025604248,0.4761524200439453,0.5614356994628906
1761312007323915000,7.4729150390625,-0.5130181312561035,0.5425853729248047,0.5362082719802856
1761312007342529500,7.491529541015625,-0.25669002532958984,0.4997568130493164,0.35660433769226074
1761312007361142500,7.510142578125,0.060396671295166016,0.42728185653686523,0.2286059856414795
1761312007379757000,7.528757080078125,0.16601181030273438,0.4216651916503906,0.2806450128555298
1761312007398370300,7.547370361328125,0.06738662719726562,0.46950340270996094,0.2734729051589966
1761312007416984800,7.56598486328125,-0.0589137077331543,0.508303165435791,0.10211849212646484
1761312007435597800,7.584597900390625,-0.22156858444213867,0.43787717819213867,0.02808976173400879
1761312007454212600,7.603212646484375,-0.32912778854370117,0.41053247451782227,0.09313547611236572
1761312007472825600,7.62182568359375,-0.33114051818847656,0.4915189743041992,-0.01789224147796631
1761312007491440000,7.640440185546875,-0.2703876495361328,0.7372775077819824,-0.5693786144256592
1761312007510053000,7.65905322265625,-0.20423412322998047,1.0972537994384766,-1.1223094463348389
1761312007528668000,7.67766796875,-0.2009878158569336,1.204202651977539,-1.0542752742767334
1761312007547281000,7.696281005859375,-0.06784915924072266,0.9672427177429199,-0.3821263313293457
1761312007565895400,7.7148955078125,0.2949409484863281,0.6994948387145996,0.2339550256729126
1761312007584508700,7.7335087890625,0.8295531272888184,0.3173503875732422,0.51177978515625
1761312007603123200,7.752123291015625,1.260509967803955,-0.22279119491577148,0.6062326431274414
1761312007621736200,7.770736083984375,1.5184025764465332,-0.7913737297058105,0.5870033502578735
1761312007640350700,7.789350830078125,1.5258660316467285,-1.2219829559326172,0.38447439670562744
1761312007658964000,7.8079638671875,1.263991355895996,-1.4347648620605469,0.12759196758270264
1761312007677578500,7.82657861328125,0.7905454635620117,-1.523775577545166,-0.13880324363708496
1761312007696191500,7.84519140625,0.2926979064941406,-1.4731502532958984,-0.43892669677734375
1761312007714806000,7.863805908203125,-0.11775016784667969,-1.3738751411437988,-0.6036539077758789
1761312007733419300,7.882419189453125,-0.3319425582885742,-1.1596875190734863,-0.7433590888977051
1761312007752033800,7.90103369140625,-0.4757404327392578,-0.9889717102050781,-0.6838324069976807
1761312007770647000,7.91964697265625,-0.4855656623840332,-0.8860607147216797,-0.47501397132873535
1761312007789261600,7.938261474609375,-0.3980412483215332,-0.9393801689147949,-0.18166327476501465
1761312007807874600,7.95687451171875,-0.1712632179260254,-1.034834861755371,0.021982789039611816
1761312007826489000,7.975489013671875,0.10785198211669922,-1.0209722518920898,-0.09884798526763916
1761312007845102300,7.994102294921875,0.1172633171081543,-0.9232263565063477,-0.3330705165863037
1761312007863716900,8.012716796875,-0.1453413963317871,-0.7947759628295898,-0.5269920825958252
1761312007882329900,8.031329833984374,-0.34466028213500977,-0.7346091270446777,-0.46650683879852295
1761312007900944400,8.0499443359375,-0.3455653190612793,-0.7849359512329102,-0.34548258781433105
1761312007919557600,8.0685576171875,-0.49521303176879883,-0.6341891288757324,-0.30687475204467773
1761312007938172200,8.087172119140625,-1.123617172241211,-0.1080937385559082,-0.17321479320526123
1761312007956785200,8.10578515625,-2.0101170539855957,0.5283880233764648,0.2646758556365967
1761312007975400000,8.12439990234375,-2.479992389678955,0.38528966903686523,0.9969239830970764
1761312007994013000,8.143012939453126,-2.1785740852355957,0.326291561126709,0.6302672624588013
1761312008012627500,8.16162744140625,-1.4434189796447754,0.24584674835205078,-0.29404187202453613
1761312008031240400,8.180240478515625,-0.5442776679992676,0.3135986328125,-0.8328707218170166
1761312008049855200,8.198855224609375,0.28452253341674805,0.3389091491699219,-0.8245071172714233
1761312008068468200,8.21746826171875,0.8224105834960938,0.43290138244628906,-0.6158868074417114
1761312008087082800,8.236082763671876,1.0647926330566406,0.7525205612182617,-0.2864358425140381
1761312008105696000,8.254696044921875,1.3359923362731934,0.8264279365539551,-0.006473660469055176
1761312008124310500,8.273310546875,1.8736419677734375,0.6920647621154785,-0.06706011295318604
1761312008142923500,8.291923583984374,2.333235740661621,0.546414852142334,-0.34760260581970215
1761312008161538000,8.3105380859375,2.3833975791931152,0.3862438201904297,-0.6790350675582886
1761312008180151300,8.3291513671875,2.181790828704834,0.40679454803466797,-1.1207340955734253
1761312008198765800,8.347765869140625,1.536139965057373,0.5289983749389648,-1.1294671297073364
1761312008217378800,8.36637890625,0.7705783843994141,0.6877622604370117,-0.7657320499420166
1761312008235993600,8.38499365234375,0.41243839263916016,0.7248287200927734,-0.4776498079299927
1761312008254606600,8.403606689453126,0.474520206451416,0.6809501647949219,-0.44610142707824707
1761312008273221000,8.42222119140625,0.6471357345581055,0.615351676940918,-0.2961580753326416
1761312008291834000,8.440834228515625,0.9129238128662109,0.3408999443054199,0.022625207901000977
1761312008310449000,8.459448974609375,1.1537261009216309,0.025805950164794922,0.3424704670906067
1761312008329062000,8.478061767578126,1.253422737121582,-0.21526670455932617,0.5026500225067139
1761312008347676400,8.496676513671876,1.144230842590332,-0.3663158416748047,0.6175272464752197
1761312008366289400,8.515289306640625,0.6439914703369141,-1.3535451889038086,1.7531898021697998
1761312008384904200,8.533904296875,0.2510409355163574,-1.4899020195007324,1.9531497955322266
1761312008403517200,8.55251708984375,0.07430315017700195,-1.1804957389831543,1.4605780839920044
1761312008422131700,8.571131591796876,0.036170005798339844,-0.9202156066894531,0.8395801782608032
1761312008440745000,8.589744873046875,-0.20993280410766602,-0.9383091926574707,0.5554376244544983
1761312008459359500,8.608359375,-0.6031980514526367,-0.8159341812133789,0.2921183705329895
1761312008477972500,8.626972412109374,-0.7588682174682617,-0.525691032409668,-0.10375696420669556
1761312008496587000,8.6455869140625,-0.6699409484863281,-0.36907196044921875,-0.3792685270309448
1761312008515200300,8.6642001953125,-0.7285447120666504,-0.4315633773803711,-0.35334742069244385
1761312008533814800,8.682814697265625,-0.848233699798584,-0.42850160598754883,-0.2888793349266052
1761312008552427800,8.701427734375,-0.8874993324279785,-0.2467789649963379,-0.3917672038078308
1761312008571042600,8.72004248046875,-0.7809004783630371,-0.055484771728515625,-0.3940180540084839
1761312008589655600,8.738655517578126,-0.7675623893737793,0.0022249221801757812,-0.28293901681900024
1761312008608270000,8.75727001953125,-0.7975873947143555,0.04305458068847656,-0.04901617765426636
1761312008626883000,8.775883056640625,-0.7565460205078125,0.13457536697387695,0.1549835205078125
1761312008645497900,8.794497802734375,-0.688544750213623,0.22028493881225586,0.24573266506195068
1761312008664110800,8.81311083984375,-0.7508130073547363,0.2748599052429199,0.24586880207061768
1761312008682725400,8.831725341796876,-0.7816085815429688,0.39344167709350586,0.15269148349761963
1761312008701338600,8.850338623046875,-0.7119851112365723,0.49480533599853516,0.07648336887359619
1761312008719953200,8.868953125,-0.5697073936462402,0.5675201416015625,-0.0008451938629150391
1761312008738566100,8.887566162109374,-0.4775562286376953,0.7166452407836914,-0.1659623384475708
1761312008757180700,8.9061806640625,-0.4670252799987793,0.9681386947631836,-0.3895000219345093
1761312008775794000,8.9247939453125,-0.4347057342529297,1.1901659965515137,-0.33809733390808105
1761312008794408400,8.943408447265625,-0.11236095428466797,1.3273849487304688,-0.325026273727417
1761312008813021400,8.962021484375,0.28354597091674805,1.2860331535339355,-0.4257453680038452
1761312008831636000,8.980635986328124,0.6269063949584961,0.9835171699523926,-0.13775289058685303
1761312008850249200,8.999249267578126,1.101003646850586,0.6131424903869629,-0.02899932861328125
1761312008868863700,9.01786376953125,1.4060072898864746,0.2526230812072754,-0.4458667039871216
1761312008887477000,9.03647705078125,1.2973885536193848,-0.11510515213012695,-0.662696361541748
1761312008906091500,9.055091552734375,0.7743353843688965,-0.185791015625,-0.8123445510864258
1761312008924704500,9.07370458984375,0.2485213279724121,-0.07016468048095703,-0.8669040203094482
1761312008943319000,9.092319091796876,-0.013277530670166016,-0.39133787155151367,-0.5112600326538086
1761312008961932300,9.110932373046875,0.10792255401611328,-1.021223545074463,-0.015220165252685547
1761312008980546800,9.129546875,0.2634720802307129,-1.5560832023620605,0.18247485160827637
1761312008999159800,9.148159912109374,0.0962986946105957,-1.7639532089233398,0.0045354366302490234
1761312009017774300,9.1667744140625,-0.3978705406188965,-1.7359552383422852,-0.15758013725280762
1761312009036387600,9.1853876953125,-0.9344024658203125,-1.4992918968200684,-0.22523808479309082
1761312009055002000,9.204002197265625,-1.178905963897705,-1.1001944541931152,-0.3705170154571533
1761312009073615000,9.222614990234375,-1.1639628410339355,-0.9725203514099121,-0.17605257034301758
1761312009092230000,9.24122998046875,-1.091381549835205,-1.2212982177734375,0.3119194507598877
1761312009110843000,9.2598427734375,-0.9862728118896484,-1.1376361846923828,0.013133764266967773
1761312009129457400,9.27845751953125,-0.7680788040161133,-0.8792033195495605,-0.6067216396331787
1761312009148070400,9.2970703125,-0.41591787338256836,-0.6639571189880371,-1.1067328453063965
1761312009166685200,9.315685302734375,0.06697463989257812,-0.38466930389404297,-1.3861191272735596
1761312009185298200,9.334298095703126,0.6093082427978516,-0.27099084854125977,-1.2296369075775146
1761312009203912700,9.35291259765625,1.0703940391540527,-0.26085472106933594,-0.5104520320892334
1761312009222526000,9.37152587890625,1.2168326377868652,-0.16574764251708984,0.36167001724243164
1761312009241140500,9.390140380859375,1.0192737579345703,-0.06043863296508789,0.9333736896514893
1761312009259753500,9.40875341796875,0.5325045585632324,-0.06124591827392578,0.9149067401885986
1761312009278368000,9.427367919921876,-0.13782644271850586,-0.15266895294189453,0.542670726776123
1761312009296981200,9.445981201171875,-0.7895445823669434,-0.1677699089050293,0.022523164749145508
1761312009315595800,9.464595703125,-1.1798124313354492,-0.013691425323486328,-0.672032356262207
1761312009334208800,9.483208740234375,-1.1068601608276367,0.2135305404663086,-1.4103929996490479
1761312009352823600,9.501823486328124,-0.6135144233703613,0.4584183692932129,-1.6688480377197266
1761312009371436500,9.5204365234375,-0.18096065521240234,0.6737627983093262,-1.3353312015533447
1761312009390051000,9.539051025390625,-0.0229339599609375,0.8922238349914551,-0.9571800231933594
1761312009408664300,9.557664306640625,0.15463972091674805,0.9898772239685059,-0.34798407554626465
1761312009427278800,9.57627880859375,0.6375436782836914,0.8428549766540527,0.360015869140625
1761312009445891800,9.594891845703126,1.0533194541931152,0.4989008903503418,0.47792840003967285
1761312009464506400,9.61350634765625,0.9849395751953125,0.33602285385131836,-0.15820097923278809
1761312009483119600,9.63211962890625,0.4717550277709961,0.3846707344055176,-0.715111255645752
1761312009501734100,9.650734130859375,-0.050061702728271484,0.49875783920288086,-0.862518310546875
1761312009520347100,9.66934716796875,-0.12096643447875977,0.5139217376708984,-0.5432698726654053
1761312009548268000,9.69726806640625,0.8096470832824707,0.3925361633300781,0.3515714406967163
1761312009566882600,9.715882568359374,1.669325828552246,-0.06679105758666992,1.0409281253814697
1761312009585495600,9.73449560546875,2.3586859703063965,-0.5585355758666992,1.549225091934204
1761312009604110300,9.7531103515625,2.5430550575256348,-0.9687261581420898,1.5885448455810547
1761312009622723300,9.771723388671875,2.4431991577148438,-0.985198974609375,1.171489953994751
1761312009641337900,9.790337890625,1.8903236389160156,-0.9194507598876953,1.012452244758606
1761312009659951000,9.808951171875,1.127741813659668,-0.8314175605773926,0.9748356342315674
1761312009678565600,9.827565673828126,0.348419189453125,-0.778864860534668,0.7643502950668335
1761312009697178600,9.8461787109375,-0.33529090881347656,-0.6875357627868652,0.3368210792541504
1761312009715793400,9.86479345703125,-0.8419046401977539,-0.4392542839050293,-0.21326589584350586
1761312009734406400,9.883406494140624,-1.0475554466247559,-0.19180011749267578,-0.5863924026489258
1761312009762327800,9.911327880859375,-0.7652454376220703,-0.0644984245300293,-0.5859324932098389
1761312009780941000,9.929941162109374,-0.39823293685913086,-0.1869525909423828,-0.4110856056213379
1761312009799555600,9.9485556640625,-0.18264293670654297,-0.32419252395629883,-0.2940201759338379
1761312009818168600,9.96716845703125,-0.17995071411132812,-0.3828616142272949,-0.07254910469055176
1761312009836783000,9.985783203125,-0.2655773162841797,-0.46154165267944336,0.036476850509643555
1761312009855396400,10.004396240234374,-0.28713560104370117,-0.28535890579223633,-0.4851267337799072
1761312009874011000,10.023010986328124,-0.3881230354309082,-0.18552398681640625,-0.4716503620147705
1761312009892624000,10.041623779296875,-0.358889102935791,-0.21288394927978516,-0.679863691329956
1761312009911238700,10.06023876953125,-0.24106502532958984,-0.1411457061767578,-0.934643030166626
1761312009929851600,10.0788515625,-0.22318410873413086,-0.14814424514770508,-0.3399050235748291
1761312009948466200,10.097466064453124,-0.11081600189208984,-0.0023446083068847656,-0.6459388732910156
1761312009967079400,10.116079345703126,-0.03720235824584961,-0.12035894393920898,-0.5759882926940918
1761312009985694000,10.13469384765625,-0.15325021743774414,-0.0039010047912597656,-0.4877495765686035
1761312010004307000,10.153306884765625,-0.5479545593261719,-0.2209482192993164,0.2639598846435547
1761312010022921700,10.171921630859375,-0.7224197387695312,0.4230360984802246,-0.6835041046142578
1761312010041534700,10.19053466796875,-0.5798349380493164,0.17591333389282227,-0.4286613464355469
1761312010060149200,10.209149169921876,-0.40975379943847656,0.09053850173950195,-0.29160332679748535
1761312010078762200,10.22776220703125,-0.40208959579467773,0.20787572860717773,-0.8012282848358154
1761312010097377000,10.246376953125,-0.35847902297973633,0.5714058876037598,-1.5157711505889893
1761312010115990000,10.264989990234374,-0.4269862174987793,0.6355171203613281,-2.089634656906128
1761312010134604500,10.2836044921875,-0.5014753341674805,1.1967029571533203,-2.418121099472046
1761312010153217800,10.3022177734375,-0.5707130432128906,0.9174256324768066,-1.5231757164001465
1761312010171832300,10.320832275390625,-0.12140035629272461,0.49416303634643555,-0.7463507652282715
1761312010190445300,10.3394453125,0.5586352348327637,-0.14279794692993164,0.5951156616210938
1761312010209060000,10.35806005859375,1.371260166168213,-0.806861400604248,0.8323663473129272
1761312010227673000,10.376673095703126,1.5171780586242676,-1.0416479110717773,0.5185627937316895
1761312010246287600,10.39528759765625,0.9970564842224121,-1.1037373542785645,-0.2692689895629883
1761312010264900900,10.41390087890625,0.3811459541320801,-1.0610542297363281,-0.11046004295349121
1761312010283515400,10.432515380859375,0.11019372940063477,-1.0042991638183594,0.12388777732849121
1761312010302128400,10.45112841796875,0.051604270935058594,-1.0532965660095215,0.25258517265319824
1761312010320743200,10.4697431640625,0.015725135803222656,-1.170027732849121,0.07621550559997559
1761312010339356200,10.488356201171875,-0.16217899322509766,-1.1909699440002441,0.061614274978637695
1761312010357970700,10.506970703125,-0.41622257232666016,-1.1669940948486328,-0.31224679946899414
1761312010376584000,10.525583984375,-0.5193095207214355,-1.4909954071044922,-0.10249590873718262
1761312010395198500,10.544198486328124,-0.2619915008544922,-1.3305954933166504,-0.7378826141357422
1761312010413811500,10.5628115234375,0.23296737670898438,-1.5149879455566406,-0.7624499797821045
1761312010432426200,10.58142626953125,0.6477923393249512,-1.5153088569641113,-0.7470440864562988
1761312010451039200,10.600039306640625,0.835212230682373,-1.232100009918213,-0.3044099807739258
1761312010469653800,10.61865380859375,0.9190053939819336,-1.4236135482788086,-0.17212867736816406
1761312010488267000,10.63726708984375,0.760134220123291,-0.8926897048950195,0.17709088325500488
1761312010506881500,10.655881591796875,0.5133280754089355,-0.6091442108154297,-0.33016490936279297
1761312010525494500,10.67449462890625,0.453580379486084,-0.7051210403442383,-0.32795095443725586
1761312010544109300,10.693109375,0.514340877532959,-0.6784462928771973,-0.26226806640625
1761312010562722300,10.711722412109374,0.5653676986694336,-0.5708684921264648,-0.11791515350341797
1761312010581336800,10.7303369140625,0.6335325241088867,-0.5490884780883789,-0.17914891242980957
1761312010599950000,10.7489501953125,0.7777457237243652,-0.5734739303588867,-0.14529681205749512
1761312010618564600,10.767564697265625,0.9117569923400879,-0.3517336845397949,-0.7722229957580566
1761312010637177900,10.786177734375,1.0192432403564453,-0.7816457748413086,-0.7561354637145996
1761312010655792400,10.80479248046875,1.316922664642334,-1.048642635345459,-0.47690320014953613
1761312010674405400,10.8234052734375,0.7101564407348633,-0.13009262084960938,-0.6388118267059326
1761312010693020200,10.842020263671875,0.1659536361694336,-0.5025358200073242,-0.4344604015350342
1761312010720940800,10.86994091796875,0.28473949432373047,-0.574134349822998,-0.45062899589538574
1761312010739554000,10.888553955078125,0.345705509185791,-0.35628604888916016,-0.11531782150268555
1761312010758168600,10.90716845703125,0.4354124069213867,-0.4668760299682617,0.2575356960296631
