time,seconds_elapsed,z,y,x
1761371233009232000,0.20023193359375,0.09407047927379608,0.00862821750342846,0.03474193811416626
1761371233027842800,0.2188427734375,0.08796200156211853,0.004352286923676729,0.04756972938776016
1761371233046455300,0.237455322265625,0.08246438205242157,-0.0231358390301466,0.07078192383050919
1761371233065066200,0.256066162109375,0.07574506103992462,-0.021914144977927208,0.08360971510410309
1761371233083678700,0.2746787109375,0.09407047927379608,-0.03596363216638565,0.11903885751962662
1761371233102289700,0.29328955078125,0.12644538283348083,0.025731941685080528,0.15324631333351135
1761371233120902100,0.311902099609375,0.1710372269153595,0.09231429547071457,0.12392564117908478
1761371233139513000,0.33051318359375,0.2211267054080963,0.14912308752536774,0.13736428320407867
1761371233158125300,0.349125244140625,0.23945212364196777,0.1143047958612442,0.1336991935968399
1761371233176736300,0.367736328125,0.21868331730365753,0.09109259396791458,0.2253262847661972
1761371233195348700,0.3863486328125,0.18630841374397278,0.025731941685080528,0.27419406175613403
1761371233213959700,0.404959716796875,0.19302773475646973,-0.018249060958623886,0.2540360987186432
1761371233232572200,0.423572265625,0.2217375487089157,-0.022524992004036903,0.16607409715652466
1761371233251183000,0.44218310546875,0.18691925704479218,-0.015805672854185104,0.08666395395994186
1761371233269795600,0.460795654296875,0.1429382562637329,-0.07750124484300613,0.08971819281578064
1761371233288406500,0.479406494140625,0.10262233763933182,-0.10010259598493576,0.10926530510187149
1761371233307019000,0.49801904296875,0.05925218388438225,-0.11476293206214905,0.0958266630768776
1761371233325630000,0.5166298828125,0.026877280324697495,-0.1080436110496521,0.04634803533554077
1761371233344242400,0.535242431640625,0.004275931045413017,-0.09704835712909698,-0.008093725889921188
1761371233362853400,0.553853271484375,-0.013438640162348747,-0.07689040154218674,-0.045355409383773804
1761371233381465900,0.5724658203125,-0.024433890357613564,-0.04390464723110199,-0.04474456235766411
1761371233400076800,0.591076904296875,-0.0390942245721817,-0.045737188309431076,-0.008704573847353458
1761371233418689300,0.609689208984375,-0.03787253051996231,-0.0231358390301466,0.02802261710166931
1761371233437300200,0.62830029296875,-0.05131116881966591,-0.009697199799120426,0.06039752438664436
1761371233455912400,0.646912353515625,-0.05864133685827255,0.00129805039614439,0.0958266630768776
1761371233474523400,0.6655234375,-0.04581354558467865,0.039170581847429276,0.08849649876356125
1761371233493136000,0.684135986328125,-0.026877280324697495,0.034283801913261414,0.08666395395994186
1761371233511746800,0.702746826171875,-0.0012216945178806782,0.03245126083493233,0.08544225990772247
1761371233530359300,0.721359375,0.02626643143594265,0.018401773646473885,0.09155073016881943
1761371233548970200,0.73997021484375,0.04153761267662048,-0.014583977870643139,0.08788564801216125
1761371233567582700,0.758582763671875,0.04581354558467865,-0.03779617324471474,0.0695602297782898
1761371233586193700,0.777193603515625,0.03176405653357506,-0.035352785140275955,0.03474193811416626
1761371233604806100,0.79580615234375,0.026877280324697495,-0.0426829531788826,-0.0050394898280501366
1761371233623417000,0.8144169921875,0.014049487188458443,-0.054899897426366806,-0.04230117425322533
1761371233642029600,0.833029541015625,-0.006719320081174374,-0.09277242422103882,-0.06551336497068405
1761371233660640500,0.851640625,-0.025655584409832954,-0.12575818598270416,-0.08689302206039429
1761371233679253000,0.8702529296875,-0.04031591862440109,-0.13675342500209808,-0.08689302206039429
1761371233697864000,0.888864013671875,-0.04031591862440109,-0.1471378356218338,-0.06306997686624527
1761371233716476400,0.907476318359375,-0.03237490355968475,-0.1086544543504715,-0.03802524134516716
1761371233735087400,0.92608740234375,-0.024433890357613564,-0.08544225990772247,-0.008093725889921188
1761371233753699800,0.944699951171875,-0.011606098152697086,-0.06284090876579285,0.02802261710166931
1761371233772310800,0.963310791015625,0,-0.05184566229581833,0.07383616268634796
1761371233790923300,0.98192333984375,0.01038440316915512,-0.05734328553080559,0.08788564801216125
1761371233809534200,1.0005341796875,0.011606098152697086,-0.06345175951719284,0.08360971510410309
1761371233828146700,1.019146728515625,0.03298575058579445,-0.05428905040025711,0.10193513333797455
1761371233846757600,1.037757568359375,0.030542362481355667,-0.07200361788272858,0.07078192383050919
1761371233865370000,1.0563701171875,0.02993151545524597,-0.024968381971120834,0.02924431301653385
1761371233883981000,1.07498095703125,0.03176405653357506,-0.004810422193259001,-0.01725643500685692
1761371233902593300,1.09359326171875,0.038483377546072006,0.00129805039614439,-0.0459662564098835
1761371233921204500,1.11220458984375,0.043981000781059265,0.012293301522731781,-0.05757235363125801
1761371233939816700,1.130816650390625,0.04886778071522713,0.034283801913261414,-0.04169032722711563
1761371233958427600,1.149427734375,0.051922015845775604,0.035505495965480804,-0.030695075169205666
1761371233977040100,1.1680400390625,0.06047387793660164,0.040392275899648666,-0.0038177953101694584
1761371233995651000,1.186651123046875,0.05803048983216286,0.034283801913261414,0.021303297951817513
1761371234014263600,1.205263671875,0.06169557198882103,0.04283566400408745,0.043293800204992294
1761371234032874500,1.22387451171875,0.05986303091049194,0.05322006717324257,0.06223006546497345
1761371234051487000,1.242487060546875,0.06291726976633072,0.08192989230155945,0.06406260281801224
1761371234070098000,1.261097900390625,0.06413896381855011,0.10025530308485031,0.05123481526970863
1761371234088710400,1.27971044921875,0.07146912813186646,0.08742751181125641,0.03962871432304382
1761371234107321300,1.2983212890625,0.07024743407964706,0.06726955622434616,0.021303297951817513
1761371234125933800,1.316933837890625,0.06169557198882103,0.05932854115962982,-0.0038177953101694584
1761371234144544800,1.335544677734375,0.047646086663007736,0.061771929264068604,-0.024586603045463562
1761371234163157200,1.3541572265625,0.02870982140302658,0.057496000081300735,-0.013591351918876171
1761371234181768200,1.372768310546875,0.012216945178806782,0.05932854115962982,0.006642963737249374
1761371234200380700,1.391380615234375,-0.007330167107284069,0.06421531736850739,0.00786465872079134
1761371234218991600,1.40999169921875,-0.018936265259981155,0.06482616811990738,-0.012980503961443901
1761371234237604000,1.42860400390625,-0.01038440316915512,0.055052608251571655,-0.013591351918876171
1761371234256215000,1.447215087890625,0.0018325417768210173,0.00007635590736754239,0.014583977870643139
1761371234274827500,1.46582763671875,-0.004275931045413017,-0.006642963737249374,0.02435753494501114
1761371234293438500,1.4844384765625,-0.007330167107284069,-0.0029778804164379835,0.02008160389959812
1761371234312051000,1.503051025390625,-0.010995250195264816,0.0031305921729654074,0.008475505746901035
1761371234330662000,1.521661865234375,-0.004275931045413017,0.011071606539189816,-0.00259610079228878
1761371234349274400,1.5402744140625,-0.0024433890357613564,0.015347537584602833,-0.0068720318377017975
1761371234367885300,1.55888525390625,-0.01038440316915512,0.011682453565299511,-0.001374406274408102
1761371234386497800,1.577497802734375,-0.016492875292897224,0.017180079594254494,-0.00259610079228878
1761371234405108700,1.596108642578125,-0.02076880633831024,0.02695363573729992,-0.007482878863811493
1761371234423721200,1.61472119140625,-0.023212196305394173,0.022066857665777206,-0.001985253533348441
1761371234442332200,1.633332275390625,-0.01954711228609085,0.017180079594254494,-0.001374406274408102
1761371234460944600,1.651944580078125,-0.01588202826678753,0.018401773646473885,-0.014813045971095562
1761371234479555600,1.6705556640625,-0.01038440316915512,0.013514995574951172,-0.020310672000050545
1761371234498168000,1.68916796875,-0.006719320081174374,0.006184828467667103,-0.014202198944985867
1761371234516779000,1.707779052734375,-0.004275931045413017,-0.006642963737249374,-0.00259610079228878
1761371234535391500,1.7263916015625,-0.006108472589403391,-0.013973130844533443,0.011529741808772087
1761371234554002400,1.74500244140625,-0.01710372418165207,-0.01763821393251419,0.020692450925707817
1761371234572615000,1.763614990234375,-0.02870982140302658,-0.017027366906404495,0.020692450925707817
1761371234591225900,1.782225830078125,-0.02993151545524597,-0.013362283818423748,0.021914144977927208
1761371234609838300,1.80083837890625,-0.02504473738372326,-0.008475505746901035,0.013973130844533443
1761371234628449300,1.81944921875,-0.017714571207761765,-0.0011453386396169662,-0.004428642801940441
1761371234647061800,1.838061767578125,-0.015271181240677834,0.00862821750342846,-0.029473381116986275
1761371234665672700,1.856672607421875,-0.011606098152697086,0.008017370477318764,-0.04352286830544472
1761371234684285200,1.87528515625,-0.0012216945178806782,-0.0011453386396169662,-0.031916771084070206
1761371234702896000,1.893896240234375,0.014660334214568138,0.0019088976550847292,-0.023364907130599022
1761371234721508600,1.912508544921875,0.02993151545524597,0.024510245770215988,-0.023364907130599022
1761371234740119600,1.93111962890625,0.033596597611904144,0.034283801913261414,-0.008704573847353458
1761371234758732000,1.94973193359375,0.031153209507465363,0.023899398744106293,0.00786465872079134
1761371234777343000,1.968343017578125,0.03176405653357506,0.018401773646473885,0.010308047756552696
1761371234795955200,1.986955078125,0.03237490355968475,0.01779092662036419,0.0035887276753783226
1761371234814566400,2.00556640625,0.028098974376916885,0.02023431472480297,-0.001374406274408102
1761371234833178600,2.0241787109375,0.01710372418165207,0.01046075951308012,0.004810422193259001
1761371234851789600,2.04278955078125,0.009773556143045425,0.011682453565299511,0.010308047756552696
1761371234870402000,2.061402099609375,0.00916270911693573,0.008017370477318764,0.012140588834881783
1761371234889013200,2.08001318359375,0.007941014133393764,0.01046075951308012,0.00786465872079134
1761371234907625500,2.09862548828125,-0.0006108472589403391,0.006184828467667103,0.00786465872079134
1761371234926236400,2.117236328125,-0.006108472589403391,0.004352286923676729,0.007253811229020357
1761371234944849000,2.135848876953125,-0.004886778071522713,0.0025197449140250683,0.0035887276753783226
1761371234963459800,2.1544599609375,-0.0030542362947016954,0.008017370477318764,-0.001985253533348441
1761371234982072300,2.173072265625,0.0018325417768210173,0.0165692325681448,-0.0007635590736754239
1761371235000683300,2.191683349609375,0.0036650835536420345,0.0165692325681448,0.0017561858985573053
1761371235019295700,2.210295654296875,0.0030542362947016954,0.012904148548841476,0.012140588834881783
1761371235037906700,2.22890673828125,0,0.015347537584602833,0.02557922899723053
1761371235056519200,2.247519287109375,0.0018325417768210173,0.023899398744106293,0.026190076023340225
1761371235075130000,2.266130126953125,0.005497625097632408,0.031229566782712936,0.01763821393251419
1761371235093742600,2.28474267578125,0.010995250195264816,0.023899398744106293,0.013362283818423748
1761371235112353500,2.303353515625,0.015271181240677834,0.01046075951308012,0.010308047756552696
1761371235130966000,2.321966064453125,0.009773556143045425,0.008017370477318764,-0.0007635590736754239
1761371235149577000,2.340576904296875,0.005497625097632408,0.0037414394319057465,-0.00015271181473508477
1761371235168189400,2.359189453125,0,-0.004810422193259001,-0.008704573847353458
1761371235186800400,2.37780029296875,-0.0006108472589403391,-0.013362283818423748,-0.020310672000050545
1761371235205412900,2.396412841796875,-0.005497625097632408,-0.021914144977927208,-0.02886253222823143
1761371235224023800,2.41502392578125,-0.011606098152697086,-0.020692450925707817,-0.03497100621461868
1761371235242636300,2.43363623046875,-0.012827792204916477,-0.026190076023340225,-0.030695075169205666
1761371235261247200,2.452247314453125,-0.009773556143045425,-0.02924431301653385,-0.013591351918876171
1761371235279859700,2.470859619140625,-0.010995250195264816,-0.024968381971120834,-0.0007635590736754239
1761371235298470700,2.489470703125,-0.005497625097632408,-0.018249060958623886,0.011529741808772087
1761371235317083100,2.508083251953125,-0.007941014133393764,-0.014583977870643139,0.012140588834881783
1761371235335694000,2.526694091796875,-0.004886778071522713,-0.007253811229020357,0.0011453386396169662
1761371235354306600,2.545306640625,0.0012216945178806782,-0.004199574701488018,-0.007482878863811493
1761371235372917500,2.56391748046875,0.005497625097632408,-0.004810422193259001,-0.019088976085186005
1761371235391530000,2.582530029296875,0.01038440316915512,-0.0029778804164379835,-0.02214321307837963
1761371235410141000,2.601140869140625,0.013438640162348747,-0.0023670331574976444,-0.01725643500685692
1761371235428753400,2.61975341796875,0.007941014133393764,-0.007253811229020357,-0.01725643500685692
1761371235447364400,2.6383642578125,0.0006108472589403391,-0.012751436792314053,-0.016034740954637527
1761371235465976800,2.656976806640625,0,-0.021914144977927208,-0.011147962883114815
1761371235484587800,2.675587890625,0.0018325417768210173,-0.0164165198802948,-0.00259610079228878
1761371235503200300,2.6942001953125,0.0012216945178806782,-0.00786465872079134,0.008475505746901035
1761371235521811200,2.712811279296875,0.0018325417768210173,0.00007635590736754239,0.015194825828075409
1761371235540423700,2.731423583984375,0.006719320081174374,0.008017370477318764,0.010918894782662392
1761371235559034600,2.75003466796875,0.010995250195264816,0.013514995574951172,0.012140588834881783
1761371235577647000,2.768647216796875,0.010995250195264816,0.004352286923676729,0.019470756873488426
1761371235596258000,2.787258056640625,0.008551862090826035,0.007406522985547781,0.00786465872079134
1761371235614870500,2.80587060546875,0.010995250195264816,0.011682453565299511,-0.0038177953101694584
1761371235633481500,2.8244814453125,0.014049487188458443,0.013514995574951172,-0.004428642801940441
1761371235652094000,2.843093994140625,0.013438640162348747,0.019623467698693275,-0.0068720318377017975
1761371235670705000,2.861704833984375,0.01038440316915512,0.02023431472480297,-0.0032069480512291193
1761371235689317400,2.8803173828125,0.009773556143045425,0.00862821750342846,-0.00015271181473508477
1761371235707928300,2.89892822265625,0.010995250195264816,-0.007253811229020357,-0.0068720318377017975
1761371235726540800,2.917540771484375,0.007941014133393764,-0.013362283818423748,-0.01175880990922451
1761371235745151700,2.93615185546875,-0.0024433890357613564,-0.008475505746901035,-0.012980503961443901
1761371235763764200,2.95476416015625,-0.016492875292897224,-0.0017561858985573053,-0.005650337319821119
1761371235782375200,2.973375244140625,-0.02504473738372326,0.01046075951308012,-0.007482878863811493
1761371235800987600,2.991987548828125,-0.023823043331503868,0.004352286923676729,-0.004428642801940441
1761371235819598600,3.0105986328125,-0.023212196305394173,-0.0017561858985573053,-0.010537114925682545
1761371235838210800,3.0292109375,-0.02504473738372326,-0.0035887276753783226,-0.02092151902616024
1761371235856821800,3.04782177734375,-0.02626643143594265,-0.006032116711139679,-0.016645587980747223
1761371235875434500,3.0664345703125,-0.03237490355968475,-0.005421269219368696,-0.0050394898280501366
1761371235894045400,3.08504541015625,-0.025655584409832954,-0.008475505746901035,0.00908635277301073
1761371235912657700,3.10365771484375,-0.014660334214568138,-0.013973130844533443,0.014583977870643139
1761371235931268900,3.122268798828125,-0.004275931045413017,-0.015805672854185104,0.01763821393251419
1761371235949881000,3.140881103515625,0.0006108472589403391,-0.010918894782662392,0.015805672854185104
1761371235968492000,3.159491943359375,0.004886778071522713,-0.013362283818423748,0.00908635277301073
1761371235987104500,3.1781044921875,0.008551862090826035,-0.0164165198802948,0.0017561858985573053
1761371236005715500,3.196715576171875,0.008551862090826035,-0.006032116711139679,-0.0038177953101694584
1761371236024328000,3.215327880859375,0.007330167107284069,0.00007635590736754239,0.008475505746901035
1761371236042939000,3.23393896484375,0.0024433890357613564,0.005573981441557407,0.015194825828075409
1761371236061551400,3.25255126953125,0.004275931045413017,0.008017370477318764,0.013973130844533443
1761371236080162300,3.271162353515625,0.004886778071522713,0.0019088976550847292,0.011529741808772087
1761371236098774800,3.28977490234375,0.0018325417768210173,-0.004810422193259001,0.005421269219368696
1761371236117385700,3.3083857421875,-0.0018325417768210173,-0.012751436792314053,0.0011453386396169662
1761371236135998200,3.326998291015625,-0.0018325417768210173,-0.018249060958623886,-0.011147962883114815
1761371236154609200,3.345609130859375,-0.004886778071522713,-0.0164165198802948,-0.027029991149902344
1761371236173221600,3.3642216796875,-0.0024433890357613564,-0.0029778804164379835,-0.0459662564098835
1761371236191832600,3.38283251953125,0.012216945178806782,0.00129805039614439,-0.054518118500709534
1761371236210445000,3.401445068359375,0.022601349279284477,0.006184828467667103,-0.06612421572208405
1761371236229056000,3.420055908203125,0.01954711228609085,0.000687203137204051,-0.04840964451432228
1761371236247668500,3.43866845703125,0.01832541823387146,0.006184828467667103,-0.028251685202121735
1761371236266279400,3.457279541015625,0.02626643143594265,-0.0017561858985573053,-0.007482878863811493
1761371236284892000,3.475891845703125,0.03298575058579445,-0.014583977870643139,0.0029778804164379835
1761371236303502800,3.4945029296875,0.02993151545524597,-0.017027366906404495,0.00786465872079134
1761371236322115300,3.513115234375,0.025655584409832954,-0.0005344913806766272,0.004810422193259001
1761371236340726300,3.531726318359375,0.018936265259981155,0.011682453565299511,0.014583977870643139
1761371236359338800,3.5503388671875,0.012216945178806782,0.0025197449140250683,0.022524992004036903
1761371236377949700,3.56894970703125,0.009773556143045425,0.004352286923676729,0.004810422193259001
1761371236396562200,3.587562255859375,0.013438640162348747,-0.004810422193259001,-0.013591351918876171
1761371236415173000,3.606173095703125,0.012216945178806782,-0.013362283818423748,-0.02764083817601204
1761371236433785600,3.62478564453125,0.004886778071522713,-0.012751436792314053,-0.029473381116986275
1761371236452396500,3.643396484375,-0.006719320081174374,-0.0011453386396169662,-0.017867282032966614
1761371236471009000,3.662009033203125,-0.01588202826678753,0.004963133949786425,0.008475505746901035
1761371236489620000,3.680619873046875,-0.01710372418165207,0.01046075951308012,0.0164165198802948
1761371236508232400,3.699232421875,-0.01588202826678753,0.007406522985547781,0.013973130844533443
1761371236526843400,3.717843505859375,-0.012216945178806782,0.0025197449140250683,0.015194825828075409
1761371236545455900,3.736455810546875,-0.008551862090826035,0.004352286923676729,0.018249060958623886
1761371236564066800,3.75506689453125,-0.006108472589403391,0.004352286923676729,0.02557922899723053
1761371236582679300,3.77367919921875,-0.0036650835536420345,0.009849912486970425,0.03718532621860504
1761371236601290200,3.792290283203125,0.006719320081174374,0.009849912486970425,0.02924431301653385
1761371236619902700,3.81090283203125,0.012216945178806782,0.0067956759594380856,0.014583977870643139
1761371236638513700,3.829513671875,0.012216945178806782,0.00007635590736754239,0.020692450925707817
1761371236657126100,3.848126220703125,0.024433890357613564,-0.009697199799120426,0.02557922899723053
1761371236675737000,3.866737060546875,0.02870982140302658,-0.010308047756552696,0.021303297951817513
1761371236694349300,3.885349365234375,0.028098974376916885,-0.005421269219368696,0.005421269219368696
1761371236712960500,3.90396044921875,0.016492875292897224,-0.011529741808772087,-0.015423892997205257
1761371236731573000,3.922572998046875,0.0024433890357613564,-0.012140588834881783,-0.021532366052269936
1761371236750183700,3.94118359375,-0.004275931045413017,-0.00786465872079134,-0.012980503961443901
1761371236768796200,3.959796142578125,-0.009773556143045425,0.00129805039614439,-0.007482878863811493
1761371236787407400,3.978407470703125,-0.013438640162348747,-0.0017561858985573053,-0.004428642801940441
1761371236806019600,3.99701953125,-0.014049487188458443,-0.007253811229020357,0.0011453386396169662
1761371236824630500,4.015630615234375,-0.01588202826678753,-0.012751436792314053,0.008475505746901035
1761371236843243000,4.034242919921875,-0.012216945178806782,-0.010308047756552696,0.011529741808772087
1761371236861854000,4.05285400390625,-0.010995250195264816,-0.00908635277301073,0.010308047756552696
1761371236880466400,4.071466552734375,-0.009773556143045425,-0.006642963737249374,0.006642963737249374
1761371236899077400,4.090077392578125,-0.009773556143045425,-0.008475505746901035,0.004199574701488018
1761371236917689900,4.10868994140625,-0.010995250195264816,-0.011529741808772087,0.0023670331574976444
1761371236936300800,4.12730078125,-0.015271181240677834,-0.008475505746901035,0.004199574701488018
1761371236954913300,4.145913330078125,-0.012827792204916477,-0.013362283818423748,0.010308047756552696
1761371236973524200,4.164524169921875,-0.005497625097632408,-0.017027366906404495,0.010918894782662392
1761371236992136700,4.18313671875,0.0006108472589403391,-0.014583977870643139,0.0035887276753783226
1761371237010747600,4.20174755859375,0.0006108472589403391,-0.004810422193259001,-0.001985253533348441
1761371237029360000,4.220360107421875,0.004275931045413017,-0.0029778804164379835,-0.0032069480512291193
1761371237047971000,4.23897119140625,0.015271181240677834,0.007406522985547781,-0.015423892997205257
1761371237066583600,4.25758349609375,0.03176405653357506,0.0165692325681448,-0.031916771084070206
1761371237085194500,4.276194580078125,0.051922015845775604,0.028786176815629005,-0.055739812552928925
1761371237103807000,4.294806884765625,0.07574506103992462,0.034283801913261414,-0.07101099193096161
1761371237122418000,4.31341796875,0.10017894953489304,0.03855973482131958,-0.0716218426823616
1761371237141030400,4.332030517578125,0.0922379344701767,0.03184041380882263,-0.05757235363125801
1761371237159641300,4.350641357421875,0.0659715011715889,0.04527905210852623,-0.03558185324072838
1761371237178253800,4.36925390625,0.042759306728839874,0.05138752609491348,-0.01969982497394085
1761371237196864800,4.38786474609375,0.029320668429136276,0.040392275899648666,0.011529741808772087
1761371237215477200,4.406477294921875,0.020157959312200546,0.018401773646473885,0.026190076023340225
1761371237234088200,4.425088134765625,0.018936265259981155,0.00862821750342846,0.01885990984737873
1761371237252700700,4.44370068359375,0.020157959312200546,-0.006642963737249374,0.011529741808772087
1761371237271311600,4.4623115234375,0.013438640162348747,-0.015194825828075409,0.0029778804164379835
1761371237289924000,4.480924072265625,0.0012216945178806782,-0.00786465872079134,0.0017561858985573053
1761371237308535000,4.49953515625,-0.012216945178806782,-0.004810422193259001,0.014583977870643139
1761371237327147500,4.5181474609375,-0.021990500390529633,-0.004810422193259001,0.022524992004036903
1761371237345758500,4.536758544921875,-0.01954711228609085,-0.0023670331574976444,0.01885990984737873
1761371237364371000,4.555370849609375,-0.018936265259981155,-0.0029778804164379835,0.02435753494501114
1761371237382982000,4.57398193359375,-0.01954711228609085,-0.015805672854185104,0.029855160042643547
1761371237401594400,4.592594482421875,-0.01588202826678753,-0.015194825828075409,0.02680092304944992
1761371237420205300,4.611205322265625,-0.007330167107284069,-0.012751436792314053,0.01763821393251419
1761371237438817800,4.62981787109375,0.0012216945178806782,-0.006032116711139679,0.015194825828075409
1761371237457428700,4.6484287109375,0.00916270911693573,-0.0017561858985573053,0.0164165198802948
1761371237476041200,4.667041259765625,0.007330167107284069,0.00129805039614439,0.017027366906404495
1761371237494652200,4.685652099609375,0.0024433890357613564,0.0025197449140250683,0.012140588834881783
1761371237513264600,4.7042646484375,-0.004275931045413017,0.0019088976550847292,0.004199574701488018
1761371237531875600,4.72287548828125,-0.008551862090826035,-0.006642963737249374,-0.007482878863811493
1761371237550488000,4.741488037109375,-0.01710372418165207,-0.011529741808772087,-0.012980503961443901
1761371237569099000,4.76009912109375,-0.02626643143594265,-0.012751436792314053,-0.005650337319821119
1761371237587711500,4.77871142578125,-0.03237490355968475,-0.012140588834881783,-0.00015271181473508477
1761371237606322400,4.797322509765625,-0.03237490355968475,-0.010308047756552696,-0.007482878863811493
1761371237624935000,4.815934814453125,-0.02748812735080719,-0.009697199799120426,-0.02214321307837963
1761371237643545900,4.8345458984375,-0.017714571207761765,-0.00908635277301073,-0.028251685202121735
1761371237662158300,4.853158447265625,-0.007941014133393764,-0.009697199799120426,-0.00992626789957285
1761371237680769300,4.871769287109375,-0.0030542362947016954,-0.009697199799120426,0.012751436792314053
1761371237699381800,4.8903818359375,0.0006108472589403391,-0.0029778804164379835,0.022524992004036903
1761371237717992700,4.90899267578125,0.005497625097632408,0.005573981441557407,0.020692450925707817
1761371237736605000,4.92760498046875,0.01038440316915512,0.009239064529538155,0.01763821393251419
1761371237755216100,4.946216064453125,0.009773556143045425,0.015958385542035103,0.015805672854185104
1761371237773828600,4.96482861328125,0.004886778071522713,0.009239064529538155,0.015194825828075409
1761371237792439600,4.983439453125,-0.0012216945178806782,0.000687203137204051,0.007253811229020357
1761371237811052000,5.002052001953125,-0.00916270911693573,-0.0035887276753783226,-0.0050394898280501366
1761371237829663000,5.0206630859375,-0.014660334214568138,-0.005421269219368696,-0.013591351918876171
1761371237848275500,5.039275390625,-0.010995250195264816,-0.0035887276753783226,-0.012369656935334206
1761371237866886400,5.057886474609375,-0.01832541823387146,-0.008475505746901035,-0.012980503961443901
1761371237885498600,5.07649853515625,-0.024433890357613564,-0.006032116711139679,-0.015423892997205257
1761371237904109800,5.09510986328125,-0.022601349279284477,-0.0011453386396169662,-0.012980503961443901
1761371237922722300,5.113722412109375,-0.011606098152697086,0.013514995574951172,-0.012980503961443901
1761371237941333200,5.132333251953125,-0.0012216945178806782,0.020845163613557816,-0.012980503961443901
1761371237959945700,5.15094580078125,0.0036650835536420345,0.028786176815629005,-0.0038177953101694584
1761371237978556700,5.169556640625,0.011606098152697086,0.034283801913261414,0.013973130844533443
1761371237997169200,5.188169189453125,0.02504473738372326,0.043446511030197144,0.023746687918901443
1761371238015780000,5.206780029296875,0.04581354558467865,0.05016583204269409,0.018249060958623886
1761371238034392600,5.225392578125,0.06780404597520828,0.05199837312102318,0.005421269219368696
1761371238053003500,5.24400341796875,0.07330167293548584,0.04283566400408745,-0.004428642801940441
1761371238071616000,5.262615966796875,0.06352811306715012,0.03733803704380989,-0.00259610079228878
1761371238090227000,5.28122705078125,0.046424392610788345,0.02817532978951931,0.006032116711139679
1761371238108839400,5.29983935546875,0.033596597611904144,0.0037414394319057465,0.02008160389959812
1761371238127450400,5.318450439453125,0.023212196305394173,-0.00908635277301073,0.024968381971120834
1761371238146062800,5.337062744140625,0.010995250195264816,-0.019470756873488426,0.02008160389959812
1761371238164673800,5.355673828125,0.004275931045413017,-0.028633465990424156,0.013362283818423748
1761371238183286300,5.374286376953125,-0.0030542362947016954,-0.030466007068753242,-0.001985253533348441
1761371238201897200,5.392897216796875,-0.008551862090826035,-0.03168770298361778,-0.016645587980747223
1761371238220509700,5.411509765625,-0.005497625097632408,-0.031076854094862938,-0.020310672000050545
1761371238239120600,5.43012060546875,-0.00916270911693573,-0.019470756873488426,-0.012980503961443901
1761371238257733000,5.448733154296875,-0.006719320081174374,-0.006642963737249374,0.017027366906404495
1761371238276344000,5.467343994140625,0.0024433890357613564,0.009849912486970425,0.03596363216638565
1761371238294956500,5.48595654296875,0.015271181240677834,0.024510245770215988,0.03901786729693413
1761371238313567500,5.5045673828125,0.028098974376916885,0.031229566782712936,0.035352785140275955
1761371238332180000,5.523179931640625,0.037261683493852615,0.03061871975660324,0.021914144977927208
1761371238350791000,5.541791015625,0.04337015375494957,0.020845163613557816,0.007253811229020357
1761371238369403400,5.5604033203125,0.037261683493852615,0.009849912486970425,-0.00015271181473508477
1761371238388014300,5.579014404296875,0.02748812735080719,0.005573981441557407,0.0017561858985573053
1761371238406626800,5.597626708984375,0.015271181240677834,-0.0029778804164379835,0.00786465872079134
1761371238425237800,5.61623779296875,0.0024433890357613564,-0.006032116711139679,0.0023670331574976444
1761371238443850200,5.634850341796875,-0.0036650835536420345,-0.01763821393251419,-0.005650337319821119
1761371238462461200,5.653461181640625,-0.01038440316915512,-0.027411770075559616,-0.016645587980747223
1761371238481073700,5.67207373046875,-0.025655584409832954,-0.02557922899723053,-0.031916771084070206
1761371238499684600,5.6906845703125,-0.03787253051996231,-0.0231358390301466,-0.0331384651362896
1761371238518297000,5.709297119140625,-0.043981000781059265,-0.01763821393251419,-0.024586603045463562
1761371238536908000,5.727907958984375,-0.042759306728839874,-0.030466007068753242,-0.012369656935334206
1761371238555520500,5.7465205078125,-0.04337015375494957,-0.020692450925707817,-0.015423892997205257
1761371238574131500,5.76513134765625,-0.04581354558467865,-0.0023670331574976444,-0.021532366052269936
1761371238592744000,5.783743896484375,-0.036039989441633224,-0.0011453386396169662,-0.013591351918876171
1761371238611355000,5.80235498046875,-0.025655584409832954,-0.010308047756552696,-0.0050394898280501366
1761371238629967400,5.82096728515625,-0.01954711228609085,-0.020692450925707817,-0.001374406274408102
1761371238648578300,5.839578369140625,-0.020157959312200546,-0.01763821393251419,0.0005344913806766272
1761371238667190800,5.858190673828125,-0.020157959312200546,-0.005421269219368696,0.0005344913806766272
1761371238685801700,5.8768017578125,-0.021990500390529633,-0.0035887276753783226,-0.0038177953101694584
1761371238704414200,5.895414306640625,-0.020157959312200546,-0.007253811229020357,-0.006261184345930815
1761371238723025200,5.914025146484375,-0.02626643143594265,-0.015805672854185104,-0.0068720318377017975
1761371238741637600,5.9326376953125,-0.037261683493852615,-0.020692450925707817,-0.009315420873463154
1761371238760248600,5.95124853515625,-0.03542914241552353,-0.029855160042643547,-0.01725643500685692
1761371238778861000,5.969861083984375,-0.03420744836330414,-0.030466007068753242,-0.02641914412379265
1761371238797472000,5.988471923828125,-0.02993151545524597,-0.01885990984737873,-0.02214321307837963
1761371238816084500,6.00708447265625,-0.021990500390529633,-0.02008160389959812,-0.00259610079228878
1761371238834695400,6.0256953125,-0.01588202826678753,-0.013973130844533443,0.008475505746901035
1761371238853308000,6.044307861328125,-0.012216945178806782,-0.013362283818423748,0.011529741808772087
1761371238871918800,6.0629189453125,-0.014660334214568138,-0.004810422193259001,0.006642963737249374
1761371238890531300,6.08153125,-0.01588202826678753,0.0025197449140250683,0.006032116711139679
1761371238909142300,6.100142333984375,-0.01710372418165207,0.004352286923676729,0.008475505746901035
1761371238927754800,6.118754638671875,-0.015271181240677834,0.008017370477318764,0.0005344913806766272
1761371238946365700,6.13736572265625,-0.00916270911693573,0.006184828467667103,-0.0068720318377017975
1761371238964978200,6.155978271484375,-0.004886778071522713,0.0067956759594380856,-0.015423892997205257
1761371238983589000,6.174589111328125,-0.006108472589403391,-0.0011453386396169662,-0.01847812905907631
1761371239002201600,6.19320166015625,-0.01038440316915512,-0.009697199799120426,-0.021532366052269936
1761371239020812500,6.2118125,-0.012216945178806782,-0.009697199799120426,-0.028251685202121735
1761371239039425000,6.230425048828125,-0.007330167107284069,-0.013973130844533443,-0.03558185324072838
1761371239058036000,6.249035888671875,-0.00916270911693573,-0.00786465872079134,-0.038636088371276855
1761371239076648400,6.2676484375,-0.014049487188458443,-0.005421269219368696,-0.03680354729294777
1761371239095259400,6.28625927734375,-0.015271181240677834,-0.007253811229020357,-0.02092151902616024
1761371239113872000,6.304871826171875,-0.020157959312200546,-0.008475505746901035,-0.009315420873463154
1761371239132482800,6.32348291015625,-0.023823043331503868,-0.013973130844533443,0.0035887276753783226
1761371239151095300,6.34209521484375,-0.028098974376916885,-0.0231358390301466,0.02435753494501114
1761371239169706200,6.360706298828125,-0.028098974376916885,-0.015805672854185104,0.03718532621860504
1761371239188318700,6.379318603515625,-0.02504473738372326,-0.012751436792314053,0.03718532621860504
1761371239206929700,6.3979296875,-0.020157959312200546,-0.005421269219368696,0.02557922899723053
1761371239225542100,6.416542236328125,-0.015271181240677834,-0.008475505746901035,0.00786465872079134
1761371239244153000,6.435153076171875,-0.007941014133393764,-0.013973130844533443,-0.008704573847353458
1761371239262765600,6.453765625,-0.006108472589403391,-0.014583977870643139,-0.016034740954637527
1761371239281376500,6.47237646484375,-0.010995250195264816,-0.012140588834881783,-0.008704573847353458
1761371239299989000,6.490989013671875,-0.02076880633831024,-0.018249060958623886,-0.0007635590736754239
1761371239318600000,6.509599853515625,-0.022601349279284477,-0.021914144977927208,-0.0007635590736754239
1761371239337212700,6.528212646484375,-0.007330167107284069,-0.021914144977927208,-0.0038177953101694584
1761371239355823600,6.54682373046875,-0.0018325417768210173,-0.013973130844533443,-0.014813045971095562
1761371239374435800,6.565435791015625,0.0024433890357613564,-0.00786465872079134,-0.02092151902616024
1761371239393047000,6.584047119140625,0.01038440316915512,-0.007253811229020357,-0.008093725889921188
1761371239411659300,6.6026591796875,0.014660334214568138,-0.006032116711139679,0.013973130844533443
1761371239430270500,6.6212705078125,0.01710372418165207,0.006184828467667103,0.015194825828075409
1761371239448882700,6.639882568359375,0.018936265259981155,0.0019088976550847292,0.0029778804164379835
1761371239467494000,6.658493896484375,0.02076880633831024,0.00007635590736754239,-0.013591351918876171
1761371239486106400,6.6771064453125,0.022601349279284477,0.00129805039614439,-0.027029991149902344
1761371239504717300,6.69571728515625,0.023823043331503868,0.012293301522731781,-0.02886253222823143
1761371239523329800,6.714329833984375,0.018936265259981155,0.006184828467667103,-0.02641914412379265
1761371239541940700,6.732940673828125,0.012216945178806782,-0.0017561858985573053,-0.016034740954637527
1761371239560553200,6.75155322265625,0.004275931045413017,0.0019088976550847292,-0.008704573847353458
1761371239579164200,6.7701640625,0.004275931045413017,0.0025197449140250683,0.00786465872079134
1761371239597776600,6.788776611328125,0,0.007406522985547781,0.021303297951817513
1761371239616387600,6.8073876953125,0.0018325417768210173,0.011682453565299511,0.02435753494501114
1761371239635000000,6.826,0.00916270911693573,0.004352286923676729,0.013973130844533443
1761371239653611000,6.844611083984375,0.01588202826678753,-0.0029778804164379835,-0.0038177953101694584
1761371239672223500,6.863223388671875,0.014049487188458443,-0.0035887276753783226,-0.009315420873463154
1761371239690834400,6.88183447265625,0.006719320081174374,-0.0017561858985573053,-0.0032069480512291193
1761371239709447000,6.900447021484375,0.004886778071522713,0.0025197449140250683,0.0035887276753783226
1761371239728057900,6.919057861328125,0.0012216945178806782,0.014736690558493137,0.0011453386396169662
1761371239746670300,6.93767041015625,-0.0006108472589403391,0.01901262067258358,-0.0038177953101694584
1761371239765281300,6.95628125,0.0024433890357613564,0.015347537584602833,-0.0007635590736754239
1761371239783893800,6.974893798828125,0.0006108472589403391,0.009239064529538155,0.00786465872079134
1761371239802504700,6.993504638671875,-0.004275931045413017,0.009849912486970425,0.018249060958623886
1761371239821117200,7.0121171875,-0.009773556143045425,0.018401773646473885,0.020692450925707817
1761371239839728000,7.03072802734375,-0.004886778071522713,0.020845163613557816,0.020692450925707817
1761371239858340600,7.049340576171875,0.007941014133393764,0.025731941685080528,0.013362283818423748
1761371239876951600,7.06795166015625,0.022601349279284477,0.0293970238417387,-0.0038177953101694584
1761371239895564000,7.08656396484375,0.034818295389413834,0.024510245770215988,-0.01175880990922451
1761371239914175000,7.105175048828125,0.0397050715982914,0.023288551717996597,-0.01847812905907631
1761371239932787500,7.123787353515625,0.045202698558568954,0.012293301522731781,-0.010537114925682545
1761371239951398400,7.1423984375,0.03787253051996231,0.005573981441557407,-0.00259610079228878
1761371239970011000,7.161010986328125,0.023823043331503868,0.00129805039614439,-0.0007635590736754239
1761371239988621800,7.179621826171875,0.012216945178806782,-0.0023670331574976444,-0.001374406274408102
1761371240007234300,7.198234375,0.009773556143045425,-0.013973130844533443,0.0011453386396169662
1761371240025845200,7.21684521484375,0,-0.015805672854185104,-0.001985253533348441
1761371240044457700,7.235457763671875,-0.008551862090826035,-0.015194825828075409,0.008475505746901035
1761371240063068700,7.254068603515625,-0.00916270911693573,-0.02557922899723053,0.018249060958623886
1761371240081681200,7.27268115234375,-0.011606098152697086,-0.030466007068753242,0.018249060958623886
1761371240100292000,7.2912919921875,-0.018936265259981155,-0.031076854094862938,0.018249060958623886
1761371240118904600,7.309904541015625,-0.022601349279284477,-0.022524992004036903,0.019470756873488426
1761371240137515500,7.328515625,-0.02748812735080719,-0.015194825828075409,0.018249060958623886
1761371240156128000,7.3471279296875,-0.02504473738372326,-0.010918894782662392,0.01763821393251419
1761371240174739000,7.365739013671875,-0.021379653364419937,-0.018249060958623886,0.02008160389959812
1761371240193351400,7.384351318359375,-0.017714571207761765,-0.021914144977927208,0.022524992004036903
1761371240211962400,7.40296240234375,-0.011606098152697086,-0.013362283818423748,0.021914144977927208
1761371240230574800,7.421574951171875,-0.0018325417768210173,-0.004199574701488018,0.021303297951817513
1761371240249185800,7.440185791015625,0.0012216945178806782,0.007406522985547781,0.012751436792314053
1761371240267798300,7.45879833984375,0.005497625097632408,0.00862821750342846,0.0035887276753783226
1761371240286409200,7.4774091796875,0.0012216945178806782,0.0031305921729654074,0.004810422193259001
1761371240305021700,7.496021728515625,-0.008551862090826035,0.000687203137204051,0.010918894782662392
1761371240323632600,7.514632568359375,-0.01588202826678753,0.008017370477318764,0.014583977870643139
1761371240342245000,7.5332451171875,-0.006108472589403391,0.015347537584602833,0.01885990984737873
1761371240360856000,7.55185595703125,0.01038440316915512,0.02817532978951931,0.019470756873488426
1761371240379468500,7.570468505859375,0.010995250195264816,0.03367295488715172,0.010308047756552696
1761371240398079500,7.58907958984375,0.008551862090826035,0.03489464893937111,-0.001985253533348441
1761371240416692000,7.60769189453125,0.012216945178806782,0.02695363573729992,-0.016645587980747223
1761371240435303000,7.626302978515625,0.018936265259981155,0.013514995574951172,-0.024586603045463562
1761371240453915400,7.644915283203125,0.016492875292897224,0.014125842601060867,-0.02214321307837963
1761371240472526300,7.6635263671875,0.013438640162348747,0.014125842601060867,0.0005344913806766272
1761371240491138800,7.682138916015625,0.0030542362947016954,0.020845163613557816,0.021914144977927208
1761371240509749800,7.700749755859375,-0.006108472589403391,0.02695363573729992,0.021303297951817513
1761371240528362200,7.7193623046875,-0.004275931045413017,0.018401773646473885,0.014583977870643139
1761371240546973200,7.73797314453125,0.006108472589403391,0.0067956759594380856,0.012751436792314053
1761371240565585700,7.756585693359375,0.007941014133393764,0.004963133949786425,0.0029778804164379835
1761371240584196600,7.775196533203125,0.0030542362947016954,0.009849912486970425,-0.00015271181473508477
1761371240602809000,7.79380908203125,-0.0006108472589403391,0.009239064529538155,0.008475505746901035
1761371240621420000,7.812419921875,-0.0018325417768210173,0.009239064529538155,0.011529741808772087
1761371240640032500,7.831032470703125,0.0012216945178806782,0.011682453565299511,0.0035887276753783226
1761371240658643500,7.8496435546875,0.006719320081174374,0.0037414394319057465,-0.00015271181473508477
1761371240677256000,7.868255859375,0.005497625097632408,-0.0023670331574976444,-0.0068720318377017975
1761371240695867000,7.886866943359375,0.0024433890357613564,-0.008475505746901035,-0.013591351918876171
1761371240714479400,7.905479248046875,0.0036650835536420345,-0.015805672854185104,-0.008093725889921188
1761371240733090300,7.92409033203125,-0.0012216945178806782,-0.021914144977927208,-0.006261184345930815
1761371240751703000,7.942703125,-0.010995250195264816,-0.013362283818423748,0.0023670331574976444
1761371240770313700,7.961313720703125,-0.015271181240677834,-0.006032116711139679,0.0164165198802948
1761371240788926500,7.979926513671875,-0.008551862090826035,-0.006032116711139679,0.019470756873488426
1761371240807537400,7.998537353515625,-0.004886778071522713,-0.011529741808772087,0.00908635277301073
1761371240826149600,8.017149658203126,-0.009773556143045425,-0.014583977870643139,-0.009315420873463154
1761371240844760800,8.0357607421875,-0.017714571207761765,-0.01885990984737873,-0.016034740954637527
1761371240863373000,8.054373046875,-0.02748812735080719,-0.012751436792314053,-0.00992626789957285
1761371240881984300,8.072984375,-0.031153209507465363,-0.00786465872079134,0.007253811229020357
1761371240900596700,8.0915966796875,-0.033596597611904144,-0.012140588834881783,0.012140588834881783
1761371240919207700,8.110207763671875,-0.03787253051996231,-0.019470756873488426,0.0017561858985573053
1761371240937820200,8.128820068359374,-0.046424392610788345,-0.031076854094862938,-0.014202198944985867
1761371240956431000,8.14743115234375,-0.054365407675504684,-0.03229855000972748,-0.02214321307837963
1761371240975043600,8.166043701171875,-0.0653606578707695,-0.03718532621860504,-0.016645587980747223
1761371240993654500,8.184654541015625,-0.07635590434074402,-0.03901786729693413,-0.012980503961443901
1761371241012267000,8.20326708984375,-0.07269082218408585,-0.04818057641386986,-0.008704573847353458
1761371241030878000,8.2218779296875,-0.06169557198882103,-0.045737188309431076,-0.01725643500685692
1761371241049490400,8.240490478515625,-0.051922015845775604,-0.04023956134915352,-0.022754060104489326
1761371241068101400,8.259101318359376,-0.04459185153245926,-0.031076854094862938,-0.017867282032966614
1761371241086713900,8.2777138671875,-0.033596597611904144,-0.0164165198802948,-0.0038177953101694584
1761371241105324800,8.29632470703125,-0.02748812735080719,0.00862821750342846,0.005421269219368696
1761371241123937300,8.314937255859375,-0.023823043331503868,0.022066857665777206,0.011529741808772087
1761371241142548200,8.33354833984375,-0.015271181240677834,0.023899398744106293,0.015805672854185104
1761371241161160700,8.35216064453125,-0.006719320081174374,0.015958385542035103,0.013973130844533443
1761371241179771600,8.370771728515624,-0.0012216945178806782,0.012904148548841476,-0.005650337319821119
1761371241198384000,8.389384033203125,0.007330167107284069,0.00862821750342846,-0.016034740954637527
1761371241216995000,8.4079951171875,0.010995250195264816,0.0031305921729654074,-0.011147962883114815
1761371241235607600,8.426607666015625,0.0012216945178806782,-0.0005344913806766272,-0.014202198944985867
1761371241254218500,8.445218505859375,-0.0030542362947016954,-0.009697199799120426,-0.01969982497394085
1761371241272831000,8.4638310546875,0.0018325417768210173,-0.013362283818423748,-0.019088976085186005
1761371241291442000,8.48244189453125,0.006108472589403391,-0.01885990984737873,-0.01847812905907631
1761371241310054400,8.501054443359376,0.0030542362947016954,-0.013973130844533443,-0.015423892997205257
1761371241328665300,8.519665283203125,-0.006719320081174374,-0.013362283818423748,-0.009315420873463154
1761371241347277800,8.53827783203125,-0.007941014133393764,-0.018249060958623886,-0.00259610079228878
1761371241365888800,8.556888671875,0.0036650835536420345,-0.020692450925707817,-0.007482878863811493
1761371241384501200,8.575501220703124,0.014049487188458443,-0.021303297951817513,-0.009315420873463154
1761371241403112200,8.5941123046875,0.014049487188458443,-0.012140588834881783,-0.017867282032966614
1761371241421724700,8.612724609375,0.010995250195264816,-0.00908635277301073,-0.019088976085186005
1761371241440335600,8.631335693359375,0.014049487188458443,0.0031305921729654074,-0.022754060104489326
1761371241458948000,8.649947998046875,0.02504473738372326,-0.004199574701488018,-0.030695075169205666
1761371241477559000,8.66855908203125,0.03237490355968475,-0.015194825828075409,-0.03680354729294777
1761371241496171500,8.687171630859375,0.03237490355968475,-0.0164165198802948,-0.037414394319057465
1761371241514782500,8.705782470703125,0.02076880633831024,-0.028633465990424156,-0.03130592033267021
1761371241533395000,8.72439501953125,0.013438640162348747,-0.023746687918901443,-0.03497100621461868
1761371241552006000,8.743005859375,0.012216945178806782,-0.014583977870643139,-0.0325276181101799
1761371241570618400,8.761618408203125,0.013438640162348747,-0.028633465990424156,-0.02092151902616024
1761371241589229300,8.780229248046876,0.004886778071522713,-0.0420721061527729,-0.013591351918876171
1761371241607841800,8.798841796875,-0.0012216945178806782,-0.03352024406194687,-0.02214321307837963
1761371241626452700,8.81745263671875,0.004275931045413017,-0.023746687918901443,-0.01969982497394085
1761371241645065200,8.836065185546875,0.0030542362947016954,-0.027411770075559616,-0.004428642801940441
1761371241663676200,8.85467626953125,0.004275931045413017,-0.02557922899723053,-0.00259610079228878
1761371241682288600,8.87328857421875,0.013438640162348747,-0.013973130844533443,-0.022754060104489326
1761371241700899600,8.891899658203124,0.025655584409832954,-0.018249060958623886,-0.03374931216239929
1761371241719512000,8.910511962890626,0.026877280324697495,-0.03718532621860504,-0.037414394319057465
1761371241738123000,8.929123046875,0.02870982140302658,-0.04146125912666321,-0.02886253222823143
1761371241756735500,8.947735595703126,0.023212196305394173,-0.04879142343997955,-0.02764083817601204
1761371241775346400,8.966346435546875,0.021379653364419937,-0.052456509321928024,-0.03436015918850899
1761371241793959000,8.984958984375,0.04031591862440109,-0.07200361788272858,-0.01847812905907631
1761371241812569900,9.00356982421875,0.045202698558568954,-0.11231953650712967,0.0035887276753783226
1761371241831182300,9.022182373046874,0.056808795779943466,-0.11354123055934906,0.007253811229020357
1761371241849793300,9.040793212890625,0.06902574002742767,-0.09949174523353577,0.004199574701488018
1761371241868405800,9.05940576171875,0.07024743407964706,-0.07627955079078674,0.004199574701488018
1761371241887016700,9.0780166015625,0.0794101431965828,-0.0683385357260704,-0.0007635590736754239
1761371241905629200,9.096629150390624,0.09284878522157669,-0.06589514762163162,-0.016645587980747223
1761371241924240100,9.115240234375,0.06780404597520828,-0.04023956134915352,-0.02764083817601204
1761371241942852600,9.1338525390625,0.03237490355968475,-0.006032116711139679,-0.03802524134516716
1761371241961463600,9.152463623046875,0.018936265259981155,0.019623467698693275,-0.03680354729294777
1761371241980076000,9.171075927734375,0.013438640162348747,0.02817532978951931,-0.02764083817601204
1761371241998687000,9.18968701171875,0.022601349279284477,0.0165692325681448,-0.025808297097682953
1761371242017299500,9.208299560546875,0.026877280324697495,0.015958385542035103,-0.02092151902616024
1761371242035910400,9.226910400390626,0.031153209507465363,0.01779092662036419,-0.012369656935334206
1761371242054523000,9.24552294921875,0.03542914241552353,0.026342788711190224,0.006642963737249374
1761371242073133800,9.2641337890625,0.037261683493852615,0.0361163429915905,0.01885990984737873
1761371242091746300,9.282746337890625,0.04459185153245926,0.035505495965480804,0.026190076023340225
1761371242110357200,9.301357177734374,0.04825693368911743,0.027564482763409615,0.022524992004036903
1761371242128969700,9.3199697265625,0.047646086663007736,0.030007870867848396,0.018249060958623886
1761371242147580700,9.33858056640625,0.03665083646774292,0.03061871975660324,0.0029778804164379835
1761371242175498200,9.366498291015626,0.030542362481355667,0.017180079594254494,-0.016034740954637527
1761371242194110700,9.38511083984375,0.02626643143594265,0.0037414394319057465,-0.01175880990922451
1761371242212721700,9.4037216796875,0.017714571207761765,0.004963133949786425,-0.00992626789957285
1761371242231334100,9.422334228515625,0.012827792204916477,0.007406522985547781,-0.021532366052269936
1761371242249945000,9.440945068359374,0.010995250195264816,0.0067956759594380856,-0.02886253222823143
1761371242268557600,9.4595576171875,0.01038440316915512,-0.010918894782662392,-0.020310672000050545
1761371242287168500,9.47816845703125,0.004275931045413017,-0.00908635277301073,-0.01725643500685692
1761371242305781000,9.496781005859376,-0.0024433890357613564,0.0025197449140250683,-0.010537114925682545
1761371242324392000,9.515391845703125,-0.009773556143045425,0.012293301522731781,-0.006261184345930815
1761371242343004400,9.53400439453125,-0.004275931045413017,0.0037414394319057465,0.007253811229020357
1761371242361615400,9.552615478515625,0.0030542362947016954,-0.0029778804164379835,0.012140588834881783
1761371242380227800,9.571227783203126,0.012827792204916477,0.006184828467667103,-0.0007635590736754239
1761371242398838800,9.5898388671875,0.014660334214568138,0.011071606539189816,-0.01847812905907631
1761371242417451300,9.608451171875,0.01588202826678753,0.011682453565299511,-0.02886253222823143
1761371242436062200,9.627062255859375,0.011606098152697086,0.009849912486970425,-0.03558185324072838
1761371242454674700,9.6456748046875,0.007941014133393764,0.005573981441557407,-0.021532366052269936
1761371242473285600,9.66428564453125,0,0.0025197449140250683,-0.00992626789957285
1761371242491898000,9.682898193359375,-0.007330167107284069,0.0025197449140250683,-0.00992626789957285
1761371242510509000,9.701509033203125,-0.007941014133393764,0.009239064529538155,-0.01175880990922451
1761371242529121500,9.72012158203125,-0.012216945178806782,-0.0011453386396169662,-0.0032069480512291193
1761371242547732500,9.738732421875,-0.009773556143045425,-0.0011453386396169662,0.005421269219368696
1761371242566345000,9.757344970703125,-0.006719320081174374,-0.0005344913806766272,0.00908635277301073
1761371242584956000,9.775955810546876,0.007941014133393764,-0.0023670331574976444,0.00908635277301073
1761371242603568400,9.794568359375,0.01588202826678753,-0.0029778804164379835,0.004199574701488018
1761371242622179300,9.813179443359376,0.017714571207761765,-0.0029778804164379835,0.0005344913806766272
1761371242640791800,9.831791748046875,0.012216945178806782,-0.006032116711139679,-0.001374406274408102
1761371242659402800,9.85040283203125,0.007330167107284069,-0.0017561858985573053,0.0017561858985573053
1761371242678015200,9.86901513671875,0.007941014133393764,-0.0011453386396169662,-0.0050394898280501366
1761371242696626200,9.887626220703124,0.006719320081174374,-0.005421269219368696,-0.010537114925682545
1761371242715238700,9.90623876953125,0.0030542362947016954,-0.0017561858985573053,-0.0050394898280501366
1761371242733849600,9.924849609375,0.004275931045413017,-0.004199574701488018,0.004810422193259001
1761371242752462000,9.943462158203126,0.004275931045413017,-0.004199574701488018,0.0017561858985573053
1761371242771073000,9.962072998046875,0.0030542362947016954,-0.00908635277301073,-0.004428642801940441
1761371242789685500,9.980685546875,0.0012216945178806782,-0.012140588834881783,-0.0050394898280501366
1761371242808296400,9.99929638671875,0.0030542362947016954,-0.01763821393251419,-0.005650337319821119
1761371242826909000,10.017908935546876,-0.004275931045413017,-0.013362283818423748,-0.0068720318377017975
1761371242845520000,10.036519775390625,-0.007941014133393764,-0.012751436792314053,-0.011147962883114815
1761371242864132400,10.05513232421875,-0.0036650835536420345,-0.01763821393251419,-0.009315420873463154
1761371242882743300,10.073743408203125,0.0012216945178806782,-0.015194825828075409,-0.012980503961443901
1761371242901355800,10.092355712890624,0.007941014133393764,-0.005421269219368696,-0.019088976085186005
1761371242919966700,10.110966796875,0.01588202826678753,0.0019088976550847292,-0.011147962883114815
1761371242938579200,10.1295791015625,0.018936265259981155,0.004352286923676729,0.0017561858985573053
1761371242957190100,10.148190185546875,0.015271181240677834,0.009849912486970425,0.006032116711139679
1761371242975802600,10.166802734375,0.01588202826678753,0.014125842601060867,0.004199574701488018
1761371242994413600,10.18541357421875,0.014049487188458443,0.014736690558493137,-0.0032069480512291193
1761371243013026000,10.204026123046875,0.012216945178806782,0.014736690558493137,-0.007482878863811493
1761371243031637000,10.222636962890626,0.0036650835536420345,0.01046075951308012,-0.0007635590736754239
1761371243050249500,10.24124951171875,-0.0018325417768210173,0.0067956759594380856,-0.00015271181473508477
1761371243068860400,10.2598603515625,-0.007330167107284069,0.00129805039614439,-0.005650337319821119
1761371243087473000,10.278472900390625,-0.012216945178806782,0.004963133949786425,-0.014202198944985867
1761371243106083800,10.297083740234376,-0.012827792204916477,0.012904148548841476,-0.019088976085186005
1761371243124696300,10.3156962890625,-0.012216945178806782,0.018401773646473885,-0.008093725889921188
1761371243143307300,10.334307373046874,-0.007941014133393764,0.015347537584602833,0.007253811229020357
1761371243161919700,10.352919677734375,-0.0006108472589403391,0.0067956759594380856,0.017027366906404495
1761371243180530700,10.37153076171875,0.007330167107284069,0.004352286923676729,0.012751436792314053
1761371243199143200,10.39014306640625,0.011606098152697086,0.006184828467667103,0.0005344913806766272
1761371243217754000,10.408754150390624,0.00916270911693573,0.007406522985547781,-0.01175880990922451
1761371243245672400,10.43667236328125,0.0024433890357613564,0.00129805039614439,0.0023670331574976444
1761371243264283400,10.455283447265625,0.0036650835536420345,0.00129805039614439,0.010308047756552696
1761371243282896000,10.473895751953124,0.00916270911693573,0.004963133949786425,0.00786465872079134
1761371243301506800,10.4925068359375,0.008551862090826035,0.00129805039614439,0.012751436792314053
1761371243320119300,10.511119384765625,0.006719320081174374,-0.005421269219368696,0.014583977870643139
1761371243338730200,10.529730224609375,0.01038440316915512,-0.011529741808772087,0.006642963737249374
1761371243357342700,10.5483427734375,0.004275931045413017,-0.010308047756552696,-0.00259610079228878
1761371243375953700,10.56695361328125,0,-0.008475505746901035,0.0011453386396169662
1761371243394566100,10.585566162109375,0.0012216945178806782,-0.013362283818423748,0.006642963737249374
1761371243413177000,10.604177001953126,0.0018325417768210173,-0.0164165198802948,0.00908635277301073
1761371243431789600,10.62278955078125,0.0012216945178806782,-0.019470756873488426,0.018249060958623886
1761371243450400500,10.641400390625,-0.0012216945178806782,-0.017027366906404495,0.019470756873488426
1761371243469013000,10.660012939453125,-0.004886778071522713,-0.010918894782662392,0.020692450925707817
1761371243487624000,10.6786240234375,-0.006719320081174374,-0.006032116711139679,0.013362283818423748
1761371243506236400,10.697236328125,-0.0024433890357613564,-0.0023670331574976444,0.010308047756552696
1761371243524847400,10.715847412109374,0.004275931045413017,-0.0023670331574976444,-0.001985253533348441
1761371243543459800,10.7344599609375,0.014049487188458443,0.009849912486970425,-0.011147962883114815
1761371243562070800,10.75307080078125,0.02076880633831024,0.00129805039614439,-0.008704573847353458
1761371243580683300,10.771683349609376,0.031153209507465363,-0.021303297951817513,-0.01725643500685692
1761371243599294200,10.790294189453125,0.028098974376916885,-0.012751436792314053,-0.030695075169205666
1761371243617906700,10.80890673828125,0.017714571207761765,0.004352286923676729,-0.020310672000050545
1761371243636517600,10.827517578125,0.0024433890357613564,0.022066857665777206,0.007253811229020357
1761371243655130000,10.846130126953126,-0.0018325417768210173,0.035505495965480804,0.029855160042643547
1761371243673741000,10.864740966796875,0.0024433890357613564,0.027564482763409615,0.021914144977927208
