time,seconds_elapsed,z,y,x
1761370309060285700,0.11528564453125,-0.006719320081174374,0.06788039952516556,0.06100837141275406
1761370309078896000,0.133896240234375,-0.025655584409832954,0.10514208674430847,0.022524992004036903
1761370309097508000,0.152508056640625,-0.03665083646774292,0.09659022092819214,0.008475505746901035
1761370309116118500,0.171118408203125,-0.0390942245721817,0.03978142887353897,0.04146125912666321
1761370309134730500,0.18973046875,-0.04031591862440109,-0.031076854094862938,0.07689040154218674
1761370309153340700,0.208340576171875,-0.033596597611904144,-0.05673243850469589,0.08544225990772247
1761370309171952600,0.22695263671875,-0.022601349279284477,-0.04756972938776016,0.07261446863412857
1761370309190563000,0.24556298828125,-0.012216945178806782,-0.04818057641386986,0.04634803533554077
1761370309209175000,0.264175048828125,-0.004886778071522713,-0.02680092304944992,0.02680092304944992
1761370309227785500,0.282785400390625,-0.0018325417768210173,-0.02924431301653385,0.02924431301653385
1761370309246397400,0.3013974609375,-0.006719320081174374,-0.035352785140275955,0.03718532621860504
1761370309265007600,0.320007568359375,-0.01710372418165207,-0.044515494257211685,0.04512634128332138
1761370309283619600,0.33861962890625,-0.02504473738372326,-0.05184566229581833,0.05306735634803772
1761370309302230000,0.35722998046875,-0.03665083646774292,-0.06100837141275406,0.053678203374147415
1761370309320842000,0.375842041015625,-0.036039989441633224,-0.06650599837303162,0.043293800204992294
1761370309339452400,0.394452392578125,-0.04153761267662048,-0.0231358390301466,0.05856497958302498
1761370309358064000,0.413064208984375,-0.04581354558467865,-0.020692450925707817,0.06345175951719284
1761370309376674600,0.431674560546875,-0.045202698558568954,-0.021914144977927208,0.04634803533554077
1761370309395286500,0.45028662109375,-0.05131116881966591,-0.012751436792314053,0.03352024406194687
1761370309413897000,0.46889697265625,-0.04337015375494957,0.00007635590736754239,0.021914144977927208
1761370309432509000,0.487509033203125,-0.034818295389413834,0.008017370477318764,0.015194825828075409
1761370309451119000,0.506119140625,-0.03237490355968475,-0.006642963737249374,0.012140588834881783
1761370309469731300,0.5247314453125,-0.03176405653357506,-0.008475505746901035,0.006642963737249374
1761370309488341500,0.543341552734375,-0.03787253051996231,0.015347537584602833,-0.0032069480512291193
1761370309506953500,0.561953369140625,-0.04031591862440109,0.049554985016584396,-0.014202198944985867
1761370309525564000,0.58056396484375,-0.04214845970273018,0.06910209357738495,-0.02214321307837963
1761370309544175900,0.59917578125,-0.05008947476744652,0.05566345527768135,-0.031916771084070206
1761370309562786000,0.6177861328125,-0.05375456064939499,0.036727190017700195,-0.037414394319057465
1761370309581398000,0.63639794921875,-0.05497625470161438,0.035505495965480804,-0.036192700266838074
1761370309600008400,0.655008544921875,-0.04459185153245926,0.034283801913261414,-0.04718795046210289
1761370309618620400,0.673620361328125,-0.02626643143594265,0.05199837312102318,-0.054518118500709534
1761370309637230800,0.69223095703125,-0.016492875292897224,0.047111593186855316,-0.055739812552928925
1761370309655842800,0.7108427734375,-0.010995250195264816,0.03306210786104202,-0.06306997686624527
1761370309674453200,0.729453369140625,-0.007330167107284069,0.014736690558493137,-0.06978929787874222
1761370309693065000,0.74806494140625,0.006719320081174374,0.008017370477318764,-0.072843536734581
1761370309711675400,0.76667529296875,0.026877280324697495,-0.00908635277301073,-0.056961506605148315
1761370309730287400,0.785287353515625,0.010995250195264816,0.004963133949786425,-0.02092151902616024
1761370309748897800,0.803897705078125,0.023823043331503868,-0.008475505746901035,0.012140588834881783
1761370309767509800,0.822509765625,0.030542362481355667,0.0019088976550847292,0.02680092304944992
1761370309786120000,0.841119873046875,0.02504473738372326,0.011682453565299511,0.0164165198802948
1761370309804732200,0.859732177734375,0.018936265259981155,0.03978142887353897,0.006032116711139679
1761370309823342300,0.87834228515625,0.021990500390529633,0.035505495965480804,-0.001985253533348441
1761370309841954300,0.896954345703125,0.02993151545524597,0.03855973482131958,0.0005344913806766272
1761370309860564700,0.915564697265625,0.02748812735080719,0.04161396995186806,-0.00015271181473508477
1761370309879176700,0.9341767578125,0.02626643143594265,0.03061871975660324,-0.016645587980747223
1761370309897787100,0.952787109375,0.028098974376916885,0.03061871975660324,-0.029473381116986275
1761370309916398800,0.97139892578125,0.02504473738372326,0.047111593186855316,-0.016645587980747223
1761370309935009300,0.99000927734375,0.023212196305394173,0.06971294432878494,0.007253811229020357
1761370309953621200,1.008621337890625,0.015271181240677834,0.13140851259231567,-0.014813045971095562
1761370309972231700,1.027231689453125,0.01588202826678753,0.1918824017047882,-0.08261708915233612
1761370309990843600,1.04584375,0.012827792204916477,0.24136102199554443,-0.14309096336364746
1761370310009454000,1.0644541015625,0.0018325417768210173,0.24136102199554443,-0.15530791878700256
1761370310028066000,1.083066162109375,-0.007941014133393764,0.2181488275527954,-0.1498102843761444
1761370310046676200,1.10167626953125,-0.029320668429136276,0.18577392399311066,-0.16019469499588013
1761370310065288200,1.1202880859375,-0.051922015845775604,0.18760646879673004,-0.16935740411281586
1761370310083898600,1.138898681640625,-0.07024743407964706,0.246247798204422,-0.13026317954063416
1761370310102510600,1.157510498046875,-0.08063183724880219,0.2578538954257965,-0.09605573117733002
1761370310121121000,1.17612109375,-0.06291726976633072,0.2725142240524292,-0.08017370104789734
1761370310139733000,1.19473291015625,-0.005497625097632408,0.29267218708992004,-0.046577103435993195
1761370310158343200,1.21334326171875,0.0787992998957634,0.3091650605201721,0.0005344913806766272
1761370310176955100,1.231955078125,0.13499724864959717,0.18516308069229126,-0.00015271181473508477
1761370310195565600,1.250565673828125,0.18875180184841156,0.022066857665777206,-0.015423892997205257
1761370310214177500,1.269177490234375,0.2089097648859024,-0.034131091088056564,-0.09177979826927185
1761370310232788000,1.2877880859375,0.2089097648859024,0.0019088976550847292,-0.19745637476444244
1761370310251400000,1.30639990234375,0.18019993603229523,0.10330954194068909,-0.3336753249168396
1761370310270010400,1.32501025390625,0.21257483959197998,0.1680593490600586,-0.46867257356643677
1761370310288622300,1.343622314453125,0.38483378291130066,0.34581589698791504,-0.5444176197052002
1761370310307232500,1.362232421875,0.5913001298904419,0.7581378221511841,-0.49982577562332153
1761370310325844500,1.380844482421875,0.7037724256515503,1.0360733270645142,-0.42102646827697754
1761370310344455000,1.399454833984375,0.7282062768936157,1.1020448207855225,-0.2725905776023865
1761370310363067000,1.41806689453125,0.6793385148048401,1.136863112449646,-0.05024218559265137
1761370310381677300,1.43667724609375,0.6316924095153809,0.7288171648979187,0.17951273918151855
1761370310400289300,1.455289306640625,0.6439093947410583,-0.02924431301653385,0.3438306450843811
1761370310418899700,1.473899658203125,0.5925218462944031,-0.6590278148651123,0.3444415032863617
1761370310437511700,1.49251171875,0.49417543411254883,-0.9595646858215332,0.20272493362426758
1761370310456121900,1.511121826171875,0.38483378291130066,-1.1831347942352295,0.04023956134915352
1761370310474733800,1.52973388671875,0.30725616216659546,-1.1159416437149048,0.035352785140275955
1761370310493344300,1.54834423828125,0.06658235192298889,-1.1244934797286987,0.12881241738796234
1761370310511956200,1.566956298828125,-0.0653606578707695,-0.7469898462295532,0.2247154414653778
1761370310530566700,1.585566650390625,-0.09651386737823486,-0.18439951539039612,0.2259371280670166
1761370310549178600,1.6041787109375,-0.08307522535324097,0.3494809865951538,0.15691138803958893
1761370310567788800,1.622788818359375,-0.05741964280605316,0.9554414749145508,0.05673243850469589
1761370310586400800,1.64140087890625,-0.05925218388438225,1.5364335775375366,-0.09177979826927185
1761370310605011200,1.66001123046875,0.037261683493852615,1.7422890663146973,-0.3104631304740906
1761370310623623200,1.678623046875,0.1588202863931656,1.5003936290740967,-0.5083776116371155
1761370310642233600,1.697233642578125,0.2626643180847168,1.204743504524231,-0.5963396430015564
1761370310660845600,1.715845458984375,0.2510582208633423,1.1118183135986328,-0.6574243903160095
1761370310679456000,1.7344560546875,0.09834641218185425,0.7031615376472473,-0.6598677635192871
1761370310698068000,1.75306787109375,-0.16309621930122375,0.14912308752536774,-0.4760027229785919
1761370310716678100,1.77167822265625,-0.46851983666419983,-0.22899135947227478,-0.11315945535898209
1761370310735290000,1.7902900390625,-0.7226322889328003,-0.44156619906425476,0.20455747842788696
1761370310753900500,1.808900634765625,-0.7959339618682861,-0.5454102754592896,0.278469979763031
1761370310772512500,1.827512451171875,-0.6731536984443665,-0.5576272010803223,0.1605764776468277
1761370310791123000,1.846123046875,-0.527161180973053,-0.45439401268959045,-0.03130592033267021
1761370310809735000,1.86473486328125,-0.446529358625412,-0.334057092666626,-0.17363333702087402
1761370310828345300,1.883345458984375,-0.4190412163734436,-0.2546469569206238,-0.18768282234668732
1761370310846957300,1.901957275390625,-0.39766156673431396,-0.13797512650489807,-0.07589777559041977
1761370310865567500,1.9205673828125,-0.3286358118057251,-0.09888090193271637,0.08849649876356125
1761370310884179700,1.9391796875,-0.2113531529903412,-0.12942326068878174,0.28396761417388916
1761370310902790000,1.957789794921875,-0.09468132257461548,-0.12759071588516235,0.436068594455719
1761370310921401900,1.97640185546875,0.07513421028852463,-0.08360971510410309,0.4886014461517334
1761370310940012300,1.99501220703125,0.2516690790653229,-0.09765920788049698,0.406137079000473
1761370310958624300,2.013624267578125,0.3042019307613373,-0.19111883640289307,0.24365170300006866
1761370310977234700,2.032234619140625,0.2516690790653229,-0.2656421959400177,0.10437852889299393
1761370310995846700,2.0508466796875,0.17897824943065643,-0.278469979763031,-0.009315420873463154
1761370311014456800,2.069456787109375,0.15393351018428802,-0.23448899388313293,-0.12293300777673721
1761370311033068800,2.08806884765625,0.21440738439559937,-0.14469444751739502,-0.23471805453300476
1761370311051679200,2.10667919921875,0.3384093940258026,0.015958385542035103,-0.333064466714859
1761370311070291200,2.125291259765625,0.4819584786891937,0.20043425261974335,-0.3972034156322479
1761370311088901600,2.143901611328125,0.6084802150726318,0.28106608986854553,-0.4124746024608612
1761370311107513600,2.162513671875,0.6610130667686462,0.2737359404563904,-0.386208176612854
1761370311126124000,2.1811240234375,0.6365792155265808,0.21692712604999542,-0.305576354265213
1761370311144736000,2.199736083984375,0.5845808386802673,0.08559497445821762,-0.2011214643716812
1761370311163346400,2.218346435546875,0.5479300022125244,-0.05673243850469589,-0.09972081333398819
1761370311181958400,2.23695849609375,0.5173876285552979,-0.11842801421880722,-0.024586603045463562
1761370311200568600,2.255568603515625,0.5112791657447815,-0.1361425817012787,-0.036192700266838074
1761370311219180500,2.2741806640625,0.5412106513977051,-0.13003410398960114,-0.08689302206039429
1761370311237791000,2.292791015625,0.5613686442375183,-0.0958266630768776,-0.12232216447591782
1761370311256403000,2.31140283203125,0.5650337338447571,-0.0426829531788826,-0.10521844029426575
1761370311275013400,2.330013427734375,0.5528167486190796,-0.00908635277301073,-0.0594048947095871
1761370311293625300,2.348625244140625,0.5338805317878723,0.037948887795209885,-0.016645587980747223
1761370311312235500,2.367235595703125,0.5247178077697754,0.11002886295318604,-0.001985253533348441
1761370311330847500,2.385847412109375,0.5155550837516785,0.18394137918949127,0.0035887276753783226
1761370311349458000,2.4044580078125,0.5008947253227234,0.24930204451084137,0.0164165198802948
1761370311368070000,2.42306982421875,0.4844018816947937,0.2737359404563904,0.02435753494501114
1761370311386680300,2.441680419921875,0.4679090082645416,0.26396235823631287,0.02802261710166931
1761370311405292300,2.460292236328125,0.42881476879119873,0.24380441009998322,0.03901786729693413
1761370311423902700,2.47890283203125,0.36162158846855164,0.2554105222225189,0.07383616268634796
1761370311442514700,2.4975146484375,0.30481278896331787,0.3000023663043976,0.11109784245491028
1761370311461125000,2.516125,0.30847787857055664,0.3079433739185333,0.1214822456240654
1761370311479737000,2.534737060546875,0.3689517378807068,0.2688491642475128,0.12636902928352356
1761370311498347300,2.55334716796875,0.4727957844734192,0.22792237997055054,0.1617981642484665
1761370311516959200,2.571959228515625,0.6072585582733154,0.2071535736322403,0.2387649267911911
1761370311535569700,2.590569580078125,0.7489750981330872,0.19127154350280762,0.35177165269851685
1761370311554181600,2.609181640625,0.8784747123718262,0.22853323817253113,0.48371466994285583
1761370311572792000,2.6277919921875,1.012250304222107,0.31527355313301086,0.5686224699020386
1761370311591404000,2.646404052734375,1.1448041200637817,0.21448373794555664,0.5209763646125793
1761370311610014200,2.66501416015625,1.2119972705841064,-0.06528430432081223,0.3438306450843811
1761370311628626400,2.68362646484375,1.1301437616348267,-0.4232407808303833,0.09827005118131638
1761370311647236600,2.702236572265625,0.9542197585105896,-0.7195017337799072,-0.08322793990373611
1761370311665848600,2.7208486328125,0.7746306657791138,-0.7628718614578247,-0.05757235363125801
1761370311684459000,2.739458984375,0.609701931476593,-0.35177165269851685,0.14164020121097565
1761370311703071000,2.758071044921875,0.6170321106910706,0.38552096486091614,0.3951418101787567
1761370311721681400,2.776681396484375,0.7776849269866943,1.084941029548645,0.5069268941879272
1761370311740293400,2.79529345703125,0.951776385307312,1.4729053974151611,0.3670428395271301
1761370311758903800,2.81390380859375,1.0953254699707031,1.4839006662368774,0.027411770075559616
1761370311777515800,2.832515869140625,1.136863112449646,1.191839337348938,-0.39598172903060913
1761370311796126000,2.8511259765625,1.0360733270645142,0.7886801958084106,-0.7270609736442566
1761370311814738000,2.869738037109375,0.8277744054794312,0.43744298815727234,-0.8773293495178223
1761370311833348400,2.888348388671875,0.6310815811157227,0.25479966402053833,-0.8614473342895508
1761370311851960300,2.906960205078125,0.4575245976448059,0.09353598952293396,-0.7966975569725037
1761370311870570800,2.92557080078125,0.32069480419158936,-0.17645850777626038,-0.7960866689682007
1761370311889182700,2.9441826171875,0.22479179501533508,-0.4342360496520996,-0.8382351398468018
1761370311907793000,2.96279296875,0.20219044387340546,-0.45500484108924866,-0.8266290426254272
1761370311926405000,2.981405029296875,0.3151971995830536,-0.12636902928352356,-0.7380561828613281
1761370311945015300,3.000015380859375,0.5803049206733704,0.36047622561454773,-0.62627112865448
1761370311963627300,3.018627197265625,0.8839723467826843,0.7184327244758606,-0.5609105229377747
1761370311982237700,3.03723779296875,1.0837193727493286,0.7080483436584473,-0.5590779781341553
1761370312000849700,3.055849609375,1.0666157007217407,0.6555154919624329,-0.5309789776802063
1761370312019460000,3.074460205078125,0.8998543620109558,0.7691330313682556,-0.47233763337135315
1761370312038072000,3.093072021484375,0.711713433265686,0.8100598454475403,-0.4509579837322235
1761370312056682500,3.1116826171875,0.5253286361694336,0.7880693078041077,-0.47172680497169495
1761370312075294500,3.13029443359375,0.33474430441856384,0.7422557473182678,-0.5212054252624512
1761370312093904600,3.148904541015625,0.16431790590286255,0.6213080286979675,-0.5908420085906982
1761370312112516600,3.1675166015625,0.006108472589403391,0.4435514807701111,-0.6378772258758545
1761370312131127000,3.186126953125,-0.13805148005485535,0.3128301501274109,-0.6207735538482666
1761370312149739000,3.204739013671875,-0.22479179501533508,0.21204034984111786,-0.5395308136940002
1761370312168349400,3.223349365234375,-0.24250635504722595,0.12346750497817993,-0.40331190824508667
1761370312186961400,3.24196142578125,-0.20463383197784424,0.05016583204269409,-0.23777230083942413
1761370312205571800,3.26057177734375,-0.130721315741539,-0.07200361788272858,-0.0844496339559555
1761370312224183800,3.279183837890625,-0.06352811306715012,-0.24426254630088806,0.02924431301653385
1761370312242794000,3.2977939453125,-0.02993151545524597,-0.4495072364807129,0.09093988686800003
1761370312261406000,3.316406005859375,-0.07574506103992462,-0.7524874806404114,0.08299887180328369
1761370312280016400,3.335016357421875,-0.19058434665203094,-1.0377531051635742,0.03290939703583717
1761370312298628400,3.35362841796875,-0.29381752014160156,-1.112276554107666,0.04818057641386986
1761370312317238800,3.37223876953125,-0.3512371778488159,-0.9785009622573853,0.15263545513153076
1761370312335850800,3.390850830078125,-0.3823903799057007,-0.7647044062614441,0.23693238198757172
1761370312354461200,3.409461181640625,-0.33352261781692505,-0.6523085236549377,0.1862320601940155
1761370312373073200,3.4280732421875,-0.20585553348064423,-0.5362475514411926,0.0420721061527729
1761370312391683300,3.446683349609375,-0.07207997888326645,-0.33955472707748413,-0.07345438003540039
1761370312410295300,3.46529541015625,0.07330167293548584,-0.12514732778072357,-0.13270656764507294
1761370312428905700,3.48390576171875,0.24372805655002594,-0.021303297951817513,-0.17913095653057098
1761370312447517700,3.502517578125,0.3402419090270996,0.2828986346721649,-0.18585027754306793
1761370312466128100,3.521128173828125,0.35856732726097107,0.5638883709907532,-0.16752485930919647
1761370312484740000,3.539739990234375,0.342074453830719,0.6005392074584961,-0.1772984117269516
1761370312503350500,3.5583505859375,0.2724378705024719,0.4117874205112457,-0.2591519355773926
1761370312521962500,3.57696240234375,0.1459924876689911,0.12102411687374115,-0.36360684037208557
1761370312540572700,3.59557275390625,0.0018325417768210173,-0.11598462611436844,-0.3611634373664856
1761370312559184600,3.6141845703125,-0.08490777015686035,-0.21982865035533905,-0.23655059933662415
1761370312577795000,3.632795166015625,-0.06413896381855011,-0.20944425463676453,-0.08139539510011673
1761370312596407000,3.651406982421875,0.04092676565051079,-0.09704835712909698,0.015194825828075409
1761370312615017500,3.670017578125,0.15271180868148804,0.052609220147132874,0.03352024406194687
1761370312633629400,3.68862939453125,0.20280128717422485,0.13446275889873505,0.004199574701488018
1761370312652239600,3.707239501953125,0.18753011524677277,0.1283542811870575,-0.0594048947095871
1761370312670851800,3.725851806640625,0.14171656966209412,0.048333290964365005,-0.0978882759809494
1761370312689462000,3.7444619140625,0.08490777015686035,-0.013973130844533443,-0.06429167091846466
1761370312708074000,3.763073974609375,0.042759306728839874,-0.0426829531788826,-0.01847812905907631
1761370312726684400,3.781684326171875,0.02076880633831024,-0.07078192383050919,-0.02886253222823143
1761370312745296400,3.80029638671875,-0.0036650835536420345,-0.14102935791015625,-0.08261708915233612
1761370312763906800,3.81890673828125,-0.04092676565051079,-0.18195612728595734,-0.10033166408538818
1761370312782518800,3.837518798828125,-0.08124268800020218,-0.1361425817012787,-0.045355409383773804
1761370312801129000,3.85612890625,-0.08612946420907974,-0.04512634128332138,0.035352785140275955
1761370312819741000,3.874740966796875,-0.033596597611904144,0.08559497445821762,0.10926530510187149
1761370312838351400,3.893351318359375,0.06291726976633072,0.2340308576822281,0.1483595222234726
1761370312856963300,3.91196337890625,0.1948602795600891,0.32077115774154663,0.14041851460933685
1761370312875573800,3.93057373046875,0.3286358118057251,0.30244573950767517,0.1330883502960205
1761370312894185700,3.949185791015625,0.42759308218955994,0.2615189850330353,0.17768019437789917
1761370312912796200,3.967796142578125,0.5222744345664978,0.25418880581855774,0.250981867313385
1761370312931408100,3.986408203125,0.609701931476593,0.3000023663043976,0.31145575642585754
1761370312950018300,4.005018310546875,0.6542937755584717,0.22914408147335052,0.2803025245666504
1761370312968630300,4.02363037109375,0.6261947751045227,-0.012140588834881783,0.15752223134040833
1761370312987240700,4.04224072265625,0.5167768001556396,-0.2247154414653778,0.0420721061527729
1761370313005852700,4.060852783203125,0.4422534108161926,-0.23021306097507477,0.07444700598716736
1761370313024463000,4.079463134765625,0.5033381581306458,-0.0420721061527729,0.2821350693702698
1761370313043075000,4.098074951171875,0.6616239547729492,0.16134002804756165,0.4629458785057068
1761370313061685200,4.116685302734375,0.822276771068573,0.24808034300804138,0.459280788898468
1761370313080297500,4.13529736328125,0.9267316460609436,0.193104088306427,0.37742725014686584
1761370313098907600,4.15390771484375,0.9267316460609436,0.10330954194068909,0.37742725014686584
1761370313117519600,4.17251953125,0.8674794435501099,0.17477867007255554,0.5026509165763855
1761370313136130000,4.191130126953125,0.8131140470504761,0.30488914251327515,0.643756628036499
1761370313154742000,4.209741943359375,0.7874584794044495,0.3665847182273865,0.6975111961364746
1761370313173352400,4.2283525390625,0.7727981209754944,0.3085542321205139,0.6272637844085693
1761370313191964400,4.24696435546875,0.7178218960762024,0.1656159609556198,0.48066043853759766
1761370313210574600,4.26557470703125,0.5961869359016418,0.019623467698693275,0.3151208162307739
1761370313229186600,4.2841865234375,0.4324798583984375,-0.07322531193494797,0.20394663512706757
1761370313247797000,4.302796875,0.24678228795528412,0.017180079594254494,0.21005509793758392
1761370313266409000,4.321408935546875,0.12705622613430023,0.29328304529190063,0.2919086217880249
1761370313285019400,4.340019287109375,0.1172826737165451,0.6292490363121033,0.3456631898880005
1761370313303631400,4.35863134765625,0.17836740612983704,0.872977077960968,0.31084489822387695
1761370313322241800,4.37724169921875,0.2510582208633423,1.031186580657959,0.18134528398513794
1761370313340853800,4.395853759765625,0.3268032968044281,1.187563419342041,-0.04413371533155441
1761370313359464000,4.4144638671875,0.3426853120326996,1.2810994386672974,-0.31351736187934875
1761370313378076000,4.433075927734375,0.2718270421028137,1.1625187397003174,-0.5028799772262573
1761370313396686300,4.451686279296875,0.1582094430923462,0.9108496308326721,-0.5566345453262329
1761370313415298300,4.47029833984375,0.08979454636573792,0.6408551335334778,-0.5187620520591736
1761370313433908700,4.48890869140625,0.0659715011715889,0.39529454708099365,-0.4662291705608368
1761370313452520700,4.507520751953125,0.042759306728839874,0.1821088343858719,-0.4485146105289459
1761370313471131000,4.526130859375,-0.01710372418165207,0.014736690558493137,-0.4546230733394623
1761370313489742800,4.544742919921875,-0.08490777015686035,-0.1220930963754654,-0.48272204399108887
1761370313508353300,4.563353271484375,-0.13805148005485535,-0.2015032321214676,-0.5315898060798645
1761370313526965200,4.58196533203125,-0.18019993603229523,-0.22838051617145538,-0.5676298141479492
1761370313545575700,4.60057568359375,-0.22723518311977386,-0.22105035185813904,-0.5737382769584656
1761370313564187600,4.619187744140625,-0.2858765125274658,-0.19356222450733185,-0.5615213513374329
1761370313582798000,4.637798095703125,-0.3439069986343384,-0.17157171666622162,-0.5370874404907227
1761370313601409800,4.656409912109375,-0.39827242493629456,-0.20211409032344818,-0.49860408902168274
1761370313620020200,4.675020263671875,-0.4813476502895355,-0.25892287492752075,-0.411863774061203
1761370313638632200,4.693632080078125,-0.5717530250549316,-0.23448899388313293,-0.25976279377937317
1761370313657242600,4.71224267578125,-0.6346703171730042,-0.1862320601940155,-0.08017370104789734
1761370313675854600,4.7308544921875,-0.6383354067802429,-0.23204560577869415,0.07383616268634796
1761370313694465000,4.749465087890625,-0.6316160559654236,-0.37315133213996887,0.17584764957427979
1761370313713077000,4.768076904296875,-0.6817055344581604,-0.5588488578796387,0.22349373996257782
1761370313731687200,4.786687255859375,-0.7831062078475952,-0.6578061580657959,0.2399866133928299
1761370313750299100,4.805299072265625,-0.8729007244110107,-0.6645254492759705,0.23204560577869415
1761370313768909600,4.82390966796875,-0.9272661209106445,-0.6016082167625427,0.22043950855731964
1761370313787521500,4.842521484375,-0.9590302109718323,-0.4751628041267395,0.24792763590812683
1761370313806132000,4.861132080078125,-0.9895725846290588,-0.36521029472351074,0.3328354060649872
1761370313824744000,4.879743896484375,-1.0262234210968018,-0.32245099544525146,0.4598916172981262
1761370313843354000,4.89835400390625,-1.0854755640029907,-0.3542150557041168,0.6113817691802979
1761370313861966000,4.916966064453125,-1.1777135133743286,-0.4000285863876343,0.7573742270469666
1761370313880576500,4.935576416015625,-1.258345365524292,-0.4482855200767517,0.8160156011581421
1761370313899188500,4.9541884765625,-1.3316470384597778,-0.48249298334121704,0.7805864214897156
1761370313917799000,4.972798828125,-1.4086138010025024,-0.5050943493843079,0.699343740940094
1761370313936411000,4.991410888671875,-1.4696985483169556,-0.5050943493843079,0.6370373368263245
1761370313955021300,5.010021240234375,-1.5014625787734985,-0.4641675651073456,0.593667209148407
1761370313973633000,5.028633056640625,-1.4825263023376465,-0.3810923397541046,0.537469208240509
1761370313992243500,5.047243408203125,-1.411668062210083,-0.32245099544525146,0.4733302593231201
1761370314010855400,5.06585546875,-1.34080970287323,-0.28641101717948914,0.45378315448760986
1761370314029465900,5.0844658203125,-1.2894985675811768,-0.2546469569206238,0.4983749985694885
1761370314048077800,5.103077880859375,-1.2461284399032593,-0.2894652485847473,0.542356014251709
1761370314066688000,5.12168798828125,-1.192984700202942,-0.4079696238040924,0.5600705742835999
1761370314085300200,5.14030029296875,-1.1667182445526123,-0.5173112750053406,0.5808393955230713
1761370314103910400,5.158910400390625,-1.180156946182251,-0.5307499170303345,0.6064949631690979
1761370314122522400,5.1775224609375,-1.175881028175354,-0.4617241621017456,0.6040515899658203
1761370314141132800,5.1961328125,-1.1373976469039917,-0.38903334736824036,0.5625139474868774
1761370314159744800,5.214744873046875,-1.0811996459960938,-0.32122930884361267,0.5368583798408508
1761370314178355200,5.233355224609375,-1.014006495475769,-0.18439951539039612,0.5619031190872192
1761370314196967200,5.25196728515625,-0.92054682970047,-0.06223006546497345,0.5851153135299683
1761370314215577300,5.270577392578125,-0.8240329623222351,-0.02435753494501114,0.5301390886306763
1761370314234189300,5.289189208984375,-0.7488987445831299,-0.08971819281578064,0.36521029472351074
1761370314252799700,5.3077998046875,-0.7324058413505554,-0.29923880100250244,0.11781716346740723
1761370314271411700,5.32641162109375,-0.7556180357933044,-0.49532076716423035,-0.13576079905033112
1761370314290022100,5.345022216796875,-0.7708892226219177,-0.4354577362537384,-0.2176143378019333
1761370314308634000,5.363634033203125,-0.8301414251327515,-0.14897038042545319,-0.1620272397994995
1761370314336550000,5.3915498046875,-0.8356390595436096,0.12530004978179932,-0.012980503961443901
1761370314355161900,5.410161865234375,-0.767224133014679,0.1405712217092514,0.07383616268634796
1761370314373772300,5.428772216796875,-0.6823163628578186,0.08559497445821762,0.1752368062734604
1761370314392384300,5.44738427734375,-0.6285618543624878,-0.07444700598716736,0.250981867313385
1761370314410994700,5.46599462890625,-0.6505523324012756,-0.3542150557041168,0.29618456959724426
1761370314429606400,5.4846064453125,-0.7696675658226013,-0.7482115626335144,0.3322245478630066
1761370314448216800,5.503216796875,-0.9749122262001038,-1.1922974586486816,0.3181750774383545
1761370314466828800,5.521828857421875,-1.1923738718032837,-1.5656014680862427,0.2253262847661972
1761370314485439200,5.540439208984375,-1.3676869869232178,-1.7158699035644531,0.09093988686800003
1761370314504051200,5.55905126953125,-1.5265072584152222,-1.5399459600448608,-0.00015271181473508477
1761370314522661600,5.57766162109375,-1.61874520778656,-1.0609652996063232,-0.015423892997205257
1761370314541273300,5.5962734375,-1.5442218780517578,-0.4446204602718353,-0.0007635590736754239
1761370314559883800,5.6148837890625,-1.3249276876449585,0.12530004978179932,0.02802261710166931
1761370314578495700,5.633495849609375,-1.1013575792312622,0.45088163018226624,0.020692450925707817
1761370314597106200,5.652106201171875,-0.92054682970047,0.4557684063911438,0.036574479192495346
1761370314615718100,5.67071826171875,-0.781884491443634,0.24991288781166077,0.11476293206214905
1761370314634328600,5.68932861328125,-0.7434011101722717,-0.053678203374147415,0.21677441895008087
1761370314652940300,5.707940185546875,-0.8044858574867249,-0.40247198939323425,0.31389912962913513
1761370314671550700,5.72655078125,-0.9504783153533936,-0.7860840559005737,0.39147675037384033
1761370314690162700,5.74516259765625,-1.1416735649108887,-1.0988378524780273,0.40125030279159546
1761370314708773000,5.763773193359375,-1.3304253816604614,-1.314466953277588,0.31267744302749634
1761370314727385000,5.782385009765625,-1.4965758323669434,-1.3779950141906738,0.1617981642484665
1761370314745995500,5.80099560546875,-1.6193560361862183,-1.3615021705627441,0.012751436792314053
1761370314764607200,5.819607177734375,-1.715259075164795,-1.3303489685058594,-0.06306997686624527
1761370314783217700,5.8382177734375,-1.7219784259796143,-1.2234506607055664,-0.016034740954637527
1761370314801829600,5.85682958984375,-1.6608936786651611,-0.9894962310791016,0.13797512650489807
1761370314820440000,5.875440185546875,-1.6059174537658691,-0.722555935382843,0.3334462344646454
1761370314839052000,5.894052001953125,-1.5949221849441528,-0.6492542624473572,0.4757736623287201
1761370314857662500,5.912662353515625,-1.6498984098434448,-0.7830298542976379,0.5075377225875854
1761370314876274200,5.931274169921875,-1.7268651723861694,-0.9210813045501709,0.43118181824684143
1761370314894884600,5.949884521484375,-1.7830631732940674,-0.9754467010498047,0.2558686435222626
1761370314913496600,5.96849658203125,-1.7885607481002808,-0.828843355178833,0.028633465990424156
1761370314932107000,5.98710693359375,-1.717091679573059,-0.5765634775161743,-0.18646112084388733
1761370314950719000,6.005718994140625,-1.5949221849441528,-0.3456631898880005,-0.36971530318260193
1761370314969329200,6.0243291015625,-1.494132399559021,-0.1996707022190094,-0.5315898060798645
1761370314987941000,6.042941162109375,-1.4189982414245605,-0.18012358248233795,-0.6549809575080872
1761370315006551600,6.061551513671875,-1.3811256885528564,-0.2613662779331207,-0.6977402567863464
1761370315025163500,6.08016357421875,-1.395785927772522,-0.33527877926826477,-0.603058934211731
1761370315043774000,6.09877392578125,-1.4953540563583374,-0.3175642192363739,-0.411863774061203
1761370315062386000,6.117385986328125,-1.6071391105651855,-0.31267744302749634,-0.2786990702152252
1761370315080996000,6.13599609375,-1.6083608865737915,-0.3413872718811035,-0.23349636793136597
1761370315099608000,6.154608154296875,-1.5326157808303833,-0.46844348311424255,-0.27564483880996704
1761370315118218500,6.173218505859375,-1.4269392490386963,-0.6022190451622009,-0.31534990668296814
1761370315136830500,6.19183056640625,-1.3499724864959717,-0.6321505308151245,-0.3239017724990845
1761370315155441000,6.21044091796875,-1.3267602920532227,-0.6181010603904724,-0.3226800560951233
1761370315174052900,6.229052978515625,-1.3792930841445923,-0.5509078502655029,-0.28602921962738037
1761370315192663000,6.2476630859375,-1.5100144147872925,-0.46661093831062317,-0.20539739727973938
1761370315211275000,6.26627490234375,-1.6786082983016968,-0.34871742129325867,-0.1119377613067627
1761370315229885400,6.284885498046875,-1.8233790397644043,-0.1984490007162094,-0.055739812552928925
1761370315248497400,6.303497314453125,-1.8942373991012573,-0.01763821393251419,-0.021532366052269936
1761370315267107800,6.32210791015625,-1.8551430702209473,0.21081866323947906,0.027411770075559616
1761370315285719800,6.3407197265625,-1.7091506719589233,0.3922402858734131,0.11354123055934906
1761370315304330000,6.359330078125,-1.5014625787734985,0.5144097208976746,0.24548424780368805
1761370315322942000,6.37794189453125,-1.3108782768249512,0.5895439386367798,0.3963635265827179
1761370315341552400,6.396552490234375,-1.155722975730896,0.6640673279762268,0.5435777306556702
1761370315360164400,6.415164306640625,-1.0274450778961182,0.7025507092475891,0.6791858077049255
1761370315378774800,6.43377490234375,-0.9199360013008118,0.664678156375885,0.7830298542976379
1761370315397386500,6.452386474609375,-0.8270871639251709,0.5321243405342102,0.8355627059936523
1761370315415997000,6.470996826171875,-0.7751652002334595,0.32810133695602417,0.8343409895896912
1761370315434609000,6.48960888671875,-0.7879929542541504,0.14790138602256775,0.7665369510650635
1761370315453219300,6.50821923828125,-0.8301414251327515,0.10269869863986969,0.6584169864654541
1761370315471831300,6.526831298828125,-0.8215895891189575,0.13079766929149628,0.51914381980896
1761370315490441700,6.545441650390625,-0.7495095729827881,0.168670192360878,0.3951418101787567
1761370315509053700,6.5640537109375,-0.6450546979904175,0.21387289464473724,0.32306185364723206
1761370315527664000,6.5826640625,-0.5803049206733704,0.1271325796842575,0.24609509110450745
1761370315546276000,6.601276123046875,-0.577861487865448,-0.0689493864774704,0.13186664879322052
1761370315564886500,6.619886474609375,-0.6175665855407715,-0.18378867208957672,0.08055548369884491
1761370315583498200,6.638498291015625,-0.6682668924331665,-0.07566870748996735,0.20944425463676453
1761370315602108700,6.657108642578125,-0.6914790868759155,0.20348849892616272,0.46844348311424255
1761370315620720600,6.675720703125,-0.6426113247871399,0.3335989713668823,0.6901810169219971
1761370315639331000,6.6943310546875,-0.5674771070480347,0.18821731209754944,0.7848623991012573
1761370315657943000,6.712943115234375,-0.4947862923145294,-0.05062396824359894,0.8508338928222656
1761370315676553500,6.731553466796875,-0.42514967918395996,-0.18989713490009308,0.9571213126182556
1761370315695165200,6.750165283203125,-0.3139754831790924,-0.1605764776468277,1.0664629936218262
1761370315713775600,6.768775634765625,-0.22540263831615448,-0.0420721061527729,1.0853992700576782
1761370315732387600,6.7873876953125,-0.18630841374397278,0.048333290964365005,0.9644514918327332
1761370315750998000,6.805998046875,-0.20280128717422485,0.01779092662036419,0.7482115626335144
1761370315769610000,6.82460986328125,-0.30969956517219543,-0.20577916502952576,0.4843255281448364
1761370315788220400,6.843220458984375,-0.5412106513977051,-0.5649573802947998,0.226547971367836
1761370315806832000,6.86183203125,-0.7763868570327759,-0.8850412964820862,0.05428905040025711
1761370315825442600,6.880442626953125,-1.0463813543319702,-0.8728243708610535,0.013973130844533443
1761370315844054500,6.899054443359375,-1.2070342302322388,-0.5460211038589478,0.0689493864774704
1761370315862665000,6.9176650390625,-1.1826002597808838,-0.11476293206214905,0.15019206702709198
1761370315881277000,6.93627685546875,-0.999346137046814,0.2737359404563904,0.21005509793758392
1761370315899887000,6.95488720703125,-0.7660024762153625,0.4936409294605255,0.2381540685892105
1761370315918499000,6.9734990234375,-0.6053496599197388,0.5302917957305908,0.24426254630088806
1761370315937109500,6.992109619140625,-0.5161659121513367,0.530902624130249,0.2644205093383789
1761370315955721500,7.010721435546875,-0.4569137394428253,0.5247941613197327,0.280913382768631
1761370315974332000,7.029331787109375,-0.4446968138217926,0.39895960688591003,0.24914932250976562
1761370315992943900,7.04794384765625,-0.5033381581306458,0.17355698347091675,0.17035003006458282
1761370316011554000,7.066553955078125,-0.6432221531867981,-0.1336991935968399,0.052456509321928024
1761370316030166000,7.085166015625,-0.8057075142860413,-0.4250733256340027,-0.07589777559041977
1761370316048776400,7.1037763671875,-0.9266552925109863,-0.588780403137207,-0.18646112084388733
1761370316067388400,7.122388427734375,-0.9883508682250977,-0.5991647839546204,-0.2658712565898895
1761370316085998800,7.140998779296875,-1.0024003982543945,-0.4861580729484558,-0.29885703325271606
1761370316104610800,7.15961083984375,-0.9773555994033813,-0.32733777165412903,-0.28969430923461914
1761370316123221200,7.17822119140625,-0.8936695456504822,-0.1593547761440277,-0.23838314414024353
1761370316141833000,7.1968330078125,-0.781884491443634,-0.07261446863412857,-0.17302247881889343
1761370316160443400,7.215443359375,-0.707361102104187,-0.050013117492198944,-0.12232216447591782
1761370316179055400,7.234055419921875,-0.6621584296226501,-0.06711684167385101,-0.09972081333398819
1761370316197665800,7.252665771484375,-0.6413896083831787,-0.17829103767871857,-0.10216420143842697
1761370316216277800,7.27127783203125,-0.6444438695907593,-0.35054996609687805,-0.08689302206039429
1761370316234888200,7.28988818359375,-0.6456655263900757,-0.5002075433731079,-0.022754060104489326
1761370316253500000,7.3085,-0.6352811455726624,-0.611992597579956,0.0817771777510643
1761370316272110300,7.3271103515625,-0.6310052275657654,-0.6920135617256165,0.17768019437789917
1761370316290722300,7.345722412109375,-0.648108959197998,-0.718280017375946,0.18867544829845428
1761370316309332700,7.364332763671875,-0.6591041684150696,-0.7188908457756042,0.11354123055934906
1761370316327944700,7.38294482421875,-0.6884248852729797,-0.6388698816299438,0.06406260281801224
1761370316346555100,7.40155517578125,-0.7244648337364197,-0.4977641701698303,0.08360971510410309
1761370316365167000,7.4201669921875,-0.735460102558136,-0.41285640001296997,0.08727480471134186
1761370316383777500,7.438777587890625,-0.7409577369689941,-0.4354577362537384,0.020692450925707817
1761370316402389200,7.45738916015625,-0.7757760286331177,-0.5435777306556702,-0.04840964451432228
1761370316420999700,7.475999755859375,-0.8160919547080994,-0.621155321598053,-0.05268557742238045
1761370316439611600,7.494611572265625,-0.8222004175186157,-0.6248204112052917,-0.0032069480512291193
1761370316458222000,7.51322216796875,-0.8179244995117188,-0.5564054846763611,0.07689040154218674
1761370316476834000,7.531833984375,-0.8203678727149963,-0.4385119676589966,0.15630054473876953
1761370316495444500,7.550444580078125,-0.8319739699363708,-0.3187859058380127,0.20516832172870636
1761370316514056400,7.569056396484375,-0.8429692387580872,-0.2821350693702698,0.1874537467956543
1761370316532666600,7.58766650390625,-0.8496885299682617,-0.2754157483577728,0.1336991935968399
1761370316551278600,7.606278564453125,-0.8680139780044556,-0.28763270378112793,0.06467345356941223
1761370316569889000,7.624888916015625,-0.9058864712715149,-0.2937411665916443,-0.007482878863811493
1761370316588501000,7.6435009765625,-0.938872218132019,-0.250981867313385,-0.025197450071573257
1761370316607111400,7.662111328125,-0.9352071285247803,-0.15507884323596954,0.02802261710166931
1761370316625723400,7.680723388671875,-0.8570187091827393,-0.08483141660690308,0.08910734206438065
1761370316644333800,7.699333740234375,-0.7427902817726135,0.000687203137204051,0.1220930963754654
1761370316662945800,7.71794580078125,-0.6340594291687012,0.06360447406768799,0.12453648447990417
1761370316681556200,7.73655615234375,-0.5632011890411377,0.1265217363834381,0.12759071588516235
1761370316700168000,7.75516796875,-0.5131117105484009,0.1295759677886963,0.14347274601459503
1761370316718778400,7.7737783203125,-0.4679090082645416,0.09475768357515335,0.1599656194448471
1761370316737390300,7.792390380859375,-0.4593571424484253,0.03978142887353897,0.16790664196014404
1761370316756000800,7.811000732421875,-0.5008947253227234,-0.09399411827325821,0.1624090075492859
1761370316774612700,7.82961279296875,-0.5858024954795837,-0.25831204652786255,0.1587439328432083
1761370316793223200,7.84822314453125,-0.6939224600791931,-0.3328354060649872,0.1349208950996399
1761370316811835100,7.866835205078125,-0.7855495810508728,-0.2515927255153656,0.08299887180328369
1761370316830445600,7.885445556640625,-0.813648521900177,-0.05734328553080559,0.02435753494501114
1761370316849057500,7.9040576171875,-0.763559103012085,0.12407834827899933,-0.011147962883114815
1761370316867668000,7.92266796875,-0.6377245187759399,0.30549997091293335,0.05123481526970863
1761370316886280000,7.941280029296875,-0.4318690001964569,0.4270585775375366,0.20761170983314514
1761370316904890000,7.95989013671875,-0.20402298867702484,0.4264477491378784,0.3725404739379883
1761370316923502000,7.978502197265625,-0.046424392610788345,0.26640576124191284,0.4348468780517578
1761370316942112500,7.997112548828125,0.004886778071522713,-0.1343100368976593,0.33466795086860657
1761370316960724500,8.015724365234375,-0.06841489672660828,-0.4519506096839905,0.2149418741464615
1761370316979335000,8.0343349609375,-0.20768806338310242,-0.4458421468734741,0.20822255313396454
1761370316997947000,8.05294677734375,-0.25289076566696167,-0.24120831489562988,0.28518930077552795
1761370317016557300,8.071557373046875,-0.19424942135810852,-0.07139277458190918,0.3700970709323883
1761370317035169300,8.090169189453125,-0.14660334587097168,-0.010918894782662392,0.3975852131843567
1761370317053779700,8.10877978515625,-0.16309621930122375,-0.07627955079078674,0.3334462344646454
1761370317072391700,8.1273916015625,-0.1820324808359146,-0.15324631333351135,0.25647950172424316
1761370317091002000,8.146002197265625,-0.16431790590286255,-0.16485241055488586,0.2515927255153656
1761370317109614000,8.164614013671875,-0.1050657257437706,-0.11293038725852966,0.308401495218277
1761370317128224500,8.183224609375,-0.00916270911693573,-0.024968381971120834,0.36582115292549133
1761370317146836200,8.201836181640624,0.10934165865182877,-0.03840702027082443,0.3566584289073944
1761370317165446700,8.22044677734375,0.22479179501533508,-0.14469444751739502,0.28457847237586975
1761370317184058600,8.23905859375,0.27854636311531067,-0.29557371139526367,0.18378867208957672
1761370317202669000,8.2576689453125,0.20768806338310242,-0.4385119676589966,0.054899897426366806
1761370317221281000,8.276281005859374,0.0036650835536420345,-0.6242095232009888,-0.0856713280081749
1761370317239891500,8.294891357421875,-0.28343313932418823,-0.6883485317230225,-0.14675605297088623
1761370317258503400,8.31350341796875,-0.5265503525733948,-0.49593162536621094,-0.072843536734581
1761370317277113900,8.33211376953125,-0.624896764755249,-0.1605764776468277,0.045737188309431076
1761370317295725800,8.350725830078124,-0.5534276366233826,0.1527881771326065,0.08727480471134186
1761370317314336300,8.369336181640625,-0.3970507085323334,0.4044572412967682,0.022524992004036903
1761370317332948200,8.3879482421875,-0.2987042963504791,0.539454460144043,-0.06306997686624527
1761370317351558700,8.40655859375,-0.3127537965774536,0.5932090282440186,-0.072232685983181
1761370317370170600,8.425170654296876,-0.3658975064754486,0.6127561330795288,-0.001985253533348441
1761370317388781000,8.443781005859375,-0.4196520745754242,0.5510605573654175,0.0823880210518837
1761370317407392800,8.462392822265626,-0.4575245976448059,0.43866467475891113,0.10926530510187149
1761370317426003500,8.48100341796875,-0.4428642690181732,0.27679017186164856,0.050013117492198944
1761370317444615200,8.499615234375,-0.40010493993759155,0.05322006717324257,-0.06856760382652283
1761370317463225600,8.5182255859375,-0.3836120665073395,-0.10560022294521332,-0.16019469499588013
1761370317481837600,8.536837646484376,-0.41110020875930786,-0.23509983718395233,-0.19562382996082306
1761370317500448000,8.555447998046875,-0.469741553068161,-0.36337774991989136,-0.19379130005836487
1761370317519060000,8.57406005859375,-0.5375455617904663,-0.4879906177520752,-0.16019469499588013
1761370317537670400,8.59267041015625,-0.5943543910980225,-0.5307499170303345,-0.0844496339559555
1761370317556282400,8.611282470703125,-0.6157340407371521,-0.46966519951820374,0.012751436792314053
1761370317574892800,8.629892822265624,-0.5436540842056274,-0.2943520247936249,0.10132429003715515
1761370317593504800,8.6485048828125,-0.41354358196258545,-0.16973918676376343,0.11354123055934906
1761370317612115200,8.667115234375,-0.3390202224254608,-0.20944425463676453,0.031076854094862938
1761370317630727200,8.68572705078125,-0.3542914092540741,-0.23021306097507477,-0.05635065957903862
1761370317649337600,8.704337646484374,-0.3799470067024231,-0.11903885751962662,-0.09177979826927185
1761370317667949600,8.722949462890625,-0.3805578351020813,0.03733803704380989,-0.0984991192817688
1761370317686560000,8.74156005859375,-0.3506263196468353,0.0752105712890625,-0.09544488787651062
1761370317705172000,8.760171875,-0.28037887811660767,-0.005421269219368696,-0.04230117425322533
1761370317723782400,8.778782470703124,-0.1704263836145401,-0.10071343928575516,0.09216158092021942
1761370317742394400,8.797394287109375,-0.02870982140302658,-0.11598462611436844,0.2906869351863861
1761370317761004800,8.8160048828125,0.09284878522157669,-0.04695888236165047,0.49287739396095276
1761370317779616800,8.83461669921875,0.19241689145565033,-0.013973130844533443,0.6016082167625427
1761370317798227200,8.853227294921876,0.27060532569885254,-0.026190076023340225,0.5918346643447876
1761370317816839200,8.871839111328125,0.3384093940258026,-0.04756972938776016,0.5075377225875854
1761370317835449600,8.89044970703125,0.38483378291130066,-0.0420721061527729,0.40186113119125366
1761370317854061300,8.909061279296875,0.38910970091819763,-0.0683385357260704,0.2644205093383789
1761370317872671700,8.927671630859376,0.3255815804004669,-0.1361425817012787,0.05734328553080559
1761370317891283700,8.94628369140625,0.15149012207984924,-0.24914932250976562,-0.20906247198581696
1761370317909894100,8.96489404296875,-0.12278030067682266,-0.43973368406295776,-0.49493899941444397
1761370317928506000,8.983506103515625,-0.4214846193790436,-0.6688013672828674,-0.7038487792015076
1761370317947116500,9.002116455078125,-0.6371136903762817,-0.7066739201545715,-0.7612683773040771
1761370317965728500,9.020728515625,-0.7116370797157288,-0.4324035048484802,-0.6415423154830933
1761370317984339000,9.0393388671875,-0.5833591222763062,0.04283566400408745,-0.4375193417072296
1761370318002951000,9.057950927734375,-0.2724378705024719,0.46248772740364075,-0.23227466642856598
1761370318021561300,9.076561279296875,0.024433890357613564,0.5950415730476379,-0.14736689627170563
1761370318040173300,9.09517333984375,0.261442631483078,0.5058578848838806,-0.13331741094589233
1761370318058783700,9.11378369140625,0.43614494800567627,0.3610870838165283,-0.1363716572523117
1761370318077395700,9.132395751953124,0.5393781065940857,0.2572430372238159,-0.14064757525920868
1761370318096006100,9.151006103515625,0.5729747414588928,0.14606885612010956,-0.17302247881889343
1761370318114618000,9.1696181640625,0.569309651851654,0.0025197449140250683,-0.23777230083942413
1761370318133228500,9.188228515625,0.6103127598762512,-0.15507884323596954,-0.31229567527770996
1761370318151840500,9.206840576171874,0.6866686940193176,-0.23143476247787476,-0.36788275837898254
1761370318170451000,9.225450927734375,0.7831825613975525,-0.07627955079078674,-0.29946786165237427
1761370318189063000,9.24406298828125,0.9059628248214722,0.27923354506492615,-0.10521844029426575
1761370318207673300,9.26267333984375,1.0507336854934692,0.5852680206298828,0.07261446863412857
1761370318226285300,9.281285400390624,1.1814548969268799,0.7007181644439697,0.1080436110496521
1761370318244895700,9.299895751953125,1.2865207195281982,0.7104917168617249,0.017027366906404495
1761370318263507700,9.3185078125,1.381201982498169,0.7129350900650024,-0.08628217875957489
1761370318282118100,9.3371181640625,1.4771050214767456,0.6817818880081177,-0.11804623156785965
1761370318300730000,9.355730224609376,1.53452467918396,0.5895439386367798,-0.10521844029426575
1761370318319340500,9.374340576171875,1.4728291034698486,0.3122192919254303,-0.16752485930919647
1761370318337952500,9.392952392578126,1.2474265098571777,-0.09704835712909698,-0.3568875193595886
1761370318356563000,9.41156298828125,0.9823187589645386,-0.433625191450119,-0.5444176197052002
1761370318375175000,9.4301748046875,0.7837933897972107,-0.37925979495048523,-0.5700731873512268
1761370318393785300,9.448785400390625,0.7056049108505249,0.055052608251571655,-0.37826716899871826
1761370318412397300,9.467397216796876,0.7911235690116882,0.5315134525299072,-0.1247655525803566
1761370318431007700,9.4860078125,0.9621607661247253,0.7648571133613586,-0.02214321307837963
1761370318449619500,9.504619384765626,1.1118183135986328,0.7208760976791382,-0.06978929787874222
1761370318468230100,9.523230224609375,1.1893960237503052,0.5638883709907532,-0.1620272397994995
1761370318486841900,9.541841796875,1.1661838293075562,0.3641413152217865,-0.24632415175437927
1761370318505452500,9.56045263671875,1.0641722679138184,0.1790546029806137,-0.2933593988418579
1761370318524064300,9.579064208984375,0.9126821756362915,0.08254073560237885,-0.29946786165237427
1761370318542674700,9.5976748046875,0.8228875994682312,0.13629528880119324,-0.2707580327987671
1761370318561286700,9.61628662109375,0.8460997939109802,0.2071535736322403,-0.2548760175704956
1761370318579897000,9.63489697265625,0.9450570940971375,0.2205922156572342,-0.279920756816864
1761370318598509000,9.653509033203125,1.0666157007217407,0.13263021409511566,-0.34222719073295593
1761370318617119500,9.672119384765624,1.1484692096710205,-0.013973130844533443,-0.39231663942337036
1761370318635731500,9.6907314453125,1.1838983297348022,-0.10621106624603271,-0.3843756318092346
1761370318654342000,9.709341796875,1.2010021209716797,-0.12636902928352356,-0.3184041380882263
1761370318672953900,9.727953857421875,1.1869525909423828,-0.14347274601459503,-0.2573194205760956
1761370318691564300,9.746564208984376,1.1478583812713623,-0.20516832172870636,-0.24754585325717926
1761370318710176300,9.76517626953125,1.1081533432006836,-0.2002815455198288,-0.2579302489757538
1761370318728786700,9.78378662109375,1.0513445138931274,-0.12575818598270416,-0.2976353168487549
1761370318747398700,9.802398681640625,0.983540415763855,-0.0426829531788826,-0.3623851239681244
1761370318766009000,9.821009033203126,0.9157363772392273,0.005573981441557407,-0.4161396920681
1761370318784621000,9.83962109375,0.8363262414932251,0.07337802648544312,-0.41858309507369995
1761370318803231500,9.8582314453125,0.7685222029685974,0.19676917791366577,-0.3568875193595886
1761370318821843500,9.876843505859375,0.7269846200942993,0.28106608986854553,-0.2835858464241028
1761370318840454000,9.895453857421876,0.7111025452613831,0.2627406716346741,-0.22005772590637207
1761370318859065900,9.91406591796875,0.7184327244758606,0.16072918474674225,-0.1779092699289322
1761370318877676300,9.93267626953125,0.7166001796722412,0.01901262067258358,-0.15897299349308014
1761370318896288300,9.951288330078125,0.6549046039581299,-0.03779617324471474,-0.14125843346118927
1761370318914898700,9.969898681640625,0.5601469278335571,-0.029855160042643547,-0.1113269105553627
1761370318933510700,9.9885107421875,0.49356457591056824,0.020845163613557816,-0.07101099193096161
1761370318952121000,10.00712109375,0.4709632396697998,0.08192989230155945,-0.046577103435993195
1761370318970733000,10.025733154296875,0.4569137394428253,0.12163496017456055,-0.04291202127933502
1761370318989343500,10.044343505859375,0.4159869849681854,0.13751699030399323,-0.058183200657367706
1761370319007955500,10.06295556640625,0.36284327507019043,0.10269869863986969,-0.09116895496845245
1761370319026566000,10.08156591796875,0.2883199155330658,0.09475768357515335,-0.125987246632576
1761370319045177900,10.100177734375,0.23090025782585144,0.2065427303314209,-0.1382041871547699
1761370319063788300,10.118788330078125,0.1973036676645279,0.352535218000412,-0.11743538826704025
1761370319082400300,10.137400146484374,0.2107423096895218,0.4258368909358978,-0.08994726091623306
1761370319101010700,10.1560107421875,0.2632751762866974,0.39468368887901306,-0.0850604772567749
1761370319119622700,10.17462255859375,0.3158080279827118,0.2712925374507904,-0.10827267915010452
1761370319138233000,10.193233154296875,0.3658975064754486,0.1540098637342453,-0.10399674624204636
1761370319156844800,10.2118447265625,0.41293275356292725,0.1259108930826187,-0.036192700266838074
1761370319175455200,10.230455322265625,0.46241137385368347,0.194325789809227,0.09643751382827759
1761370319194067200,10.249067138671874,0.5100574493408203,0.29267218708992004,0.24853847920894623
1761370319212677600,10.267677734375,0.5650337338447571,0.3629196286201477,0.36398860812187195
1761370319231289600,10.28628955078125,0.5625903010368347,0.32077115774154663,0.38964420557022095
1761370319249900000,10.304900146484375,0.4862344264984131,0.11674818396568298,0.28702184557914734
1761370319268512000,10.323511962890626,0.33596599102020264,-0.2143310308456421,0.07322531193494797
1761370319287122400,10.342122314453125,0.13988402485847473,-0.5154787302017212,-0.1369825005531311
1761370319305734400,10.360734375,0,-0.5527403950691223,-0.21272756159305573
1761370319324344800,10.3793447265625,-0.046424392610788345,-0.28580015897750854,-0.17913095653057098
1761370319342956800,10.397956787109376,0.030542362481355667,0.05993938818573952,-0.12843063473701477
1761370319361567200,10.416567138671875,0.19424942135810852,0.22670069336891174,-0.09116895496845245
1761370319380179200,10.43517919921875,0.34451785683631897,0.21509459614753723,-0.04107947647571564
1761370319398789600,10.45378955078125,0.4043808877468109,0.1393495351076126,0.044515494257211685
1761370319417401600,10.472401611328126,0.3927747905254364,0.09353598952293396,0.1214822456240654
1761370319436012000,10.491011962890624,0.3555130958557129,0.08192989230155945,0.1330883502960205
1761370319454624000,10.5096240234375,0.3298575282096863,0.11308310180902481,0.07383616268634796
1761370319473234400,10.528234375,0.3304683566093445,0.18821731209754944,-0.0325276181101799
1761370319491846400,10.546846435546875,0.34879377484321594,0.21448373794555664,-0.16752485930919647
1761370319510456800,10.565456787109374,0.3793361485004425,0.17538951337337494,-0.2725905776023865
1761370319529068800,10.58406884765625,0.42698222398757935,0.1790546029806137,-0.2805316150188446
1761370319547679200,10.60267919921875,0.5051707029342651,0.2731250822544098,-0.19501298666000366
1761370319566291200,10.621291259765625,0.6286382079124451,0.3806341886520386,-0.0587940476834774
1761370319584901600,10.639901611328124,0.7776849269866943,0.428891122341156,0.07933378964662552
1761370319603513600,10.658513671875,0.8790855407714844,0.39651623368263245,0.1856212168931961
1761370319622124000,10.6771240234375,0.9145147204399109,0.3262687921524048,0.24976016581058502
1761370319640736000,10.695736083984375,0.924288272857666,0.2859528660774231,0.25831204652786255
1761370319659346400,10.714346435546876,0.9157363772392273,0.2554105222225189,0.20272493362426758
1761370319677958400,10.73295849609375,0.8796964287757874,0.17233528196811676,0.09338327497243881
1761370319696568800,10.75156884765625,0.8137248754501343,0.14790138602256775,0.010308047756552696
1761370319715180800,10.770180908203125,0.7172110676765442,0.2334200143814087,-0.007482878863811493
1761370319733791200,10.788791259765626,0.6732300519943237,0.4307236671447754,0.01885990984737873
1761370319752403200,10.8074033203125,0.724541187286377,0.5712185502052307,0.1349208950996399
1761370319771013600,10.826013671875,0.8332720398902893,0.6768951416015625,0.33588963747024536
1761370319789625600,10.84462548828125,0.9267316460609436,0.6274164915084839,0.5008183717727661
1761370319808236000,10.863236083984376,0.9676584005355835,0.49180838465690613,0.5643464922904968
1761370319826848000,10.881847900390625,0.9542197585105896,0.4117874205112457,0.5417451858520508
1761370319845458400,10.90045849609375,0.8607601523399353,0.38429927825927734,0.4855472147464752
1761370319864070400,10.9190703125,0.7679113745689392,0.48875415325164795,0.4391228258609772
1761370319882680800,10.937680908203125,0.6732300519943237,0.6353574991226196,0.33466795086860657
1761370319901292800,10.956292724609375,0.5796940326690674,0.5131880640983582,0.16790664196014404
1761370319919903200,10.9749033203125,0.47829338908195496,0.2731250822544098,0.05123481526970863
1761370319938515200,10.99351513671875,0.40132665634155273,0.11552648991346359,0.004199574701488018
1761370319957125600,11.012125732421875,0.39827242493629456,0.012293301522731781,-0.03924693539738655
1761370319975737600,11.030737548828125,0.44042086601257324,-0.004810422193259001,-0.04352286830544472
1761370319994348000,11.04934814453125,0.4984513521194458,0.1277434378862381,-0.001985253533348441
1761370320012960000,11.0679599609375,0.5992411375045776,0.33054471015930176,-0.039857782423496246
1761370320031570400,11.0865703125,0.7086591720581055,0.3806341886520386,-0.14492350816726685
1761370320050182400,11.105182373046874,0.7343147397041321,0.3360423445701599,-0.18340688943862915
1761370320068792800,11.123792724609375,0.6903337836265564,0.36902809143066406,-0.20845162868499756
1761370320087404800,11.14240478515625,0.6750625967979431,0.4783697724342346,-0.27625566720962524
1761370320106015200,11.16101513671875,0.6897228956222534,0.6115344762802124,-0.2573194205760956
1761370320124627200,11.179627197265624,0.6994964480400085,0.7385907173156738,-0.21150586009025574
1761370320143237600,11.198237548828125,0.6145886778831482,0.7056049108505249,0.06406260281801224
1761370320161849600,11.216849609375,0.46241137385368347,0.13140851259231567,0.2124984860420227
1761370320180460000,11.2354599609375,0.4330907166004181,-0.308401495218277,0.09032903611660004
1761370320199072000,11.254072021484374,0.3927747905254364,-0.1465269923210144,-0.17241163551807404
1761370320217682400,11.272682373046875,0.3408527672290802,0.14362546801567078,-0.44790375232696533
1761370320236294400,11.29129443359375,0.3542914092540741,0.4307236671447754,-0.6207735538482666
1761370320254904800,11.30990478515625,0.4037700295448303,0.4252260625362396,-0.6568135023117065
