time,seconds_elapsed,z,y,x
1761310944302988000,0.218988037109375,-0.798494815826416,0.9820518493652344,-2.1267640590667725
1761310944321599500,0.237599609375,-0.7589430809020996,2.5076417922973633,-1.3200371265411377
1761310944340212500,0.25621240234375,-1.2589950561523438,3.9035658836364746,0.18897736072540283
1761310944358824000,0.274823974609375,-0.5106320381164551,3.5899300575256348,-1.420587420463562
1761310944377437000,0.29343701171875,0.8796272277832031,2.05562686920166,-3.583604335784912
1761310944396048400,0.31204833984375,0.3080863952636719,-0.2323622703552246,-1.915722131729126
1761310944414661400,0.330661376953125,0.6790218353271484,-0.43044567108154297,-1.3958691358566284
1761310944433272800,0.34927294921875,1.0416479110717773,-0.0324246883392334,-1.4997769594192505
1761310944451885800,0.3678857421875,1.4429292678833008,0.198685884475708,-0.9334311485290527
1761310944470497300,0.386497314453125,2.226327896118164,0.19905686378479004,-0.17557436227798462
1761310944489110300,0.4051103515625,2.344104766845703,-0.28355860710144043,0.050367727875709534
1761310944507721700,0.4237216796875,2.1025314331054688,-0.44209563732147217,-0.09799149632453918
1761310944526334700,0.442334716796875,1.208847999572754,-0.14882922172546387,0.004748940467834473
1761310944544946200,0.4609462890625,0.7844991683959961,-0.11906862258911133,0.4496055841445923
1761310944563559200,0.47955908203125,0.9375162124633789,-0.3150198459625244,0.14110124111175537
1761310944582171000,0.4981708984375,0.20816326141357422,-0.4940141439437866,-0.6138433218002319
1761310944600783600,0.51678369140625,-0.1759033203125,-0.5330164432525635,-0.7331206798553467
1761310944619395300,0.535395263671875,0.8947057723999023,-0.27394652366638184,-0.1936206817626953
1761310944638008300,0.55400830078125,1.089829444885254,0.05597424507141113,0.20369577407836914
1761310944656619800,0.572619873046875,0.22524547576904297,0.33131837844848633,0.21801698207855225
1761310944675232800,0.591232666015625,0.08039665222167969,-0.3166029453277588,-0.10191452503204346
1761310944693844200,0.60984423828125,0.18686199188232422,-1.4277167320251465,0.13564658164978027
1761310944712457200,0.628457275390625,-0.05515098571777344,-1.4879064559936523,-0.012367606163024902
1761310944731068700,0.647068603515625,-0.04119396209716797,-1.2382194995880127,-0.6748623847961426
1761310944749681700,0.665681640625,-2.425980567932129,-0.6075339317321777,-1.5482890605926514
1761310944768293000,0.684293212890625,-4.903923034667969,-1.0344786643981934,0.2510237693786621
1761310944786906000,0.702906005859375,-4.776036262512207,-0.3070054054260254,0.1298966407775879
1761310944805517600,0.721517578125,-3.324367046356201,0.7502114772796631,-1.3012011051177979
1761310944824130600,0.740130615234375,1.1615676879882812,2.2195663452148438,-4.1066789627075195
1761310944842742000,0.758741943359375,2.8914060592651367,0.6507909297943115,-2.4940977096557617
1761310944861355000,0.77735498046875,2.828597068786621,-1.0474586486816406,-0.5853103399276733
1761310944879966500,0.795966552734375,2.6001977920532227,-0.9190547466278076,-1.5643614530563354
1761310944898579500,0.814579345703125,3.520092010498047,-1.0170300006866455,-0.9023687243461609
1761310944917191000,0.83319091796875,3.1737499237060547,-0.47926878929138184,-0.3142128586769104
1761310944935804200,0.85180419921875,1.351994514465332,0.8407278060913086,-0.7567569613456726
1761310944954415600,0.87041552734375,0.8533706665039062,1.815429449081421,-0.25910723209381104
1761310944973028600,0.889028564453125,0.9027986526489258,1.5119152069091797,0.297512412071228
1761310944991640000,0.90764013671875,0.9685792922973633,0.5627663135528564,0.387336790561676
1761310945010253000,0.926253173828125,0.7702856063842773,-0.07966446876525879,-0.6491668820381165
1761310945028864500,0.944864501953125,0.686370849609375,-0.5061068534851074,-0.029522836208343506
1761310945047477500,0.9634775390625,-0.014211654663085938,-0.3959004878997803,0.47937044501304626
1761310945066089000,0.9820888671875,-1.0901775360107422,0.23363184928894043,0.4049642086029053
1761310945084702000,1.000701904296875,-2.1186771392822266,0.2990577220916748,0.5466334223747253
1761310945103313400,1.0193134765625,-2.7987289428710938,0.44938087463378906,-0.03396570682525635
1761310945121926400,1.037926513671875,-2.6099586486816406,0.6355609893798828,0.03625690937042236
1761310945140537900,1.056537841796875,-2.9069924354553223,0.5387344360351562,0.5430160760879517
1761310945159150800,1.07515087890625,-1.2380895614624023,0.5318396091461182,0.6688984036445618
1761310945177762600,1.093762451171875,0.8164758682250977,0.24184417724609375,1.536224365234375
1761310945196375300,1.112375244140625,1.5924501419067383,0.5281031131744385,1.103523850440979
1761310945214987000,1.130987060546875,2.8212757110595703,0.2631244659423828,0.10443460941314697
1761310945233600000,1.14960009765625,3.6933774948120117,-0.6807169914245605,0.8450382947921753
1761310945252211500,1.16821142578125,2.467404365539551,-0.7316640615463257,0.43346384167671204
1761310945270824400,1.186824462890625,0.7110843658447266,-1.0125141143798828,0.4481947720050812
1761310945289436000,1.205435791015625,-0.3797874450683594,-1.0833849906921387,0.4669017195701599
1761310945308049000,1.224048828125,-0.7395315170288086,-0.47027480602264404,-0.7824653387069702
1761310945326660400,1.242660400390625,-0.07776069641113281,-0.9100285768508911,-0.6488105654716492
1761310945345273300,1.2612734375,0.2181844711303711,-1.4819512367248535,0.5045660734176636
1761310945363884800,1.279884765625,-0.8959293365478516,-1.2657620906829834,-0.07563531398773193
1761310945382497800,1.298497802734375,-1.7307748794555664,-0.7058811187744141,0.10711145401000977
1761310945401109200,1.317109130859375,-1.5598344802856445,0.27379918098449707,0.43099355697631836
1761310945419722200,1.33572216796875,-1.6739611625671387,1.3669312000274658,0.8438782095909119
1761310945438334000,1.354333984375,-1.2611055374145508,1.2652077674865723,0.5295134782791138
1761310945456946700,1.37294677734375,-0.7140817642211914,0.6715908050537109,0.4693338871002197
1761310945475558400,1.391558349609375,-1.0153179168701172,0.20916986465454102,0.21106934547424316
1761310945494171400,1.41017138671875,-1.0370330810546875,-0.2989232540130615,0.3033778667449951
1761310945512782800,1.428782958984375,-0.015460968017578125,-0.32037174701690674,0.652694046497345
1761310945531395800,1.447395751953125,-1.1285514831542969,0.5130438804626465,-0.1960129737854004
1761310945550007300,1.46600732421875,-0.5175685882568359,0.15188288688659668,-0.46202796697616577
1761310945568620300,1.484620361328125,0.8001699447631836,-0.1188199520111084,-0.2750513553619385
1761310945587231700,1.503231689453125,1.16766357421875,-0.1245490312576294,0.06644785404205322
1761310945605844700,1.5218447265625,0.8454656600952148,0.16686034202575684,-0.8067927956581116
1761310945624456200,1.540456298828125,0.566859245300293,-0.20516455173492432,-1.3098609447479248
1761310945643069400,1.5590693359375,0.40042591094970703,-0.007247328758239746,-0.602544903755188
1761310945661681000,1.577680908203125,-0.1469593048095703,0.3588128089904785,-0.10296279191970825
1761310945680294000,1.5962939453125,-0.5879983901977539,0.15091156959533691,0.22465533018112183
1761310945698905300,1.6149052734375,0.031592369079589844,0.3328685760498047,0.744774341583252
1761310945717518300,1.633518310546875,-0.4939155578613281,0.6023352146148682,1.3166487216949463
1761310945736129800,1.6521298828125,0.34868431091308594,0.7420555353164673,1.31757390499115
1761310945754742800,1.67074267578125,0.7185802459716797,0.3188556432723999,1.5867981910705566
1761310945773354200,1.689354248046875,0.13120174407958984,-0.12321221828460693,1.2637009620666504
1761310945791967200,1.70796728515625,-0.7300271987915039,-0.1918717622756958,-0.9339891076087952
1761310945810578700,1.72657861328125,-1.3436546325683594,0.8060239553451538,-3.200530529022217
1761310945829191700,1.745191650390625,-0.6156940460205078,0.14989471435546875,0.32624441385269165
1761310945847803400,1.763803466796875,0.2844867706298828,0.6098854541778564,0.5994013547897339
1761310945866416400,1.78241650390625,1.1279478073120117,0.6190215349197388,0.5148234367370605
1761310945885027800,1.80102783203125,1.4493522644042969,0.5724221467971802,0.323844850063324
1761310945903640800,1.819640869140625,0.8908224105834961,0.7042850255966187,0.051871150732040405
1761310945922252300,1.838252197265625,0.10545730590820312,0.7648578882217407,-0.26274368166923523
1761310945940865300,1.856865234375,-0.15997695922851562,0.6675487756729126,-0.4855879545211792
1761310945959476700,1.875476806640625,-0.11535167694091797,0.6295962333679199,0.21184119582176208
1761310945978089700,1.89408984375,0.4411506652832031,0.7162715196609497,-0.5848219394683838
1761310945996701200,1.912701171875,-0.010503768920898438,0.5397663116455078,-0.5838052034378052
1761310946015314400,1.931314453125,0.16339588165283203,0.4906715154647827,-0.013405382633209229
1761310946033926000,1.94992578125,-0.03852558135986328,0.38663196563720703,0.07036793231964111
1761310946052539000,1.968538818359375,-0.34897327423095703,0.6527647972106934,-0.03356659412384033
1761310946071150300,1.987150390625,-0.7899065017700195,0.762641429901123,-0.5529459714889526
1761310946089763300,2.005763427734375,-0.40537452697753906,0.9732725620269775,-0.4289906620979309
1761310946108374800,2.024374755859375,-0.15965938568115234,0.9062328338623047,-0.3214234709739685
1761310946126987800,2.04298779296875,-0.5811557769775391,0.8751270771026611,-1.1340210437774658
1761310946145599500,2.061599609375,-0.6613407135009766,0.5917713642120361,-0.9518022537231445
1761310946164212500,2.08021240234375,-0.5431499481201172,0.6533145904541016,-1.0920106172561646
1761310946182824000,2.098823974609375,-0.28802967071533203,0.6977298259735107,-0.9772899746894836
1761310946201437000,2.11743701171875,-0.024381637573242188,0.7386274337768555,-1.0924477577209473
1761310946220048400,2.13604833984375,0.45262718200683594,0.5261142253875732,-0.7990036606788635
1761310946238661400,2.154661376953125,0.06725311279296875,0.1997067928314209,-1.059187889099121
1761310946257272800,2.17327294921875,-0.17197322845458984,0.36131811141967773,-0.7630758285522461
1761310946275885800,2.1918857421875,-0.17391300201416016,0.6772356033325195,0.043430447578430176
1761310946294497500,2.21049755859375,0.11484813690185547,0.7127254009246826,0.5577704906463623
1761310946313110500,2.229110595703125,0.8137598037719727,0.06669926643371582,0.474473237991333
1761310946331722000,2.247721923828125,1.439640998840332,-0.2019035816192627,0.08958172798156738
1761310946350335000,2.2663349609375,1.3664798736572266,-0.2467052936553955,-0.36017119884490967
1761310946368946400,2.284946533203125,0.8560752868652344,-0.23236560821533203,-0.6413626670837402
1761310946387559400,2.303559326171875,0.6043739318847656,-0.2724745273590088,-0.46008408069610596
1761310946406171100,2.322171142578125,0.37619972229003906,-0.3998830318450928,0.7972567081451416
1761310946424784100,2.3407841796875,0.44866466522216797,-0.09456610679626465,1.1169333457946777
1761310946443395600,2.3593955078125,0.2733030319213867,0.46828150749206543,1.1279199123382568
1761310946462008600,2.378008544921875,0.001873016357421875,0.36102890968322754,1.1185190677642822
1761310946480620000,2.3966201171875,-0.021231651306152344,-0.13512563705444336,0.5990595817565918
1761310946499233000,2.41523291015625,-0.218231201171875,-0.561521053314209,-0.09923434257507324
1761310946517844700,2.4338447265625,-0.1371021270751953,-0.9898228645324707,-0.3855903148651123
1761310946536457700,2.452457763671875,0.42167091369628906,-1.2544183731079102,-0.4595581293106079
1761310946555069200,2.471069091796875,0.8503952026367188,-1.6377462148666382,-0.58846116065979
1761310946573682200,2.48968212890625,0.5171003341674805,-2.138949394226074,-0.866097092628479
1761310946592293600,2.508293701171875,0.24630165100097656,-2.1677803993225098,-0.7441757917404175
1761310946610907000,2.526906982421875,-0.015384674072265625,-1.8115814924240112,-0.31191158294677734
1761310946629518300,2.545518310546875,-0.05454826354980469,-1.343395471572876,0.11124753952026367
1761310946648131300,2.56413134765625,0.46790504455566406,-1.016430377960205,0.2788729667663574
1761310946666742800,2.58274267578125,0.29315948486328125,-0.7565701007843018,0.1636044979095459
1761310946685355800,2.601355712890625,-0.6129751205444336,-0.41669487953186035,0.2415485382080078
1761310946703967200,2.61996728515625,-1.2640514373779297,-0.2460012435913086,0.19681382179260254
1761310946722580500,2.63858056640625,-1.3326129913330078,-0.23382282257080078,0.18555998802185059
1761310946741192000,2.65719189453125,-1.107994556427002,-0.32100582122802734,0.15709805488586426
1761310946759805000,2.675804931640625,-1.0138020515441895,-0.40520429611206055,-0.010275840759277344
1761310946778416400,2.69441650390625,-0.7262711524963379,-0.36530590057373047,0.29491734504699707
1761310946797029400,2.713029296875,-0.26722240447998047,0.06485700607299805,0.981499433517456
1761310946815641000,2.73164111328125,-0.35631847381591797,0.3713395595550537,1.650634527206421
1761310946834254000,2.750254150390625,-0.24816417694091797,0.4173004627227783,1.7014086246490479
1761310946852865500,2.768865478515625,0.15584087371826172,0.27986955642700195,1.2125458717346191
1761310946871478500,2.787478515625,0.3131132125854492,0.08315825462341309,0.6139917373657227
1761310946890090200,2.80609033203125,0.28277015686035156,-0.051569461822509766,-0.4352731704711914
1761310946908703200,2.824703125,0.9632768630981445,-0.588233232498169,-0.29817795753479004
1761310946927314700,2.843314697265625,0.9589004516601562,-0.1455230712890625,-0.11299514770507812
1761310946945927700,2.861927734375,0.42336273193359375,0.27527427673339844,-0.0903024673461914
1761310946964539100,2.8805390625,-0.17148780822753906,0.41709160804748535,0.13430356979370117
1761310946983152400,2.89915234375,-0.7344875335693359,-0.0888376235961914,0.527369499206543
1761310947001763800,2.917763916015625,-1.316826343536377,0.34268856048583984,-0.19182491302490234
1761310947020376800,2.936376953125,-1.9957232475280762,0.05236172676086426,0.25623655319213867
1761310947038988500,2.954988525390625,-2.197359561920166,0.21320748329162598,0.926750659942627
1761310947057601500,2.9736015625,-1.8461246490478516,0.3789560794830322,1.3024721145629883
1761310947076213000,2.992212890625,-1.1966962814331055,0.29007887840270996,1.578354835510254
1761310947094826000,3.010825927734375,-0.6836652755737305,0.16397953033447266,1.3562211990356445
1761310947113437700,3.029437744140625,-0.3471555709838867,-0.03122711181640625,1.9251294136047363
1761310947132050700,3.04805078125,-0.16747760772705078,0.1314551830291748,1.6305756568908691
1761310947150662100,3.066662109375,-0.20570945739746094,0.17792344093322754,0.9535751342773438
1761310947169275100,3.085275146484375,-0.46817731857299805,-0.22648191452026367,1.206223964691162
1761310947187886800,3.103886962890625,-0.7946419715881348,0.2374708652496338,1.0888066291809082
1761310947206499800,3.122499755859375,-0.6817069053649902,0.3546919822692871,1.0889220237731934
1761310947225111300,3.141111328125,-0.3807988166809082,-0.2041032314300537,0.37409496307373047
1761310947243724300,3.159724365234375,-0.10875129699707031,-0.5537943840026855,0.2480297088623047
1761310947262336000,3.1783359375,-0.10923290252685547,-0.7420129776000977,0.22659945487976074
1761310947280949000,3.196948974609375,-0.7075567245483398,-0.3489046096801758,0.08819937705993652
1761310947299560400,3.215560546875,-2.070896625518799,0.7048492431640625,1.5619070529937744
1761310947318173700,3.234173583984375,-0.7839517593383789,1.1705048084259033,2.903938055038452
1761310947336785200,3.25278515625,1.7178764343261719,0.529911994934082,2.8870670795440674
1761310947355398100,3.271398193359375,2.462956428527832,-0.3151888847351074,1.171750545501709
1761310947374009900,3.290009765625,2.0298681259155273,-1.6940844058990479,-0.44181108474731445
1761310947392622800,3.308622802734375,1.4986324310302734,-2.365030288696289,-1.1081589460372925
1761310947411234300,3.327234375,1.169107437133789,-2.4730143547058105,-1.2078803777694702
1761310947429847600,3.34584765625,0.37270545959472656,-2.355276584625244,-1.5688400268554688
1761310947448459000,3.364458984375,-0.5006942749023438,-1.9714577198028564,-1.5885915756225586
1761310947467072000,3.383072021484375,-1.4044532775878906,-1.7698867321014404,-1.5519442558288574
1761310947485683500,3.401683349609375,-1.677785873413086,-0.05309486389160156,-0.9908875226974487
1761310947504296700,3.420296630859375,-2.229656219482422,1.494354248046875,-0.21685391664505005
1761310947522908200,3.438908203125,-2.449828624725342,2.478994369506836,0.5171356797218323
1761310947541521400,3.457521484375,-0.3596763610839844,1.6119952201843262,0.47372740507125854
1761310947560132900,3.4761328125,0.811004638671875,0.5542140007019043,-0.46527427434921265
1761310947578745900,3.494745849609375,0.7324390411376953,0.19229698181152344,-1.9512988328933716
1761310947597357600,3.513357666015625,0.7967243194580078,-0.2362370491027832,-3.390407085418701
1761310947615970600,3.531970458984375,0.8840694427490234,-0.9070267677307129,-3.2880091667175293
1761310947634582000,3.55058203125,0.845402717590332,-0.6665153503417969,-3.5529673099517822
1761310947653195300,3.5691953125,0.904850959777832,-0.2145380973815918,-3.198503017425537
1761310947671806700,3.587806640625,0.7451591491699219,0.3826456069946289,-1.4173202514648438
1761310947690419700,3.606419677734375,-0.11025524139404297,1.2997231483459473,-0.862302303314209
1761310947709031400,3.625031494140625,-0.4233379364013672,1.0445280075073242,-1.2491021156311035
1761310947727644400,3.64364453125,-0.16889190673828125,0.2479538917541504,-1.2613306045532227
1761310947746256100,3.662256103515625,-0.06335830688476562,0.03180694580078125,-1.6627932786941528
1761310947764869000,3.680869140625,0.17962265014648438,-0.18756484985351562,-1.202019453048706
1761310947783480600,3.69948046875,0.4872617721557617,1.4322843551635742,0.20745399594306946
1761310947802093800,3.71809375,1.3268141746520996,0.7384357452392578,0.5252394080162048
1761310947820705300,3.736705322265625,0.3049321174621582,0.10882234573364258,1.0500893592834473
1761310947839318500,3.755318603515625,-0.659815788269043,0.45859766006469727,0.6251709461212158
1761310947857930000,3.773929931640625,-1.366112232208252,-0.1312251091003418,0.27594950795173645
1761310947876543000,3.79254296875,-1.914466381072998,0.00896596908569336,-0.09958410263061523
1761310947895154700,3.81115478515625,-2.146850109100342,-0.13707828521728516,-0.26058125495910645
1761310947913767700,3.829767578125,-1.8983421325683594,-0.03401660919189453,-0.8508793711662292
1761310947932379400,3.84837939453125,-1.6808857917785645,0.39132213592529297,-1.4225614070892334
1761310947950992400,3.866992431640625,-1.1814298629760742,1.1677274703979492,-1.5580862760543823
1761310947969604000,3.88560400390625,-0.5735931396484375,1.79449462890625,-1.1122236251831055
1761310947988217000,3.904217041015625,0.5541586875915527,1.947519302368164,-0.47239160537719727
1761310948006828800,3.922828857421875,1.6874847412109375,1.4255094528198242,-0.08824998140335083
1761310948025441800,3.94144189453125,1.7927947044372559,0.5556035041809082,-0.43116986751556396
1761310948044053200,3.96005322265625,1.942497730255127,-0.5186324119567871,-1.2999842166900635
1761310948062666500,3.97866650390625,2.3092761039733887,-1.4165935516357422,-1.467519998550415
1761310948081278000,3.99727783203125,2.976259708404541,-2.5150146484375,-0.8519542813301086
1761310948099891200,4.01589111328125,3.0230889320373535,-3.0532310009002686,-0.2785857021808624
1761310948118502700,4.034502685546875,2.2776198387145996,-3.1048660278320312,0.13797231018543243
1761310948137116000,4.053115966796875,1.0104432106018066,-2.9156370162963867,0.6709474325180054
1761310948155727400,4.071727294921875,-0.7392206192016602,-1.8843555450439453,1.4953759908676147
1761310948174340600,4.090340576171875,-1.8195314407348633,-0.32717466354370117,2.640212297439575
1761310948192952000,4.1089521484375,-2.056217670440674,0.7681312561035156,3.4159021377563477
1761310948211565300,4.1275654296875,-2.2322945594787598,1.047412395477295,3.122872829437256
1761310948230176800,4.1461767578125,-1.9011240005493164,0.45455312728881836,1.4007580280303955
1761310948248789800,4.164789794921875,-1.4650850296020508,-0.38248157501220703,-0.6686517000198364
1761310948267401500,4.1834013671875,-1.208014965057373,-1.1330437660217285,-1.8720194101333618
1761310948286014700,4.2020146484375,-0.581784725189209,-1.6190037727355957,-2.0829172134399414
1761310948304626200,4.220626220703125,0.5626626014709473,-1.6971521377563477,-1.2401326894760132
1761310948323239400,4.239239501953125,1.88399076461792,-1.309356689453125,0.14440670609474182
1761310948341851000,4.257850830078125,1.762430191040039,-0.8964338302612305,0.9090747833251953
1761310948360464100,4.276464111328125,-0.09153127670288086,-0.08569145202636719,1.2077388763427734
1761310948379075600,4.29507568359375,-1.9256749153137207,0.8033032417297363,1.243516206741333
1761310948397688800,4.313688720703125,-1.555793285369873,1.0880146026611328,0.9904136657714844
1761310948416300300,4.33230029296875,-1.691016674041748,1.1416010856628418,0.3915952444076538
1761310948434913500,4.35091357421875,-1.705953598022461,1.009415626525879,-0.014510929584503174
1761310948453525000,4.36952490234375,-1.6703577041625977,0.8131866455078125,-0.19307592511177063
1761310948472138200,4.38813818359375,-1.6971540451049805,0.7040462493896484,-0.29388484358787537
1761310948490750000,4.40675,-1.687540054321289,0.6065187454223633,-0.43046748638153076
1761310948509363000,4.425363037109375,-1.6535725593566895,0.2171497344970703,-0.6124897599220276
1761310948527974700,4.443974609375,-1.3407583236694336,-0.05783510208129883,-0.7259875535964966
1761310948546587600,4.462587646484375,-0.8046326637268066,-0.291015625,-0.780870795249939
1761310948565199400,4.481199462890625,-0.32201337814331055,0.17922592163085938,-0.6116178631782532
1761310948583812400,4.499812255859375,-0.21960687637329102,0.9179568290710449,0.22626429796218872
1761310948602424000,4.518424072265625,-0.2787895202636719,1.9124975204467773,1.1902587413787842
1761310948621037000,4.537037109375,0.14907169342041016,2.2973337173461914,1.6178979873657227
1761310948639648800,4.555648681640625,1.191847801208496,1.977114200592041,1.5361294746398926
1761310948658262000,4.574261962890625,1.9448137283325195,1.42047119140625,1.0647615194320679
1761310948676873500,4.59287353515625,3.340970993041992,0.8427038192749023,0.8432268500328064
1761310948695486700,4.61148681640625,2.0838136672973633,1.0287775993347168,1.1447622776031494
1761310948714098200,4.63009814453125,0.3002042770385742,1.3367767333984375,0.8555213809013367
1761310948732711400,4.64871142578125,-0.5194520950317383,1.330582618713379,0.06432530283927917
1761310948751323100,4.6673232421875,-0.48311328887939453,0.991424560546875,-0.33650121092796326
1761310948769936100,4.68593603515625,1.0463905334472656,0.15452003479003906,-0.9599318504333496
1761310948788547800,4.7045478515625,3.2985973358154297,-1.2927255630493164,-1.7531986236572266
1761310948807160800,4.723160888671875,4.411081314086914,-2.3833749294281006,-1.8266923427581787
1761310948825772500,4.7417724609375,3.4577579498291016,-2.8373236656188965,-1.4595979452133179
1761310948844385800,4.7603857421875,1.5395574569702148,-2.4142167568206787,-1.220871090888977
1761310948862997200,4.778997314453125,-0.22685527801513672,-2.1609883308410645,-1.0415483713150024
1761310948881610500,4.797610595703125,-1.7299613952636719,-2.322364330291748,-1.244230031967163
1761310948900222200,4.81622216796875,-2.3013648986816406,-2.1818015575408936,-1.355588674545288
1761310948918835200,4.834835205078125,-2.077798843383789,-1.6694393157958984,-0.8846248388290405
1761310948937447000,4.853447021484375,-1.8468976020812988,-0.5842318534851074,-0.04778486490249634
1761310948956060200,4.87206005859375,-1.8216948509216309,0.3958778381347656,0.36547380685806274
1761310948974671600,4.890671630859375,-1.0373883247375488,0.33716869354248047,-0.09388083219528198
1761310948993284900,4.909284912109375,-0.11034679412841797,-0.2818284034729004,-1.0671727657318115
1761310949011896300,4.927896240234375,0.17970943450927734,-0.7623724937438965,-1.958448886871338
1761310949030509600,4.946509521484375,0.13054370880126953,-0.9752984046936035,-2.558851480484009
1761310949049121300,4.965121337890625,-0.024007797241210938,-1.160219669342041,-2.895526170730591
1761310949067734500,4.983734619140625,-0.010676383972167969,-1.2531895637512207,-3.141791343688965
1761310949086346000,5.002345947265625,0.08856487274169922,-1.1483073234558105,-2.4869542121887207
1761310949104959200,5.020959228515625,-0.08283233642578125,-0.4977388381958008,-1.381697416305542
1761310949123571000,5.039571044921875,0.1498098373413086,-0.516242504119873,0.05426892638206482
1761310949142184000,5.058183837890625,0.5821018218994141,-0.08117151260375977,0.7223623991012573
1761310949160795600,5.076795654296875,0.5476207733154297,0.35348987579345703,0.9020692706108093
1761310949179409000,5.095408935546875,-0.030798912048339844,0.49479246139526367,0.4781394302845001
1761310949198020400,5.114020263671875,-0.1252918243408203,0.5417661666870117,0.5595681667327881
1761310949216633600,5.132633544921875,0.059131622314453125,0.8390517234802246,0.6513593792915344
1761310949235245300,5.151245361328125,-0.29326629638671875,1.1259956359863281,0.30710265040397644
1761310949253858300,5.1698583984375,-0.28763866424560547,1.291600227355957,-0.264719158411026
1761310949272470000,5.188469970703125,-0.07859039306640625,1.2788171768188477,-1.1038179397583008
1761310949291083300,5.207083251953125,0.5277738571166992,1.14723539352417,-1.848166584968567
1761310949309695000,5.225695068359375,1.2380332946777344,1.0865368843078613,-2.0434787273406982
1761310949328308000,5.244307861328125,1.2283048629760742,1.146585464477539,-1.9317965507507324
1761310949346919700,5.262919677734375,1.1111822128295898,1.1636486053466797,-1.8488008975982666
1761310949365533000,5.281532958984375,0.9376373291015625,1.0540647506713867,-1.7549248933792114
1761310949384144600,5.30014453125,1.0746498107910156,0.8714656829833984,-1.3785030841827393
1761310949402757600,5.318757568359375,0.7384414672851562,0.7059874534606934,-0.8487247824668884
1761310949421369300,5.337369384765625,0.44063758850097656,0.33864879608154297,-1.3599884510040283
1761310949439982600,5.355982666015625,1.2980070114135742,-0.8062243461608887,-2.6496870517730713
1761310949458594300,5.37459423828125,2.2565383911132812,-2.1602225303649902,-3.283946990966797
1761310949477207300,5.393207275390625,2.923130989074707,-3.32030987739563,-3.1973671913146973
1761310949495819000,5.411819091796875,2.754030227661133,-4.070534706115723,-2.301614761352539
1761310949514432300,5.430432373046875,2.449948310852051,-3.5385282039642334,-0.8932192325592041
1761310949533044000,5.4490439453125,1.4145541191101074,-2.5083892345428467,0.9744458198547363
1761310949551657000,5.467656982421875,-0.2794184684753418,-0.9756851196289062,2.642327308654785
1761310949570268700,5.4862685546875,-1.315101146697998,0.31336450576782227,4.050134181976318
1761310949588882000,5.5048818359375,-1.3037500381469727,0.7702879905700684,4.638657093048096
1761310949607493600,5.52349365234375,-1.0570225715637207,0.37638378143310547,3.228315830230713
1761310949626106600,5.542106689453125,-1.0019879341125488,-0.5389447212219238,1.0079275369644165
1761310949644718300,5.56071826171875,-0.6971993446350098,-1.2168993949890137,-0.994102418422699
1761310949663331600,5.57933154296875,-0.42807960510253906,-1.6236472129821777,-1.959458827972412
1761310949681943300,5.597943359375,-0.19787073135375977,-1.4986777305603027,-1.8869285583496094
1761310949700556300,5.616556396484375,0.08641958236694336,-1.022387981414795,-0.7620542645454407
1761310949719168000,5.63516796875,0.059163570404052734,-0.4945502281188965,0.1512383222579956
1761310949737781200,5.65378125,-0.41035032272338867,0.057013511657714844,0.6314418911933899
1761310949756393000,5.67239306640625,-0.8927874565124512,0.37151098251342773,0.7474511861801147
1761310949775006200,5.691006103515625,-1.0622539520263672,0.5433621406555176,0.7369413375854492
1761310949793618000,5.709617919921875,-0.9256749153137207,0.40424299240112305,0.5649526715278625
1761310949812231000,5.72823095703125,-0.9154305458068848,-0.14169645309448242,0.36891740560531616
1761310949830842600,5.746842529296875,-0.635434627532959,-0.789463996887207,0.24656248092651367
1761310949849455900,5.765455810546875,-0.8070273399353027,-1.2441706657409668,0.1119452714920044
1761310949868067600,5.784067626953125,-0.8865914344787598,-1.1417741775512695,0.1407843828201294
1761310949886680800,5.802680908203125,-1.1021223068237305,-0.6376557350158691,0.40500426292419434
1761310949905292300,5.821292236328125,-1.6055903434753418,0.09513187408447266,0.7185130715370178
1761310949923905500,5.839905517578125,-2.301126480102539,0.6433796882629395,0.7824013233184814
1761310949942517200,5.858517333984375,-1.987144947052002,1.2022290229797363,0.9727668166160583
1761310949961130500,5.877130615234375,-1.5019440650939941,1.316603660583496,0.8166855573654175
1761310949979742200,5.8957421875,-1.4479737281799316,1.4659724235534668,0.2467895746231079
1761310949998355500,5.91435546875,-1.3298702239990234,1.371077537536621,-0.865763247013092
1761310950016967000,5.932966796875,-0.46008920669555664,0.7920174598693848,-0.8138256072998047
1761310950035580200,5.951580078125,0.30008888244628906,0.863093376159668,-0.7026573419570923
1761310950054191900,5.97019189453125,0.22009658813476562,0.8899898529052734,-0.7586758136749268
1761310950072805000,5.98880517578125,0.6771163940429688,1.4788942337036133,-0.6653417348861694
1761310950091416800,6.007416748046875,1.3058385848999023,1.6033282279968262,0.2246032953262329
1761310950110030000,6.026030029296875,0.32724475860595703,1.6550655364990234,0.11246597766876221
1761310950128641500,6.0446416015625,-0.3524036407470703,1.567399501800537,-0.4647330045700073
1761310950147254800,6.0632548828125,1.281036376953125,0.9578852653503418,-0.059085071086883545
1761310950165866500,6.081866455078125,3.81455135345459,-0.14328455924987793,0.07299154996871948
1761310950184479700,6.100479736328125,5.989153861999512,-1.3752219676971436,-0.25346165895462036
1761310950203091500,6.119091552734375,6.554913520812988,-2.363280773162842,-0.5342968106269836
1761310950221704700,6.13770458984375,5.098370552062988,-2.6552090644836426,-0.4135091304779053
1761310950240316400,6.15631640625,1.8595972061157227,-2.4387006759643555,-0.3251749575138092
1761310950258929400,6.174929443359375,-1.451754093170166,-2.05647349357605,-0.32250720262527466
1761310950277541000,6.193541015625,-3.838698387145996,-1.5650484561920166,-0.31552159786224365
1761310950296154400,6.212154296875,-4.792290687561035,-1.0738847255706787,-0.004109680652618408
1761310950314766000,6.23076611328125,-4.346846580505371,-0.7039713859558105,0.30794423818588257
1761310950333379300,6.24937939453125,-3.195244789123535,-0.6189122200012207,0.7105923891067505
1761310950351991000,6.267990966796875,-2.1102943420410156,-0.4067716598510742,0.9679408073425293
1761310950370604300,6.286604248046875,-1.1752967834472656,-0.3016049861907959,0.979675829410553
1761310950389216000,6.305216064453125,0.09374237060546875,-0.5128912925720215,0.6918015480041504
1761310950407829000,6.3238291015625,1.1512346267700195,-0.7597732543945312,-0.19837576150894165
1761310950426440700,6.342440673828125,1.9527111053466797,-0.834871768951416,-0.7688993215560913
1761310950445054000,6.361053955078125,1.8786497116088867,-0.8617503643035889,-1.0089915990829468
1761310950463665700,6.379665771484375,1.1183242797851562,-0.731823205947876,-1.1201450824737549
1761310950482279000,6.39827880859375,0.31786155700683594,-0.6148910522460938,-1.0958991050720215
1761310950500890600,6.416890625,-0.34839820861816406,-0.3094441890716553,-1.0843340158462524
1761310950519504000,6.43550390625,-0.93994140625,-0.011459589004516602,-1.0182229280471802
1761310950538115600,6.454115478515625,-0.8398265838623047,-0.0008416175842285156,-0.7364972829818726
1761310950556728800,6.472728759765625,-0.34449291229248047,0.17203450202941895,-0.3144359588623047
1761310950575340300,6.49134033203125,0.18986988067626953,0.48698997497558594,0.18226343393325806
1761310950593953500,6.50995361328125,0.33013248443603516,0.6322042942047119,0.4788295030593872
1761310950612565200,6.528565185546875,0.3668546676635742,0.6846840381622314,0.5700395703315735
1761310950631178500,6.547178466796875,0.4069175720214844,0.6093237400054932,0.6911075115203857
1761310950649790200,6.565790283203125,0.5888547897338867,0.5677411556243896,0.29427188634872437
1761310950668403500,6.584403564453125,0.6262884140014648,0.5990478992462158,-0.22136050462722778
1761310950687015200,6.60301513671875,0.03516864776611328,0.5534310340881348,-0.6353664398193359
1761310950705628400,6.62162841796875,0.02604961395263672,0.5692975521087646,-0.7548625469207764
1761310950724240100,6.640240234375,-0.23925399780273438,0.6999325752258301,-0.16465991735458374
1761310950742853400,6.658853271484375,-0.7554616928100586,1.1648972034454346,0.5249453186988831
1761310950761465000,6.677465087890625,-0.8254861831665039,1.3377101421356201,1.0967649221420288
1761310950780078000,6.696078125,-0.7949676513671875,1.588149070739746,1.7712968587875366
1761310950798689800,6.714689697265625,-1.2755498886108398,1.6090617179870605,2.1895036697387695
1761310950817303000,6.733302978515625,-1.468137264251709,1.2909095287322998,1.6970845460891724
1761310950835914800,6.751914794921875,-0.019797325134277344,0.33537721633911133,0.5674747824668884
1761310950854528000,6.770528076171875,1.9121179580688477,-0.6382205486297607,0.09315484762191772
1761310950873139700,6.7891396484375,3.94539737701416,-1.464004397392273,0.0513119101524353
1761310950891753000,6.8077529296875,5.7014055252075195,-2.2243173122406006,-0.4524548351764679
1761310950910364700,6.82636474609375,5.184525489807129,-2.597306966781616,-1.692075252532959
1761310950928978000,6.84497802734375,3.550021171569824,-2.5426595211029053,-2.4576830863952637
1761310950947589600,6.863589599609375,1.6587533950805664,-2.166471481323242,-1.9290997982025146
1761310950966202600,6.88220263671875,-0.37584495544433594,-1.0935378074645996,-0.5029584765434265
1761310950984814600,6.900814697265625,-2.1273460388183594,0.07639360427856445,1.1620534658432007
1761310951003427600,6.919427490234375,-3.159792423248291,0.924675703048706,2.0902252197265625
1761310951022039300,6.938039306640625,-2.8623881340026855,0.7891061305999756,1.7031368017196655
1761310951040652500,6.956652587890625,-1.6647043228149414,-0.20224571228027344,0.3220231533050537
1761310951059264300,6.97526416015625,-0.1911602020263672,-0.9863612651824951,-0.6477035284042358
1761310951077877500,6.99387744140625,0.8701944351196289,-1.2275338172912598,-1.042433738708496
1761310951096489200,7.0124892578125,0.6771621704101562,-1.289882779121399,-1.289170265197754
1761310951115102500,7.0311025390625,0.03181743621826172,-1.0028340816497803,-0.7231208086013794
1761310951133714200,7.049714111328125,-0.46578502655029297,-0.41964006423950195,-0.0017539262771606445
1761310951152327400,7.068327392578125,-1.007436752319336,0.14667248725891113,0.6513912677764893
1761310951170939100,7.086939208984375,-1.5596847534179688,0.693720817565918,1.356030821800232
1761310951189552400,7.105552490234375,-1.7375621795654297,1.078209638595581,2.082742214202881
1761310951208164000,7.1241640625,-1.7460975646972656,1.13289475440979,2.132779598236084
1761310951226777300,7.14277734375,-1.7226371765136719,0.9003770351409912,1.4636125564575195
1761310951245389000,7.16138916015625,-1.377326488494873,0.49776554107666016,0.49637508392333984
1761310951264002000,7.180001953125,-1.1269989013671875,0.322404146194458,-0.2563610076904297
1761310951282614000,7.198614013671875,-0.8574848175048828,0.5655491352081299,-0.3733898401260376
1761310951301227000,7.21722705078125,-0.8011531829833984,1.1014697551727295,-0.01929175853729248
1761310951319838700,7.235838623046875,-0.8051767349243164,1.482645034790039,0.17721402645111084
1761310951338452000,7.254451904296875,-0.7105951309204102,1.4715962409973145,0.07360649108886719
1761310951357063700,7.273063720703125,-0.3512287139892578,1.3121600151062012,0.20596837997436523
1761310951375677000,7.291677001953125,0.2576265335083008,1.1694607734680176,0.12452936172485352
1761310951394288600,7.31028857421875,0.36269664764404297,0.9257829189300537,-0.2863721251487732
1761310951412902000,7.32890185546875,0.3216686248779297,0.7578423023223877,-0.8710691928863525
1761310951431513600,7.347513671875,0.4482440948486328,0.9547898769378662,-0.9721442461013794
1761310951450126800,7.366126953125,0.30713748931884766,1.5472111701965332,-0.39793068170547485
1761310951468738600,7.384738525390625,-0.3722848892211914,2.137941837310791,0.0993238091468811
1761310951487351800,7.403351806640625,-0.12232017517089844,2.0492286682128906,0.519411027431488
1761310951505963500,7.421963623046875,1.1316986083984375,1.0415449142456055,0.4448411464691162
1761310951524576800,7.44057666015625,2.8148679733276367,-0.02717447280883789,0.2748291790485382
1761310951543188500,7.4591884765625,4.1762189865112305,-0.7104556560516357,-0.030743300914764404
1761310951561801700,7.4778017578125,4.625920295715332,-1.3555316925048828,-0.15125389397144318
1761310951580413400,7.496413330078125,3.3747129440307617,-1.8932664394378662,0.01797521859407425
1761310951599026700,7.515026611328125,0.7051639556884766,-1.996601939201355,0.02198711782693863
1761310951617638400,7.533638427734375,-1.8303146362304688,-2.089712142944336,-0.1765541136264801
1761310951636251600,7.552251708984375,-3.3647336959838867,-1.9004426002502441,-0.6107454299926758
1761310951654863000,7.570863037109375,-3.7814254760742188,-1.793689489364624,-0.5951277017593384
1761310951673476400,7.589476318359375,-3.4123878479003906,-1.5282576084136963,0.03776576370000839
1761310951692088000,7.608088134765625,-2.4747395515441895,-1.216174602508545,0.6458117961883545
1761310951710701300,7.626701416015625,-0.662714958190918,-1.233529806137085,0.9865950345993042
1761310951729313000,7.64531298828125,0.8027982711791992,-1.086151361465454,0.996554970741272
1761310951747926300,7.66392626953125,1.1139516830444336,-0.9727771282196045,0.7413861751556396
1761310951766538000,7.6825380859375,1.1753616333007812,-0.9545068740844727,0.22749635577201843
1761310951785151200,7.701151123046875,1.119490623474121,-0.7973418235778809,-0.35245051980018616
1761310951803763000,7.719762939453125,0.5478353500366211,-1.003335952758789,0.104255810379982
1761310951822376200,7.738376220703125,-0.1399526596069336,-0.28761887550354004,0.20018112659454346
1761310951840988000,7.75698779296875,-0.8517389297485352,-0.1286618709564209,0.09489788115024567
1761310951859601200,7.77560107421875,-0.9741201400756836,-0.033681392669677734,-0.2724149227142334
1761310951878212900,7.794212890625,-1.0392780303955078,-0.14295363426208496,-0.6265827417373657
1761310951896826000,7.812826171875,-1.1099863052368164,-0.0898594856262207,-0.8366777300834656
1761310951915437800,7.831437744140625,-0.9334545135498047,0.08978819847106934,-0.6746853590011597
1761310951934051000,7.850051025390625,-0.3304452896118164,0.2138051986694336,-0.25653424859046936
1761310951952662800,7.868662841796875,0.2899036407470703,0.32679104804992676,0.023224204778671265
1761310951971276000,7.887276123046875,0.5514373779296875,0.36304783821105957,-0.00018486380577087402
1761310951989887700,7.9058876953125,0.5134859085083008,0.4448976516723633,-0.18394610285758972
1761310952008501000,7.9245009765625,0.21048355102539062,0.5496323108673096,-0.44126585125923157
1761310952027112700,7.94311279296875,-0.06631851196289062,0.5564298629760742,-0.73088538646698
1761310952045725700,7.9617255859375,-0.13318538665771484,0.539724588394165,-0.8197775483131409
1761310952064337700,7.980337646484375,0.026979446411132812,0.6099934577941895,-0.6180091500282288
1761310952082950700,7.99895068359375,0.3377065658569336,0.8677642345428467,-0.3568202555179596
1761310952101562400,8.017562255859374,0.8932647705078125,1.2391533851623535,0.17847886681556702
1761310952120175600,8.036175537109376,1.1887397766113281,1.5437595844268799,0.6267299056053162
1761310952138787300,8.054787353515625,1.6396217346191406,1.751373291015625,1.3579599857330322
1761310952157400600,8.073400634765624,1.564570426940918,1.9291284084320068,1.8848739862442017
1761310952176012300,8.09201220703125,0.6594734191894531,1.3602216243743896,1.1120390892028809
1761310952194625500,8.11062548828125,0.6511592864990234,0.23845934867858887,-0.34839293360710144
1761310952213237200,8.1292373046875,1.066849708557129,-0.944716215133667,-1.6444085836410522
1761310952231850500,8.1478505859375,1.809361457824707,-1.90767240524292,-2.5960135459899902
1761310952250462200,8.166462158203124,2.7664318084716797,-2.7035179138183594,-2.9946272373199463
1761310952269075500,8.185075439453126,3.049020767211914,-3.1511151790618896,-2.9837646484375
1761310952287687200,8.203687255859375,1.8402690887451172,-2.938673973083496,-2.7981374263763428
1761310952306300400,8.222300537109374,0.17180156707763672,-2.3948538303375244,-1.9759777784347534
1761310952324912000,8.240912109375,-1.8298921585083008,-0.9522523880004883,0.36049434542655945
1761310952343525400,8.259525390625,-3.170403480529785,1.3026764392852783,3.527696371078491
1761310952362137000,8.27813720703125,-3.498525619506836,2.2597525119781494,5.37738037109375
1761310952380750300,8.296750244140625,-2.7116804122924805,1.5762889385223389,4.621583938598633
1761310952399362000,8.315362060546875,-1.641749382019043,0.15537524223327637,2.164949417114258
1761310952417975300,8.333975341796876,-0.44396495819091797,-1.0258815288543701,0.051275551319122314
1761310952436587000,8.3525869140625,0.6836786270141602,-1.5451160669326782,-1.3810745477676392
1761310952455200300,8.3712001953125,1.77978515625,-1.7260972261428833,-1.3588941097259521
1761310952473812000,8.38981201171875,1.8310985565185547,-1.092545509338379,-0.7052788734436035
1761310952492425200,8.40842529296875,0.8860816955566406,-0.31760168075561523,0.18187552690505981
1761310952511037000,8.427036865234374,-0.35156917572021484,0.6216263771057129,1.1421548128128052
1761310952529650000,8.44564990234375,-1.3741741180419922,1.1899704933166504,1.7003209590911865
1761310952548261600,8.46426171875,-1.690751075744629,1.336366891860962,1.6627562046051025
1761310952566875000,8.482875,-1.8379015922546387,1.2098078727722168,1.0716609954833984
1761310952585486600,8.501486572265625,-1.7061967849731445,0.9041814804077148,0.3089739680290222
1761310952604099800,8.520099853515624,-1.3590211868286133,0.5968499183654785,-0.30313462018966675
1761310952622711600,8.538711669921875,-0.9292259216308594,0.5119328498840332,-0.5707499384880066
1761310952641324800,8.55732470703125,-0.4270458221435547,0.6040134429931641,-0.5894855856895447
1761310952659936500,8.5759365234375,-0.18265151977539062,0.6567432880401611,-0.49556130170822144
1761310952678549800,8.5945498046875,-0.22437191009521484,0.717932939529419,-0.5448343753814697
1761310952697161500,8.613161376953125,-0.43242835998535156,0.7136585712432861,-0.8982255458831787
1761310952715774700,8.631774658203126,-0.7224225997924805,0.7400624752044678,-1.1639455556869507
1761310952734386400,8.650386474609375,-0.9347896575927734,0.9354138374328613,-1.2705271244049072
1761310952752999700,8.668999755859375,-1.1179332733154297,1.3079602718353271,-0.8925848603248596
1761310952771611400,8.687611328125,-0.8635673522949219,1.487440586090088,-0.25808626413345337
1761310952790224600,8.706224609375,0.047684669494628906,1.2894222736358643,0.08784079551696777
1761310952808836400,8.72483642578125,0.9547691345214844,1.0856642723083496,0.012510478496551514
1761310952827449600,8.74344970703125,1.4927291870117188,1.13018798828125,-0.19299310445785522
1761310952846061300,8.762061279296875,1.4252042770385742,1.5721683502197266,-0.05613213777542114
1761310952864674300,8.78067431640625,1.0461750030517578,1.9320614337921143,0.4190797805786133
1761310952883286000,8.7992861328125,0.7824363708496094,1.7398371696472168,0.43250393867492676
1761310952901899300,8.817899169921875,1.21527099609375,0.8828165531158447,-0.057928383350372314
1761310952920511000,8.836510986328125,2.2085132598876953,-0.2589714527130127,-0.14334765076637268
1761310952939124200,8.855124267578125,3.4072465896606445,-1.2758517265319824,0.17018985748291016
1761310952957736000,8.87373583984375,3.5656003952026367,-2.0086944103240967,0.5977914333343506
1761310952976349200,8.89234912109375,2.4407052993774414,-2.856311321258545,0.7891086339950562
1761310952994961000,8.9109609375,0.3694009780883789,-3.3001270294189453,0.5606890916824341
1761310953013574100,8.92957421875,-1.9130897521972656,-2.8851282596588135,0.2946670353412628
1761310953032185900,8.948185791015625,-4.258907318115234,-1.8940130472183228,0.530422031879425
1761310953050799000,8.966799072265625,-4.662869930267334,-0.9437942504882812,0.8075876832008362
1761310953069410800,8.985410888671876,-3.0155186653137207,-0.5682089328765869,0.6962569952011108
1761310953088024000,9.004024169921875,-0.7384481430053711,-0.46794629096984863,0.7925951480865479
1761310953106635800,9.0226357421875,1.1437664031982422,-0.24994826316833496,1.0355430841445923
1761310953125249000,9.0412490234375,1.869217872619629,0.2084953784942627,1.2539163827896118
1761310953143860700,9.05986083984375,1.8107290267944336,0.38112735748291016,0.8982410430908203
1761310953162474000,9.078473876953124,1.3379487991333008,0.3267323970794678,-0.20980747044086456
1761310953181085700,9.097085693359375,0.5505342483520508,-0.0921781063079834,-1.4459571838378906
1761310953199698700,9.11569873046875,-0.14256000518798828,-0.5035400390625,-2.524289846420288
1761310953218310400,9.134310302734375,-0.5441484451293945,-0.7897210121154785,-2.8032870292663574
1761310953236923600,9.152923583984375,-0.8266706466674805,-0.6936917304992676,-2.488757371902466
1761310953255535400,9.171535400390624,-1.4006357192993164,-0.2699887752532959,-1.825709581375122
1761310953274148600,9.190148681640625,-1.6684565544128418,0.24589204788208008,-1.018166184425354
1761310953292760300,9.20876025390625,-1.5706119537353516,0.591233491897583,-0.3423125445842743
1761310953311373600,9.22737353515625,-1.3756046295166016,0.6892528533935547,0.05924808979034424
1761310953329985300,9.2459853515625,-1.0742769241333008,0.6428077220916748,0.03232342004776001
1761310953348598500,9.2645986328125,-0.42560386657714844,0.45952844619750977,-0.06075310707092285
1761310953367210200,9.283210205078126,0.3078603744506836,0.34130120277404785,-0.26770204305648804
1761310953385823500,9.301823486328125,0.7983551025390625,0.3222310543060303,-0.4872382879257202
1761310953404435200,9.320435302734374,1.1603059768676758,0.4463963508605957,-0.6391963958740234
1761310953423048400,9.33904833984375,1.228830337524414,0.8094973564147949,-0.428398072719574
1761310953441660200,9.35766015625,1.1161603927612305,1.1839234828948975,-0.1167067289352417
1761310953460273400,9.3762734375,0.9243364334106445,1.3125860691070557,0.1442948579788208
1761310953478884900,9.394884765625,0.6529817581176758,1.3162086009979248,0.2558037042617798
1761310953497498000,9.413498046875,0.419769287109375,1.240722894668579,0.2473667860031128
1761310953516109800,9.43210986328125,0.2976493835449219,1.261721134185791,-0.3036423325538635
1761310953534723000,9.45072314453125,0.2680950164794922,1.4100146293640137,-0.01995670795440674
1761310953553334800,9.469334716796874,-0.3525381088256836,0.9500775337219238,0.2806539535522461
1761310953571948000,9.487947998046875,0.2681589126586914,0.23287439346313477,-0.03866147994995117
1761310953590559700,9.506559814453125,1.7644529342651367,-0.6986331939697266,-0.6108152866363525
1761310953609173000,9.525173095703124,3.4263486862182617,-1.4680638313293457,-0.6694153547286987
1761310953627784700,9.54378466796875,4.278355598449707,-2.0343410968780518,-0.8896844983100891
1761310953646398000,9.56239794921875,3.6177501678466797,-2.5412607192993164,-1.4738882780075073
1761310953665009700,9.581009765625,1.8889684677124023,-2.7663769721984863,-1.7540879249572754
1761310953683623000,9.599622802734375,-0.47191810607910156,-2.1658313274383545,-0.9556543231010437
1761310953702234600,9.618234619140624,-2.6006388664245605,-1.0252597332000732,0.46589481830596924
1761310953720848000,9.636847900390626,-3.6760029792785645,-0.054524898529052734,1.787236213684082
1761310953739459600,9.65545947265625,-3.6034350395202637,0.4515957832336426,2.391794443130493
1761310953758072600,9.674072509765624,-2.56484317779541,0.3025486469268799,1.8396674394607544
1761310953776684300,9.692684326171875,-1.0927972793579102,-0.31798815727233887,0.6901048421859741
1761310953795297500,9.711297607421875,0.5768251419067383,-0.8568456172943115,-0.47653621435165405
1761310953813909200,9.7299091796875,1.7559614181518555,-1.2084848880767822,-1.2911875247955322
1761310953832522500,9.7485224609375,2.007944107055664,-1.1331173181533813,-1.2393312454223633
1761310953851134200,9.76713427734375,1.2942571640014648,-0.7633709907531738,-0.6016883850097656
1761310953869747500,9.78574755859375,0.3911294937133789,-0.3907890319824219,0.4647049903869629
1761310953888359200,9.804359130859375,-0.6765031814575195,0.014243841171264648,0.8965840339660645
1761310953906972400,9.822972412109374,-1.479353904724121,0.3397812843322754,0.851696252822876
1761310953925584100,9.841584228515625,-1.7344932556152344,0.34500789642333984,0.8824328184127808
1761310953944197400,9.860197265625,-1.4547672271728516,0.31563735008239746,0.806920051574707
1761310953962809000,9.87880908203125,-1.046290397644043,0.23189806938171387,0.4039955139160156
1761310953981422000,9.897422119140625,-0.7657957077026367,0.30920934677124023,0.05793023109436035
1761310954000033800,9.91603369140625,-0.7038841247558594,0.5048682689666748,-0.16816771030426025
1761310954018647000,9.93464697265625,-0.37993717193603516,0.6601600646972656,-0.15788698196411133
1761310954037258800,9.9532587890625,-0.07310009002685547,0.8601140975952148,0.04240095615386963
1761310954055872000,9.9718720703125,-0.18135356903076172,1.030287265777588,0.24917936325073242
1761310954074483700,9.990483642578125,-0.4600048065185547,1.0349152088165283,0.10819566249847412
1761310954093097000,10.009096923828125,-0.5169906616210938,0.683556318283081,-0.4055812358856201
1761310954111708700,10.027708740234376,-0.4255790710449219,0.5719695091247559,-0.9404206275939941
1761310954130322000,10.046322021484375,-0.20342254638671875,0.7590012550354004,-0.37801671028137207
1761310954148933600,10.06493359375,-0.07236576080322266,1.0985527038574219,0.3018127679824829
1761310954167547000,10.083546875,0.17656993865966797,1.117849588394165,0.45034027099609375
1761310954186158600,10.10215869140625,0.5157623291015625,0.9500517845153809,-0.07722532749176025
1761310954204771600,10.120771484375,0.7392654418945312,0.997689962387085,-0.3266593813896179
1761310954223383300,10.13938330078125,0.4831714630126953,1.219752311706543,0.2726172208786011
1761310954241996500,10.15799658203125,-0.12172222137451172,1.271639347076416,0.5568232536315918
1761310954260608300,10.176608154296876,0.13207721710205078,0.5876648426055908,-0.0596238374710083
1761310954279221500,10.195221435546875,1.3524503707885742,-0.6947963237762451,-0.7252689599990845
1761310954297833200,10.213833251953124,3.798722267150879,-2.129255771636963,-1.6445132493972778
1761310954316446500,10.232446533203126,4.833724021911621,-2.859520435333252,-2.2980453968048096
1761310954335058200,10.25105810546875,3.5142822265625,-2.931471824645996,-2.1518571376800537
1761310954353671200,10.269671142578124,1.0771236419677734,-2.5561461448669434,-1.445684552192688
1761310954372283100,10.288283203125,-1.3535642623901367,-1.7141120433807373,-0.39615052938461304
1761310954390896000,10.306896240234375,-3.353560447692871,-0.9192571640014648,0.5410956740379333
1761310954409507800,10.3255078125,-4.164675235748291,-0.8688385486602783,0.10803550481796265
1761310954428121000,10.34412109375,-3.744302749633789,-1.2640867233276367,-0.8341252207756042
1761310954446732800,10.36273291015625,-2.4741244316101074,-1.607710599899292,-1.1330554485321045
1761310954465346000,10.381345947265626,-0.9854974746704102,-1.570011854171753,-0.9278296232223511
1761310954483957800,10.399957763671875,0.3943939208984375,-1.3499865531921387,-0.6642186045646667
1761310954502571000,10.418571044921874,1.3513526916503906,-0.8794004917144775,-0.3283332586288452
1761310954521182700,10.4371826171875,2.0359926223754883,-0.7073280811309814,0.011967003345489502
1761310954539795700,10.455795654296875,2.359686851501465,-0.6203192472457886,-0.04606938362121582
1761310954558407400,10.474407470703126,2.4852113723754883,-0.8741664886474609,-0.291373610496521
1761310954577020700,10.493020751953125,1.8503265380859375,-0.7598950862884521,-0.8870744705200195
1761310954595632400,10.51163232421875,0.4085273742675781,-0.6067991256713867,-1.455257534980774
1761310954614245600,10.53024560546875,-1.0847797393798828,-0.1628413200378418,-1.014786720275879
1761310954632857300,10.548857421875,-2.4656453132629395,0.582676887512207,-1.5539569854736328
1761310954651470600,10.567470703125,-3.088893413543701,0.9669556617736816,-1.6720796823501587
1761310954670082300,10.586082275390625,-0.6213712692260742,1.7233673334121704,-2.67961049079895
1761310954688695300,10.6046953125,0.21501922607421875,1.0155214071273804,-2.8373613357543945
1761310954707307000,10.62330712890625,-0.07770919799804688,-0.37568187713623047,-2.2231643199920654
1761310954725920300,10.641920166015625,-1.975517749786377,-1.0651495456695557,-1.3879094123840332
1761310954744532000,10.660531982421874,-2.6176605224609375,-0.3429158926010132,1.0064224004745483
1761310954763145200,10.679145263671876,0.44850635528564453,0.3702811002731323,3.01188325881958
1761310954781757000,10.6977568359375,2.233297348022461,-0.3376839756965637,3.888744354248047
1761310954800370200,10.7163701171875,3.282282829284668,-1.3287780284881592,2.7009196281433105
1761310954818982000,10.73498193359375,4.206603050231934,-1.0092215538024902,1.4367873668670654
1761310954837595000,10.753594970703125,4.916591644287109,1.2656364440917969,-0.039111316204071045
1761310954856206600,10.77220654296875,5.14919376373291,1.0403406620025635,-0.6753810048103333
1761310954874819300,10.7908193359375,3.88979434967041,0.5251538753509521,-0.5414117574691772
1761310954893431000,10.80943115234375,1.9309406280517578,0.4123743772506714,-0.5347777605056763
1761310954912044300,10.828044189453125,-0.02267742156982422,0.19849467277526855,-0.8169986009597778
1761310954930656000,10.846656005859375,-1.2874040603637695,-0.1784224510192871,-1.6855329275131226
1761310954949269200,10.865269287109374,-1.6223344802856445,-0.9836398363113403,-1.887763500213623
1761310954967881000,10.883880859375,-1.2718791961669922,-0.2604548931121826,-1.7968722581863403
1761310954986494000,10.902493896484375,-0.6680278778076172,-0.03400158882141113,-1.2573580741882324
1761310955005106000,10.92110595703125,-0.22850894927978516,-0.41519641876220703,-1.1194002628326416
1761310955023719000,10.939718994140625,0.06431770324707031,-1.0624802112579346,-1.0191521644592285
1761310955042330600,10.95833056640625,0.3392305374145508,-1.5156856775283813,-0.8883193135261536
1761310955060944000,10.97694384765625,0.30579471588134766,-1.700922966003418,-0.41624605655670166
1761310955079555600,10.9955556640625,0.5403013229370117,-1.2996615171432495,-0.34066927433013916
1761310955098168800,11.0141689453125,0.11377143859863281,-1.2180631160736084,0.6818141937255859
1761310955116780500,11.032780517578125,-0.7880239486694336,-0.6207230091094971,0.9567692279815674
1761310955135393500,11.0513935546875,-1.2626686096191406,-0.33200883865356445,0.4459254741668701
1761310955154005200,11.070005126953125,-1.1945257186889648,-0.8380639553070068,0.3240180015563965
1761310955172618500,11.088618408203125,-0.9186897277832031,-1.0853166580200195,0.41170257329940796
1761310955191230200,11.107230224609374,-0.5600347518920898,-0.11815857887268066,-0.23223739862442017
1761310955209843500,11.125843505859375,0.07094001770019531,0.3870832920074463,0.2044621706008911
1761310955228455200,11.144455078125,0.8093833923339844,-0.15901565551757812,1.6452412605285645
1761310955247068400,11.163068359375,0.9358463287353516,-0.5462007522583008,2.37595272064209
1761310955265680000,11.181679931640625,0.2876615524291992,-0.538978099822998,2.148693084716797
1761310955284293000,11.200293212890625,-0.4612464904785156,-0.2801704406738281,1.3344268798828125
1761310955302904800,11.21890478515625,-0.8446550369262695,0.19367289543151855,0.47870808839797974
1761310955321518000,11.23751806640625,-1.2225885391235352,0.21755361557006836,0.4559640884399414
1761310955340129800,11.2561298828125,-1.3459711074829102,0.19484782218933105,0.45398345589637756
1761310955358743000,11.274742919921875,-0.9445610046386719,0.17488694190979004,0.3652728497982025
1761310955377354500,11.2933544921875,-0.2844257354736328,0.2047748565673828,0.36697131395339966
1761310955395967700,11.3119677734375,-0.03777122497558594,0.45758724212646484,0.7594759464263916
1761310955414579500,11.330579345703125,-0.04681682586669922,0.6087675094604492,0.9041221737861633
1761310955433192700,11.349192626953124,-0.22020435333251953,0.4784886837005615,0.5732200741767883
1761310955451804400,11.367804443359375,-0.37485790252685547,0.3695685863494873,-0.004792273044586182
1761310955470417400,11.38641748046875,-0.0998992919921875,0.2766885757446289,-0.16831406950950623
1761310955489029000,11.405029052734376,0.36350440979003906,0.3244163990020752,-0.1723085641860962
1761310955507642400,11.423642333984375,0.458282470703125,0.324887752532959,-0.351757675409317
1761310955526254000,11.442254150390625,0.24448204040527344,0.44124865531921387,-0.30432939529418945
1761310955544867300,11.460867431640626,-0.7585544586181641,0.5905876159667969,-0.45034438371658325
1761310955563479000,11.47947900390625,-1.5428886413574219,0.8860368728637695,-0.3516191244125366
1761310955582092000,11.498092041015624,-1.1349687576293945,1.1369233131408691,0.24912351369857788
1761310955600703700,11.516703857421875,-0.5439538955688477,1.2482659816741943,1.1612050533294678
1761310955619317000,11.53531689453125,-0.00922393798828125,1.4414567947387695,1.3876490592956543
