time,seconds_elapsed,z,y,x
1761369605286878700,0.103878662109375,0,0,0
1761369605305490400,0.122490478515625,-0.04270458221435547,0.01852250099182129,-0.01860833168029785
1761369605333406200,0.15040625,-0.07389163970947266,0.1507120132446289,-0.004968881607055664
1761369605352017700,0.169017578125,0.09238243103027344,0.20295214653015137,-0.04093790054321289
1761369605370627800,0.1876279296875,0.3427114486694336,0.15109801292419434,0.2043170928955078
1761369605389239800,0.20623974609375,0.6860885620117188,0.11618924140930176,0.8252899646759033
1761369605407849700,0.224849609375,0.4747886657714844,0.06923961639404297,0.5422890186309814
1761369605426461400,0.24346142578125,0.7627754211425781,0.1300365924835205,0.44946348667144775
1761369605445072000,0.26207177734375,0.6248359680175781,-0.06787538528442383,1.330958604812622
1761369605463683300,0.280683349609375,-0.4976081848144531,0.6769282817840576,1.3766281604766846
1761369605482293800,0.299293701171875,-2.2063655853271484,1.1686089038848877,1.1496975421905518
1761369605500905500,0.317905517578125,-1.3502388000488281,0.1815052032470703,-0.03549683094024658
1761369605519515600,0.336515625,-0.2739124298095703,-0.07068729400634766,-0.369221568107605
1761369605538127400,0.35512744140625,0.12966156005859375,-0.3155190944671631,-0.978651762008667
1761369605556737500,0.373737548828125,-0.025020599365234375,-0.2503702640533447,-1.0437350273132324
1761369605575349200,0.392349365234375,-0.18169116973876953,-0.1269087791442871,-0.6496303081512451
1761369605593959400,0.41095947265625,-0.48416805267333984,-0.031102895736694336,-0.5107495784759521
1761369605612571100,0.429571044921875,-0.385650634765625,0.012885093688964844,-0.30076026916503906
1761369605631181300,0.448181396484375,-0.19092082977294922,0.05975627899169922,-0.13080990314483643
1761369605649793000,0.46679296875,0.10589218139648438,0.09245014190673828,0.07690930366516113
1761369605668403200,0.4854033203125,0.21663284301757812,0.08342289924621582,0.19301891326904297
1761369605687015000,0.504014892578125,0.2625598907470703,0.23406434059143066,0.13341188430786133
1761369605705625000,0.522625,0.29670238494873047,0.2541465759277344,0.06968951225280762
1761369605724236800,0.54123681640625,0.1210794448852539,0.3155324459075928,0.11295735836029053
1761369605742847000,0.559846923828125,-0.22474956512451172,0.47071099281311035,0.08562791347503662
1761369605761458700,0.578458740234375,-0.6490716934204102,0.5520524978637695,0.016835331916809082
1761369605780068900,0.59706884765625,-0.7362909317016602,0.6338732242584229,-0.020466327667236328
1761369605798680600,0.6156806640625,-0.45970916748046875,0.6713800430297852,0.025205612182617188
1761369605817290800,0.634290771484375,-0.20821380615234375,0.57503342628479,-0.09214961528778076
1761369605835902500,0.65290234375,-0.018233299255371094,0.482712984085083,-0.1955472230911255
1761369605854512600,0.6715126953125,0.1307668685913086,0.3669426441192627,-0.2320651412010193
1761369605873124400,0.690124267578125,0.07452774047851562,0.2735748291015625,-0.2192860245704651
1761369605891734500,0.708734619140625,-0.041461944580078125,0.2433030605316162,-0.14453673362731934
1761369605910346200,0.72734619140625,-0.04414558410644531,0.3005690574645996,0.011933863162994385
1761369605928956400,0.745956298828125,0.07608318328857422,0.2486957311630249,0.09476664662361145
1761369605947568000,0.764568115234375,0.3615751266479492,0.16974174976348877,0.012955337762832642
1761369605966178300,0.78317822265625,0.48340511322021484,0.2248249053955078,-0.02056083083152771
1761369605984790000,0.8017900390625,0.5063629150390625,0.24551939964294434,-0.07685008645057678
1761369606003400200,0.820400146484375,0.4800529479980469,0.2744048833847046,-0.047444045543670654
1761369606022012000,0.839011962890625,0.4003305435180664,0.28794097900390625,-0.009283065795898438
1761369606040622000,0.8576220703125,0.27738285064697266,0.3033435344696045,-0.03415578603744507
1761369606059233800,0.87623388671875,0.2504720687866211,0.24148797988891602,-0.2164217233657837
1761369606077844200,0.89484423828125,0.15150833129882812,0.24169957637786865,-0.300895094871521
1761369606096456000,0.9134560546875,-0.08464813232421875,0.22564077377319336,-0.3816317915916443
1761369606115065900,0.93206591796875,-0.3186025619506836,0.2688920497894287,-0.2716637849807739
1761369606133677800,0.950677734375,-0.5208005905151367,0.3816646337509155,-0.17141655087471008
1761369606152288000,0.9692880859375,-0.6020822525024414,0.4263284206390381,-0.2717571258544922
1761369606170899700,0.987899658203125,-0.40975475311279297,0.3301048278808594,-0.11988624930381775
1761369606189510000,1.006510009765625,0.08620452880859375,0.216536283493042,0.21491681039333344
1761369606208121600,1.02512158203125,0.3810234069824219,-0.09945082664489746,0.390785813331604
1761369606226731800,1.043731689453125,0.5672979354858398,-0.3391396999359131,0.4445081651210785
1761369606245343500,1.062343505859375,0.4056272506713867,-0.5473787784576416,0.8300632834434509
1761369606263953700,1.08095361328125,0.25049304962158203,-0.6877087354660034,0.9738292098045349
1761369606282565400,1.0995654296875,0.11969375610351562,-0.3660240173339844,0.5991013646125793
1761369606301175600,1.118175537109375,0.21114635467529297,-0.22072649002075195,0.3603929281234741
1761369606319787300,1.136787353515625,0.49788856506347656,-0.3726658821105957,0.24559566378593445
1761369606338397400,1.1553974609375,0.820713996887207,-0.5585293769836426,0.2417173534631729
1761369606357009200,1.174009033203125,0.8676986694335938,-0.6309108734130859,0.191921666264534
1761369606375619300,1.192619384765625,0.48778820037841797,-0.6540780067443848,0.044225335121154785
1761369606394231000,1.21123095703125,0.10267257690429688,-0.8942967653274536,0.39079591631889343
1761369606412841200,1.22984130859375,-0.20300769805908203,-1.1524367332458496,0.6864792704582214
1761369606431453000,1.248452880859375,-0.34087371826171875,-1.2642977237701416,0.898942768573761
1761369606450063000,1.26706298828125,-0.4690885543823242,-1.3055360317230225,0.9979486465454102
1761369606468674800,1.2856748046875,-0.3359336853027344,-1.3547672033309937,1.1018667221069336
1761369606487285200,1.30428515625,0.07232284545898438,-1.3218656778335571,1.2755378484725952
1761369606505896700,1.322896728515625,0.7344751358032227,-1.1502327919006348,1.452820897102356
1761369606524507100,1.341507080078125,1.2316179275512695,-1.080091118812561,1.2739709615707397
1761369606543118800,1.360118896484375,1.2488574981689453,-0.8369126319885254,1.0057591199874878
1761369606561729000,1.37872900390625,0.650726318359375,-0.6301207542419434,0.6197667717933655
1761369606580340700,1.3973408203125,-0.13933277130126953,-0.33863186836242676,0.5595943927764893
1761369606598951000,1.415950927734375,-0.4666318893432617,-0.19984769821166992,0.5919579267501831
1761369606617562600,1.434562744140625,-0.5786542892456055,-0.21464252471923828,0.5102325677871704
1761369606636172800,1.4531728515625,-0.5892400741577148,-0.2809135913848877,0.3193952739238739
1761369606654784500,1.471784423828125,-0.7360982894897461,-0.43392181396484375,0.18261414766311646
1761369606673394700,1.490394775390625,-0.8284626007080078,-0.4172816276550293,0.12331455945968628
1761369606692006400,1.50900634765625,-0.7586450576782227,-0.3272686004638672,0.2724023461341858
1761369606710616600,1.527616455078125,-1.0531015396118164,-0.31613707542419434,0.24665701389312744
1761369606729228300,1.546228271484375,-1.4783811569213867,-0.16409564018249512,0.24021226167678833
1761369606747838500,1.56483837890625,-1.7347888946533203,0.03667879104614258,0.389445960521698
1761369606766450200,1.5834501953125,-1.647756576538086,0.09256410598754883,0.39885079860687256
1761369606785060400,1.602060302734375,-1.410879135131836,0.1453542709350586,0.515372097492218
1761369606803672000,1.620672119140625,-1.4277982711791992,0.08743691444396973,0.7180914282798767
1761369606822282500,1.639282470703125,-1.4119739532470703,0.09652829170227051,0.763623058795929
1761369606840894200,1.657894287109375,-1.089421272277832,0.21049070358276367,0.7385789752006531
1761369606859504400,1.67650439453125,-0.6267375946044922,0.3088963031768799,0.7448464632034302
1761369606878116000,1.6951162109375,-0.2774381637573242,0.5661821365356445,0.647129476070404
1761369606896726300,1.713726318359375,0.19417858123779297,0.6763820648193359,0.34336692094802856
1761369606915338000,1.732337890625,0.28090858459472656,0.7222034931182861,0.29294610023498535
1761369606933948200,1.7509482421875,0.4923734664916992,0.6510770320892334,0.2639356255531311
1761369606952559900,1.769559814453125,1.0287342071533203,0.4819236993789673,0.38794252276420593
1761369606971170000,1.788170166015625,1.6407270431518555,0.3907938003540039,0.38130468130111694
1761369606989781800,1.80678173828125,1.9389286041259766,0.3412325382232666,0.22202593088150024
1761369607008392000,1.825391845703125,1.823277473449707,0.23852694034576416,0.22592301666736603
1761369607027003600,1.844003662109375,1.1712207794189453,0.17504549026489258,0.36139729619026184
1761369607045613800,1.86261376953125,0.5961341857910156,0.33022093772888184,0.5109665989875793
1761369607064225500,1.8812255859375,-0.02207183837890625,0.48348498344421387,0.5800529718399048
1761369607082835700,1.899835693359375,-0.27660465240478516,0.9002854824066162,0.6671792268753052
1761369607101447400,1.918447509765625,-0.41889190673828125,0.8214693069458008,0.5121517181396484
1761369607120057600,1.9370576171875,-0.3605384826660156,0.6376087665557861,0.33663561940193176
1761369607138669300,1.95566943359375,-0.0914449691772461,0.2512528896331787,0.12461858987808228
1761369607157279700,1.97427978515625,0.2107677459716797,-0.10154867172241211,-0.008473813533782959
1761369607175891500,1.992891357421875,0.5068016052246094,-0.3433668613433838,0.1429992914199829
1761369607194501600,2.011501708984375,0.5579147338867188,-0.6218560934066772,-0.11853867769241333
1761369607213113300,2.03011328125,0.4321002960205078,-0.8645282983779907,-0.39068537950515747
1761369607231723500,2.0487236328125,0.11327552795410156,-0.8847634792327881,-0.5383137464523315
1761369607250335200,2.067335205078125,-0.09215736389160156,-0.8694809675216675,-0.7221435308456421
1761369607268945400,2.0859453125,-0.23671913146972656,-0.7683980464935303,-0.6099259257316589
1761369607287557000,2.10455712890625,-0.08612632751464844,-0.6545412540435791,-0.09202319383621216
1761369607306167300,2.123167236328125,-0.1543741226196289,-0.8459053039550781,-0.3934272527694702
1761369607324779000,2.141779052734375,-0.2108440399169922,-1.024430751800537,-0.5144721269607544
1761369607343389200,2.16038916015625,-0.08373641967773438,-1.061320185661316,-0.3237830400466919
1761369607362001000,2.1790009765625,0.18340206146240234,-1.060643196105957,-0.14245712757110596
1761369607380611000,2.197611083984375,0.14461708068847656,-1.0573394298553467,-0.30325424671173096
1761369607399222800,2.216222900390625,0.013515472412109375,-0.7524478435516357,-0.31963133811950684
1761369607417833000,2.2348330078125,-0.16477108001708984,-0.4562044143676758,-0.24398326873779297
1761369607436444700,2.253444580078125,-0.4271879196166992,-0.34855103492736816,-0.4661926031112671
1761369607455054800,2.272054931640625,-0.7029609680175781,-0.32570934295654297,-0.483783483505249
1761369607473666600,2.29066650390625,-0.7715139389038086,-0.34105801582336426,-0.4586558938026428
1761369607492277000,2.309277099609375,-0.6046009063720703,-0.47208428382873535,-0.4484306573867798
1761369607510888700,2.327888671875,-0.3665952682495117,-0.6953709125518799,-0.36988502740859985
1761369607529499000,2.346498779296875,-0.22731494903564453,-0.8293230533599854,-0.25847381353378296
1761369607548110600,2.365110595703125,-0.18980979919433594,-0.6189019680023193,-0.15777581930160522
1761369607566720800,2.383720703125,-0.44687747955322266,-0.5758721828460693,-0.19630014896392822
1761369607585332500,2.40233251953125,-0.6112766265869141,-0.448197603225708,-0.1758384108543396
1761369607603942700,2.420942626953125,-0.8088436126708984,-0.36266255378723145,-0.510452926158905
1761369607622554400,2.439554443359375,-1.0245780944824219,-0.24334144592285156,-0.5209697484970093
1761369607641164500,2.45816455078125,-0.9665098190307617,-0.034235239028930664,-0.2633515000343323
1761369607659776300,2.4767763671875,-0.711848258972168,0.14588618278503418,-0.20366555452346802
1761369607678386400,2.495386474609375,-0.5329036712646484,0.2764699459075928,-0.44131481647491455
1761369607696998100,2.513998046875,-0.4070253372192383,0.39621591567993164,-0.8689855933189392
1761369607715608300,2.5326083984375,-0.2618675231933594,0.48105597496032715,-1.045893907546997
1761369607734220000,2.551219970703125,-0.0665273666381836,0.410935640335083,-0.8126296997070312
1761369607752830200,2.569830322265625,0.20677757263183594,0.3154489994049072,-0.33964014053344727
1761369607771442000,2.58844189453125,0.41478919982910156,0.33507394790649414,-0.2055394947528839
1761369607790052400,2.60705224609375,0.35167789459228516,0.38733434677124023,-0.2532624304294586
1761369607808663800,2.625663818359375,0.09131050109863281,0.3723461627960205,-0.2686333656311035
1761369607827274000,2.64427392578125,-0.030038833618164062,0.4196345806121826,-0.33720433712005615
1761369607845886000,2.662885986328125,0.2337503433227539,0.49240899085998535,-0.39666616916656494
1761369607864496000,2.68149609375,0.7394857406616211,0.5134053230285645,-0.48533403873443604
1761369607883107800,2.70010791015625,1.366673469543457,0.2987968921661377,-0.4203018546104431
1761369607901718000,2.718718017578125,1.6967906951904297,0.30757737159729004,-0.30811843276023865
1761369607920329700,2.737329833984375,1.6293487548828125,0.3091459274291992,-0.5269631147384644
1761369607938940000,2.75593994140625,1.2643499374389648,0.10019230842590332,-0.6055418848991394
1761369607957551600,2.774551513671875,0.8364038467407227,0.0181884765625,-0.33090218901634216
1761369607976161800,2.793161865234375,0.6566658020019531,-0.04459547996520996,0.11857587099075317
1761369607994773500,2.8117734375,0.7427988052368164,-0.06934642791748047,0.32915931940078735
1761369608013383700,2.8303837890625,0.7950420379638672,-0.2707366943359375,0.39408862590789795
1761369608031995400,2.848995361328125,0.7369060516357422,-0.6926052570343018,0.44271719455718994
1761369608050605600,2.86760546875,0.5074081420898438,-0.9068479537963867,0.3455580472946167
1761369608069217300,2.88621728515625,-0.07831478118896484,-0.8720548152923584,0.2713063955307007
1761369608087827500,2.904827392578125,-0.5712184906005859,-0.6402103900909424,0.43252718448638916
1761369608106439200,2.923439208984375,-0.6590948104858398,-0.44119691848754883,0.2430296540260315
1761369608125049300,2.94204931640625,-0.4674701690673828,-0.36147093772888184,0.010034263134002686
1761369608143661000,2.9606611328125,-0.2637643814086914,-0.43354058265686035,0.07242190837860107
1761369608162271200,2.979271240234375,-0.17086505889892578,-0.6233036518096924,0.24340969324111938
1761369608180883000,2.997883056640625,-0.02648162841796875,-0.6174595355987549,0.35141682624816895
1761369608199493400,3.016493408203125,0.1768627166748047,-0.6818480491638184,0.6006308794021606
1761369608218105000,3.03510498046875,0.1055917739868164,-0.7946237325668335,0.5567812323570251
1761369608236715300,3.05371533203125,-0.0038843154907226562,-0.8298218250274658,0.44174718856811523
1761369608255327000,3.072326904296875,-0.03387641906738281,-0.8689689636230469,0.40447288751602173
1761369608273937200,3.090937255859375,0.069122314453125,-0.8197720050811768,0.3952362537384033
1761369608292548900,3.109548828125,0.20410442352294922,-0.8273621797561646,0.4825156033039093
1761369608311159000,3.128158935546875,0.2196340560913086,-0.7964035272598267,0.500700831413269
1761369608329770800,3.146770751953125,0.17853164672851562,-0.8533785343170166,0.4085999131202698
1761369608348381000,3.165380859375,0.05637931823730469,-0.8507521152496338,0.2623547613620758
1761369608366992600,3.18399267578125,-0.1842784881591797,-0.6395152807235718,0.23906424641609192
1761369608385602800,3.202602783203125,-0.3650083541870117,-0.2893103361129761,0.36521589756011963
1761369608404214500,3.221214599609375,-0.3966789245605469,-0.1027522087097168,0.5330420732498169
1761369608422824700,3.23982470703125,-0.2950325012207031,-0.0993582010269165,0.6048033237457275
1761369608441436400,3.2584365234375,-0.2608928680419922,-0.1261347532272339,0.5971202850341797
1761369608460046600,3.277046630859375,-0.3324594497680664,-0.08435392379760742,0.6342012882232666
1761369608478658300,3.295658203125,-0.5505847930908203,0.053532958030700684,0.7068780660629272
1761369608497268500,3.3142685546875,-0.6464042663574219,0.2070775032043457,0.7721188068389893
1761369608515880200,3.332880126953125,-0.6025400161743164,0.31741881370544434,0.8885495662689209
1761369608534490400,3.351490478515625,-0.38071346282958984,0.38849174976348877,0.9991132616996765
1761369608553102000,3.37010205078125,-0.005917549133300781,0.4182732105255127,1.0078201293945312
1761369608571712500,3.38871240234375,0.19859981536865234,0.30283594131469727,0.9789563417434692
1761369608590324000,3.407323974609375,0.33203601837158203,0.1410456895828247,0.9326750040054321
1761369608608934100,3.42593408203125,0.4506874084472656,0.016851186752319336,0.9260544776916504
1761369608627545900,3.4445458984375,0.620020866394043,0.02769649028778076,0.960477352142334
1761369608646156300,3.46315625,0.797327995300293,0.13069534301757812,0.9778300523757935
1761369608664768000,3.48176806640625,0.7921552658081055,0.25843966007232666,1.071690320968628
1761369608683378200,3.500378173828125,0.6159830093383789,0.41576504707336426,1.0226638317108154
1761369608701990000,3.518989990234375,0.3482532501220703,0.47363603115081787,0.9827814698219299
1761369608720600000,3.53760009765625,0.1559438705444336,0.510413408279419,0.8802757263183594
1761369608739211800,3.556211669921875,0.011871337890625,0.5679410696029663,0.7754747271537781
1761369608757822000,3.574822021484375,-0.12604904174804688,0.5867829322814941,0.6981812119483948
1761369608776433700,3.59343359375,-0.14844703674316406,0.616326093673706,0.5878571271896362
1761369608795043800,3.6120439453125,-0.08209514617919922,0.706640362739563,0.575578510761261
1761369608813655600,3.630655517578125,-0.08498382568359375,0.734980583190918,0.5325961709022522
1761369608832265700,3.649265625,-0.07554244995117188,0.7450282573699951,0.450763463973999
1761369608850877400,3.66787744140625,-0.023311614990234375,0.6834498643875122,0.4402519464492798
1761369608869487600,3.686487548828125,0.04582786560058594,0.6425646543502808,0.49152666330337524
1761369608888099300,3.705099365234375,0.3610801696777344,0.42870795726776123,0.5437967777252197
1761369608906709500,3.72370947265625,0.8676328659057617,0.07668554782867432,0.4873805642127991
1761369608925321200,3.7423212890625,1.4188880920410156,-0.2803710699081421,0.40599972009658813
1761369608943931400,3.760931396484375,1.6881418228149414,-0.5224628448486328,0.3463108539581299
1761369608962543000,3.779543212890625,1.5029773712158203,-0.6054210066795349,0.31531208753585815
1761369608981153300,3.7981533203125,0.8252830505371094,-0.5902150273323059,0.314434289932251
1761369608999765000,3.816764892578125,-0.045830726623535156,-0.581304669380188,0.34414759278297424
1761369609018375200,3.835375244140625,-0.929443359375,-0.6021244525909424,0.1782808005809784
1761369609036987000,3.85398681640625,-1.635711669921875,-0.6713799238204956,-0.13630875945091248
1761369609055597000,3.87259716796875,-1.9816780090332031,-0.6749448776245117,-0.370974063873291
1761369609074208800,3.891208740234375,-1.9466066360473633,-0.533637285232544,-0.5040802359580994
1761369609092819000,3.90981884765625,-1.6899080276489258,-0.36627376079559326,-0.71064692735672
1761369609111430700,3.9284306640625,-1.1935052871704102,-0.37558186054229736,-0.7768006920814514
1761369609130040800,3.947040771484375,-0.5471839904785156,-0.7644052505493164,-0.6701086759567261
1761369609148652500,3.965652587890625,0.4249429702758789,-1.1234948635101318,-0.6774360537528992
1761369609167263000,3.984262939453125,1.4813814163208008,-1.305572748184204,-0.6981014013290405
1761369609185874700,4.002874755859375,2.0008621215820312,-1.2909033298492432,-0.5600777864456177
1761369609204484600,4.021484619140625,1.5972776412963867,-1.1539146900177002,-0.4959328770637512
1761369609223096600,4.0400966796875,0.9559392929077148,-0.8772658109664917,-0.8522156476974487
1761369609241706800,4.058706787109375,0.17258739471435547,-0.7006224393844604,-1.0051724910736084
1761369609260318500,4.077318359375,-0.5192232131958008,-0.6108615398406982,-1.2431782484054565
1761369609278928600,4.0959287109375,-0.9070491790771484,-0.4514831304550171,-1.5222690105438232
1761369609297540400,4.114540283203125,-1.097620964050293,-0.29758286476135254,-1.5506274700164795
1761369609316150500,4.133150634765625,-1.0410985946655273,-0.22013616561889648,-1.3859223127365112
1761369609334762200,4.15176220703125,-0.8066692352294922,-0.3215596675872803,-1.2623488903045654
1761369609353372400,4.170372314453125,-0.50384521484375,-0.303861141204834,-1.347605586051941
1761369609371984100,4.188984130859375,-0.2582111358642578,-0.3036003112792969,-1.2724473476409912
1761369609390594300,4.20759423828125,-0.1816558837890625,-0.15807592868804932,-1.1911802291870117
1761369609409206000,4.2262060546875,-0.10969734191894531,-0.04633975028991699,-1.0836690664291382
1761369609427816200,4.244816162109375,-0.09917926788330078,-0.010528206825256348,-0.9512234926223755
1761369609446428000,4.263427978515625,-0.15973567962646484,0.1316990852355957,-0.9458870887756348
1761369609465038000,4.2820380859375,-0.10245513916015625,0.3639225959777832,-1.0745171308517456
1761369609483649800,4.30064990234375,-0.018822669982910156,0.34562742710113525,-1.2142317295074463
1761369609502260000,4.319260009765625,0.07375717163085938,0.3647562265396118,-1.26167631149292
1761369609520871700,4.33787158203125,0.07834815979003906,0.426464319229126,-1.1614106893539429
1761369609539481900,4.35648193359375,0.14171791076660156,0.4880516529083252,-1.1766142845153809
1761369609558093600,4.375093505859375,0.1781635284423828,0.420491099357605,-1.1729329824447632
1761369609576703700,4.393703857421875,0.03479480743408203,0.5590046644210815,-1.0393657684326172
1761369609595315500,4.4123154296875,-0.0771026611328125,0.5689176321029663,-1.0602641105651855
1761369609613925600,4.430925537109375,-0.14192485809326172,0.5492844581604004,-0.7400772571563721
1761369609632537300,4.449537353515625,0.08169269561767578,0.6107542514801025,-0.38459908962249756
1761369609651147500,4.4681474609375,0.49781131744384766,0.7106289267539978,0.2107517123222351
1761369609669759200,4.48675927734375,0.7275304794311523,0.6878369450569153,0.7865650653839111
1761369609688369400,4.505369384765625,1.351180076599121,0.24158412218093872,0.768692135810852
1761369609706981000,4.523981201171875,2.2739381790161133,-0.10101106762886047,0.33210790157318115
1761369609725591300,4.54259130859375,2.3532018661499023,-0.7309600114822388,-0.399458646774292
1761369609744203000,4.561203125,1.8001489639282227,-1.139053225517273,-0.9074769020080566
1761369609762813200,4.579813232421875,0.8452138900756836,-1.2320311069488525,-1.2818491458892822
1761369609781425000,4.5984248046875,-0.02636432647705078,-0.9899743795394897,-1.5253148078918457
1761369609800035000,4.61703515625,-0.4881420135498047,-0.6443160176277161,-1.5102198123931885
1761369609818646800,4.635646728515625,-0.9542694091796875,-0.6668264865875244,-0.9288156032562256
1761369609837257000,4.654257080078125,-1.143794059753418,-0.6170318126678467,-0.4841594696044922
1761369609855868700,4.67286865234375,-1.007981300354004,-0.5311002731323242,-0.07704377174377441
1761369609874478800,4.691478759765625,-0.5068559646606445,-0.43341565132141113,0.3206038475036621
1761369609893090600,4.710090576171875,-0.20513439178466797,-0.4479105472564697,0.6873199939727783
1761369609911700700,4.72870068359375,-0.28766441345214844,-0.4008874297142029,0.6851496696472168
1761369609930312400,4.7473125,-0.6276435852050781,-0.2767118215560913,0.7478344440460205
1761369609948922600,4.765922607421875,-0.9399452209472656,-0.02762424945831299,0.9308011531829834
1761369609967534300,4.784534423828125,-0.9645709991455078,0.15093493461608887,0.7632029056549072
1761369609986144500,4.80314453125,-0.8719682693481445,-0.05710160732269287,0.34768033027648926
1761369610004756200,4.821756103515625,-0.9290218353271484,-0.45296961069107056,-0.2606801986694336
1761369610023366400,4.840366455078125,-0.5490760803222656,-0.58957839012146,-0.8223292827606201
1761369610041978000,4.85897802734375,-0.31212425231933594,-0.9574955105781555,-0.6191933155059814
1761369610060588300,4.87758837890625,-0.21548843383789062,-0.7083985805511475,-0.5422425270080566
1761369610079200000,4.896199951171875,-0.2221364974975586,-0.4291979968547821,-0.34646153450012207
1761369610097810200,4.91481005859375,-0.2478809356689453,-0.1535692662000656,-0.1399831771850586
1761369610116422000,4.933421875,-0.5624456405639648,-0.021289460361003876,-0.14026403427124023
1761369610135032000,4.952031982421875,-0.942535400390625,0.046783313155174255,-0.43552732467651367
1761369610153643800,4.970643798828125,-1.3271751403808594,0.039480000734329224,-0.6943473815917969
1761369610172254000,4.98925390625,-1.5393929481506348,0.1155976951122284,-0.8922171592712402
1761369610190865700,5.00786572265625,-1.5682125091552734,0.2730499804019928,-0.7584023475646973
1761369610209475800,5.026475830078125,-1.472757339477539,0.4830671548843384,-0.39776086807250977
1761369610228087600,5.045087646484375,-1.1584277153015137,0.47357600927352905,0.0851280689239502
1761369610246697700,5.06369775390625,-0.6591720581054688,0.4672357439994812,0.3144080638885498
1761369610265309400,5.082309326171875,0.1763591766357422,0.42985016107559204,0.31586503982543945
1761369610283919600,5.100919677734375,1.0770511627197266,0.23919343948364258,0.284717321395874
1761369610302531300,5.11953125,1.6274299621582031,0.0015222430229187012,-0.022768020629882812
1761369610321141500,5.1381416015625,1.7612829208374023,-0.21238857507705688,-0.38596177101135254
1761369610339753200,5.156753173828125,1.7550554275512695,-0.31242233514785767,-0.4772648811340332
1761369610358363400,5.17536328125,1.5673103332519531,-0.3749592900276184,-0.1937863826751709
1761369610376975000,5.19397509765625,1.2438039779663086,-0.2530721426010132,-0.03594565391540527
1761369610395585300,5.212585205078125,1.0285453796386719,-0.14352619647979736,-0.02534937858581543
1761369610414197000,5.231197021484375,0.8268604278564453,-0.025434255599975586,0.05107831954956055
1761369610432807200,5.24980712890625,0.4758462905883789,0.24984121322631836,-0.01295018196105957
1761369610451419000,5.2684189453125,-0.08895111083984375,0.5425903797149658,-0.07047438621520996
1761369610470029000,5.287029052734375,-0.024686813354492188,0.8665919303894043,0.27980828285217285
1761369610488640800,5.305640869140625,0.9069242477416992,0.8769271373748779,0.9125690460205078
1761369610507251000,5.3242509765625,1.8824825286865234,0.3381514549255371,1.5641167163848877
1761369610525862700,5.342862548828125,2.2816896438598633,-0.27412497997283936,1.83866286277771
1761369610544472800,5.361472900390625,2.2039575576782227,-0.616973876953125,1.6191309690475464
1761369610563084500,5.38008447265625,1.6406726837158203,-0.9305591583251953,1.3204021453857422
1761369610581694700,5.39869482421875,0.8146486282348633,-1.1419098377227783,0.9003922939300537
1761369610600306400,5.417306396484375,-0.25943756103515625,-1.187623143196106,0.4143238067626953
1761369610618916600,5.43591650390625,-1.3735566139221191,-0.9102069139480591,-0.08251285552978516
1761369610637528300,5.4545283203125,-2.1825551986694336,-0.28095436096191406,-0.43181514739990234
1761369610656138500,5.473138427734375,-2.4771924018859863,-0.05703020095825195,-0.040184736251831055
1761369610674750200,5.491750244140625,-2.3647518157958984,0.16595125198364258,0.2012948989868164
1761369610693360400,5.5103603515625,-2.004669189453125,0.35553574562072754,0.04143214225769043
1761369610711972000,5.52897216796875,-1.599222183227539,0.312075138092041,-0.4254167079925537
1761369610730582300,5.547582275390625,-1.1639204025268555,0.3129870891571045,-0.7321531772613525
1761369610749194000,5.566194091796875,-0.8665618896484375,0.47939419746398926,-0.5821776390075684
1761369610767804200,5.58480419921875,-0.6324882507324219,0.5686721801757812,-0.3241586685180664
1761369610786415900,5.603415771484375,-0.3175697326660156,0.5226142406463623,-0.12484860420227051
1761369610805026000,5.622026123046875,-0.06810760498046875,0.3459203243255615,-0.0844724178314209
1761369610823637800,5.6406376953125,0.06990623474121094,0.06798148155212402,-0.13099932670593262
1761369610842248000,5.659248046875,0.04279804229736328,-0.2126920223236084,-0.24940919876098633
1761369610860859600,5.677859619140625,-0.1655416488647461,-0.3771672248840332,-0.44930219650268555
1761369610879469800,5.6964697265625,-0.4435997009277344,-0.47576022148132324,-0.6335995197296143
1761369610898081500,5.71508154296875,-0.513453483581543,-0.5291759967803955,-0.69203782081604
1761369610916691700,5.733691650390625,-0.5836191177368164,-0.5017222166061401,-0.7212231159210205
1761369610935303400,5.752303466796875,-0.7061929702758789,-0.3044910430908203,-0.7151618003845215
1761369610953913600,5.77091357421875,-0.8846225738525391,-0.1516108512878418,-0.47713136672973633
1761369610972525300,5.789525390625,-1.0335078239440918,0.0754384994506836,-0.3829917907714844
1761369610991135500,5.808135498046875,-1.026585578918457,0.21525907516479492,-0.294675350189209
1761369611009747200,5.826747314453125,-0.8898921012878418,0.23605847358703613,-0.147491455078125
1761369611028357400,5.845357421875,-0.6531343460083008,0.1959528923034668,-0.025562763214111328
1761369611046969000,5.863968994140625,-0.43280696868896484,0.12508010864257812,-0.023019790649414062
1761369611065579300,5.882579345703125,-0.2861595153808594,0.04548835754394531,-0.14174246788024902
1761369611084191000,5.90119091796875,-0.1433115005493164,-0.03643059730529785,-0.31967711448669434
1761369611102801200,5.91980126953125,0.05356121063232422,-0.07004439830780029,-0.5755574703216553
1761369611121412900,5.938412841796875,0.23433971405029297,-0.028049826622009277,-0.777273416519165
1761369611140023000,5.95702294921875,0.5180377960205078,-0.035192012786865234,-0.8529984951019287
1761369611158634800,5.975634765625,0.7500410079956055,0.06655013561248779,-0.9340410232543945
1761369611177245000,5.994244873046875,0.8556108474731445,0.2375044822692871,-0.9008603096008301
1761369611195856600,6.012856689453125,1.0660619735717773,0.32051658630371094,-0.5846734046936035
1761369611214466800,6.031466796875,1.1833114624023438,0.47337889671325684,-0.3798389434814453
1761369611233078500,6.05007861328125,1.1543951034545898,0.6167383193969727,-0.08849930763244629
1761369611251688700,6.068688720703125,1.081502914428711,0.627373218536377,0.1644136905670166
1761369611270300400,6.087300537109375,1.287917137145996,0.757594108581543,0.5691829919815063
1761369611288910600,6.10591064453125,1.7672357559204102,0.5427985191345215,1.1918281316757202
1761369611307522300,6.124522216796875,1.9819755554199219,-0.18919849395751953,1.2288954257965088
1761369611326132500,6.143132568359375,1.6811151504516602,-0.8477277755737305,0.7207058668136597
1761369611344744200,6.161744140625,1.1442022323608398,-1.4036469459533691,0.4936690330505371
1761369611363354400,6.180354248046875,0.4538421630859375,-1.4933605194091797,0.2830779552459717
1761369611381966000,6.198966064453125,-0.15340137481689453,-1.4305661916732788,0.20696067810058594
1761369611400576300,6.217576171875,-0.8455648422241211,-1.0578893423080444,0.19766533374786377
1761369611419188000,6.23618798828125,-1.676870346069336,-0.7293803691864014,0.5660368204116821
1761369611437798100,6.254798095703125,-2.0642967224121094,-0.10641598701477051,0.8795531988143921
1761369611456409900,6.273409912109375,-1.970167636871338,0.4116654396057129,0.7753978967666626
1761369611475020000,6.29202001953125,-1.6789350509643555,0.2696800231933594,0.8196219205856323
1761369611493631500,6.310631591796875,-1.3325624465942383,-0.5398180484771729,1.4052685499191284
1761369611512242000,6.329241943359375,-1.0226259231567383,-0.6374939680099487,1.304443120956421
1761369611530853400,6.347853271484375,-0.9784526824951172,-0.7487057447433472,1.0617268085479736
1761369611549463800,6.3664638671875,-1.227853775024414,-0.5882067680358887,0.5015588998794556
1761369611568075300,6.3850751953125,-1.6050033569335938,-0.2975161075592041,0.09739470481872559
1761369611586685400,6.403685546875,-1.9090051651000977,0.06820797920227051,-0.16167116165161133
1761369611605297200,6.422297119140625,-2.042327880859375,0.4296135902404785,-0.41770052909851074
1761369611623907300,6.4409072265625,-1.9646368026733398,0.7192230224609375,-0.780062198638916
1761369611642519000,6.45951904296875,-1.605158805847168,0.9325330257415771,-1.0273661613464355
1761369611661129200,6.478129150390625,-1.0173978805541992,1.0587430000305176,-1.075089693069458
1761369611679741000,6.496740966796875,-0.09868431091308594,1.0909130573272705,-0.8135926723480225
1761369611698351000,6.51535107421875,0.9256153106689453,1.1730233430862427,-0.30840587615966797
1761369611716962800,6.533962890625,1.7874717712402344,1.0707309246063232,0.21599745750427246
1761369611735573000,6.552572998046875,2.3008031845092773,0.9519829750061035,0.23776531219482422
1761369611754184700,6.571184814453125,2.527777671813965,0.9779146313667297,-0.1675877571105957
1761369611772795000,6.589794921875,2.497246742248535,0.8621395826339722,-0.3419511318206787
1761369611791406600,6.608406494140625,2.224527359008789,0.8792890310287476,-0.33668088912963867
1761369611810016800,6.627016845703125,1.8000097274780273,1.069643497467041,-0.22297430038452148
1761369611828628500,6.64562841796875,1.1692867279052734,1.1932233572006226,-0.05654430389404297
1761369611847238700,6.66423876953125,0.5961008071899414,1.2482428550720215,0.04517674446105957
1761369611865850400,6.682850341796875,0.16351604461669922,1.2352259159088135,0.14380812644958496
1761369611884460500,6.70146044921875,0.012481689453125,1.1451380252838135,0.24606609344482422
1761369611903072300,6.720072265625,0.15571212768554688,0.8977578282356262,0.33509373664855957
1761369611921682400,6.738682373046875,0.5039262771606445,0.6155202984809875,0.2278432846069336
1761369611940294100,6.757294189453125,0.8061723709106445,0.5218206644058228,-0.11196160316467285
1761369611958904300,6.775904296875,1.0364999771118164,0.23348310589790344,-0.12990856170654297
1761369611977516000,6.79451611328125,1.2040882110595703,0.11884582042694092,-0.28203272819519043
1761369611996126200,6.813126220703125,1.0637788772583008,0.05364784598350525,-0.44100165367126465
1761369612014738000,6.831738037109375,0.6891021728515625,-0.15427926182746887,-0.3364536762237549
1761369612033348000,6.85034814453125,0.44022369384765625,-0.2500760853290558,-0.2892937660217285
1761369612051959800,6.868959716796875,0.30845165252685547,-0.4088886082172394,-0.18276023864746094
1761369612070570000,6.887570068359375,0.1915569305419922,-0.5123873949050903,-0.20452022552490234
1761369612089181700,6.906181640625,-0.007825851440429688,-0.5322363376617432,-0.31337475776672363
1761369612107792000,6.9247919921875,-0.2264556884765625,-0.46704399585723877,-0.41263532638549805
1761369612126403600,6.943403564453125,-0.3778724670410156,-0.42893272638320923,-0.49097776412963867
1761369612145013800,6.962013671875,-0.4923219680786133,-0.5526844263076782,-0.531653881072998
1761369612163625500,6.98062548828125,-0.5770483016967773,-0.6659380197525024,-0.6248307228088379
1761369612182235400,6.9992353515625,-0.7299137115478516,-0.6593621373176575,-0.8385396003723145
1761369612200847400,7.017847412109375,-0.9376277923583984,-0.5193659067153931,-1.1117093563079834
1761369612219457300,7.036457275390625,-1.275808334350586,-0.4040405750274658,-1.3293700218200684
1761369612238069000,7.055069091796875,-1.5193099975585938,-0.15090370178222656,-1.583362102508545
1761369612256679200,7.07367919921875,-1.5576848983764648,-0.0652306079864502,-1.4503493309020996
1761369612275291000,7.092290771484375,-1.3798103332519531,-0.059458136558532715,-1.0784399509429932
1761369612293901000,7.110901123046875,-1.0525922775268555,-0.08851897716522217,-0.5850657224655151
1761369612312512800,7.1295126953125,-0.5618324279785156,-0.13792896270751953,-0.16379249095916748
1761369612331123000,7.148123046875,0.0028295516967773438,-0.25826287269592285,0.13125503063201904
1761369612349734700,7.166734619140625,0.4236783981323242,-0.42413830757141113,0.2265254259109497
1761369612368344800,7.1853447265625,0.4943704605102539,-0.5824058055877686,0.0963512659072876
1761369612386956500,7.20395654296875,0.3148918151855469,-0.6394910216331482,-0.28279078006744385
1761369612405566700,7.222566650390625,0.000396728515625,-0.5705946683883667,-0.738640308380127
1761369612424178400,7.241178466796875,-0.26212120056152344,-0.5612508058547974,-0.8881485462188721
1761369612442788600,7.25978857421875,-0.41223907470703125,-0.44429194927215576,-0.8983354568481445
1761369612461400300,7.278400390625,-0.4052715301513672,-0.27478671073913574,-0.7735016345977783
1761369612480010500,7.297010498046875,-0.3996438980102539,-0.13034772872924805,-0.44373440742492676
1761369612498622200,7.315622314453125,-0.4933004379272461,-0.0357050895690918,-0.12445473670959473
1761369612517232400,7.334232421875,-0.5180997848510742,0.11322200298309326,-0.0358579158782959
1761369612535844000,7.352843994140625,-0.40160083770751953,0.24091947078704834,-0.07309389114379883
1761369612554454300,7.371454345703125,-0.19406509399414062,0.35594451427459717,-0.2726426124572754
1761369612573066000,7.39006591796875,0.0897216796875,0.46662211418151855,-0.43842852115631104
1761369612591676200,7.40867626953125,0.2734508514404297,0.4069763422012329,-0.38207054138183594
1761369612610287900,7.427287841796875,0.41036510467529297,0.3151816129684448,-0.07481062412261963
1761369612628898000,7.44589794921875,0.626927375793457,-0.006337404251098633,0.49439823627471924
1761369612647509500,7.464509521484375,1.1796865463256836,-0.3860093355178833,0.5408836603164673
1761369612666120000,7.483119873046875,1.7162485122680664,-0.7393940091133118,0.1770116090774536
1761369612684731400,7.5017314453125,1.8086299896240234,-1.112032175064087,-0.21263211965560913
1761369612703341800,7.520341796875,1.40142822265625,-1.4597303867340088,-0.4087085723876953
1761369612721953300,7.538953369140625,0.8315553665161133,-1.4437928199768066,-0.6520673036575317
1761369612740563500,7.5575634765625,0.0714111328125,-1.4046763181686401,-0.6590616703033447
1761369612759175200,7.576175048828125,-0.5617380142211914,-1.2394139766693115,-0.5311686992645264
1761369612777785300,7.594785400390625,-1.05487060546875,-1.0887036323547363,-0.4606510400772095
1761369612796397000,7.61339697265625,-1.3267288208007812,-0.9399356842041016,-0.4902733564376831
1761369612815007200,7.63200732421875,-1.3948163986206055,-0.7014738321304321,-0.5552768707275391
1761369612833619000,7.650618896484375,-1.2553157806396484,-0.49989402294158936,-0.40754854679107666
1761369612852229000,7.66922900390625,-0.9424848556518555,-0.40374648571014404,-0.04960978031158447
1761369612870840800,7.6878408203125,-0.4936990737915039,-0.33162617683410645,0.2768756151199341
1761369612889451000,7.706450927734375,-0.1368999481201172,-0.3627709150314331,0.4783898591995239
1761369612908062700,7.725062744140625,0.005421638488769531,-0.460981547832489,0.42762231826782227
1761369612926673000,7.7436728515625,-0.09119701385498047,-0.5256633162498474,0.16369330883026123
1761369612945284600,7.76228466796875,-0.38223934173583984,-0.5468380451202393,-0.13180780410766602
1761369612963894800,7.780894775390625,-0.7219638824462891,-0.5372743010520935,-0.36492466926574707
1761369612982506500,7.799506591796875,-1.034071922302246,-0.504741370677948,-0.4376121759414673
1761369613001116700,7.81811669921875,-1.1722784042358398,-0.4357798099517822,-0.3901578187942505
1761369613019728400,7.836728271484375,-1.0768756866455078,-0.4108421802520752,-0.22025775909423828
1761369613038338600,7.855338623046875,-0.7732791900634766,-0.397322416305542,-0.08823132514953613
1761369613056950300,7.8739501953125,-0.4136495590209961,-0.40747493505477905,-0.03214609622955322
1761369613075560400,7.892560546875,-0.022958755493164062,-0.4614451229572296,0.048290252685546875
1761369613094172000,7.911171875,0.35973548889160156,-0.5863502621650696,0.1291217803955078
1761369613112782000,7.929781982421875,0.7280006408691406,-0.687515914440155,0.11666584014892578
1761369613131393800,7.948393798828125,0.9677705764770508,-0.7879000902175903,0.062186360359191895
1761369613150004000,7.96700390625,1.0382890701293945,-0.8318417072296143,-0.05800199508666992
1761369613168615700,7.98561572265625,0.9870882034301758,-0.8200368881225586,-0.1524057388305664
1761369613187225900,8.004225830078125,0.9041252136230469,-0.810261070728302,-0.11804366111755371
1761369613205837600,8.022837646484374,0.8099250793457031,-0.8781063556671143,0.059613823890686035
1761369613224447700,8.04144775390625,0.5721273422241211,-1.0096148252487183,0.2199779748916626
1761369613243059500,8.0600595703125,0.2073993682861328,-0.9893968105316162,0.12228906154632568
1761369613261669600,8.078669677734375,-0.18888282775878906,-0.6591163277626038,-0.27619028091430664
1761369613280281300,8.09728125,-0.5279989242553711,-0.10894978046417236,-0.8235771656036377
1761369613298891500,8.1158916015625,-0.4659881591796875,0.3277360200881958,-0.7882881164550781
1761369613317503200,8.134503173828126,0.09228897094726562,0.5052832365036011,-0.21069872379302979
1761369613336113400,8.153113525390625,0.9352235794067383,0.30375874042510986,0.44133007526397705
1761369613354725000,8.17172509765625,1.5243873596191406,-0.054402947425842285,0.6461857557296753
1761369613373335300,8.190335205078124,1.6869468688964844,-0.34783846139907837,0.3244319558143616
1761369613391947000,8.208947021484375,1.4212636947631836,-0.7494506239891052,0.04042613506317139
1761369613410557200,8.22755712890625,0.9963197708129883,-0.8697008490562439,-0.3459755778312683
1761369613429168600,8.246168701171875,0.5507583618164062,-0.8132927417755127,-0.7247247695922852
1761369613447778800,8.26477880859375,0.07521343231201172,-0.8423977494239807,-0.8285777568817139
1761369613466390500,8.283390625,-0.4730501174926758,-0.9897142648696899,-0.34086382389068604
1761369613485000700,8.302000732421876,-0.6811389923095703,-0.8714619874954224,-0.2825031280517578
1761369613503612400,8.3206123046875,-0.5171689987182617,-0.7079708576202393,-0.417930006980896
1761369613522222600,8.33922265625,-0.2835273742675781,-1.017810583114624,-0.28835272789001465
1761369613540834300,8.357834228515625,0.13640785217285156,-1.503419041633606,-0.015531182289123535
1761369613559444500,8.376444580078125,0.5086984634399414,-1.548900842666626,-0.44068050384521484
1761369613578056200,8.39505615234375,0.7967672348022461,-1.6284563541412354,-0.9779417514801025
1761369613596666400,8.413666259765625,0.8947887420654297,-2.307464122772217,-1.3531500101089478
1761369613615278000,8.432278076171874,0.8442392349243164,-2.620495319366455,-1.801652193069458
1761369613633888300,8.45088818359375,0.6185245513916016,-2.8345537185668945,-1.933985948562622
1761369613652500000,8.4695,0.16829204559326172,-2.658146619796753,-1.9047813415527344
1761369613671110100,8.488110107421875,0.04569721221923828,-2.3891005516052246,-1.2137401103973389
1761369613689721600,8.5067216796875,-0.00555419921875,-2.075437068939209,-0.9647512435913086
1761369613708332000,8.52533203125,0.1374959945678711,-2.071763753890991,-0.8669772148132324
1761369613726943500,8.543943603515626,0.5731019973754883,-1.8276042938232422,-1.044966697692871
1761369613745553700,8.5625537109375,0.8931827545166016,-1.6892008781433105,-0.9971005916595459
1761369613764165400,8.581165283203125,0.9643716812133789,-1.558034062385559,-0.657879114151001
1761369613782775600,8.599775634765624,0.9149112701416016,-1.4196783304214478,-0.14989376068115234
1761369613801387300,8.61838720703125,0.9555692672729492,-1.3050410747528076,0.32160353660583496
1761369613819997400,8.63699755859375,1.0102148056030273,-1.287703037261963,0.8047351837158203
1761369613838609200,8.655609130859375,1.0001392364501953,-1.2485506534576416,1.2094801664352417
1761369613857219300,8.67421923828125,0.9429254531860352,-1.0459108352661133,1.58499276638031
1761369613875831000,8.6928310546875,0.715052604675293,-0.7743782997131348,1.7842772006988525
1761369613894441200,8.711441162109375,0.11999130249023438,-0.39084506034851074,1.7489732503890991
1761369613913053000,8.730052978515625,-0.4972419738769531,-0.0965430736541748,1.8539118766784668
1761369613931663000,8.7486630859375,-0.981048583984375,0.012398958206176758,2.0125770568847656
1761369613950274600,8.767274658203124,-1.3383331298828125,0.32036447525024414,2.001166820526123
1761369613968884700,8.785884765625,-1.7195830345153809,0.30156850814819336,2.1367011070251465
1761369613987496400,8.804496337890624,-1.8522415161132812,0.4761683940887451,1.926480770111084
1761369614006106600,8.823106689453125,-1.6314969062805176,0.4463622570037842,1.7839303016662598
1761369614024718300,8.84171826171875,-1.2412471771240234,0.488692045211792,1.4719737768173218
1761369614043328500,8.86032861328125,-0.8309812545776367,0.42682552337646484,1.2313497066497803
1761369614061940200,8.878940185546876,-0.39505767822265625,0.3437983989715576,1.1912153959274292
1761369614080550400,8.89755029296875,-0.0027828216552734375,0.2713432312011719,1.3338923454284668
1761369614099162000,8.916162109375,0.4568815231323242,0.22739934921264648,1.4336795806884766
1761369614117772300,8.934772216796874,0.8454980850219727,0.24327576160430908,1.4679534435272217
1761369614136384000,8.953384033203125,1.154036521911621,0.2153463363647461,1.5679758787155151
1761369614154994200,8.971994140625,1.4128942489624023,0.2092071771621704,1.709967851638794
1761369614173605600,8.990605712890625,1.3502655029296875,0.2113513946533203,1.7694613933563232
1761369614192215800,9.0092158203125,0.9787797927856445,0.31098413467407227,1.5617533922195435
1761369614210827500,9.02782763671875,0.5190334320068359,0.503339409828186,1.205665946006775
1761369614229437700,9.046437744140626,0.2079620361328125,0.5460350513458252,1.184938907623291
1761369614248049400,9.06504931640625,0.03206157684326172,0.5548189878463745,1.1748353242874146
1761369614266659600,9.08365966796875,-0.17577743530273438,0.5290541648864746,1.1184179782867432
1761369614285271300,9.102271240234375,-0.34810543060302734,0.3814438581466675,0.9584373235702515
1761369614303881500,9.120881591796875,-0.4388923645019531,0.24334371089935303,0.571956992149353
1761369614322493200,9.1394931640625,-0.32892322540283203,0.14384114742279053,0.1723865270614624
1761369614341103400,9.158103271484375,-0.11577892303466797,0.07170522212982178,0.12593185901641846
1761369614359714800,9.17671484375,0.1051015853881836,0.17589914798736572,0.20410478115081787
1761369614378325000,9.195324951171875,0.1941051483154297,0.29013895988464355,0.4166210889816284
1761369614396936700,9.213936767578126,-0.00223541259765625,0.38803672790527344,0.5686957836151123
1761369614415547000,9.232546875,-0.3669300079345703,0.5284417867660522,0.613408088684082
1761369614434158600,9.25115869140625,-0.7183189392089844,0.687962532043457,0.6066362857818604
1761369614452768800,9.269768798828125,-0.8807744979858398,0.8462274074554443,0.5047307014465332
1761369614471380500,9.28838037109375,-0.873631477355957,0.9687756299972534,0.4163696765899658
1761369614489990700,9.30699072265625,-0.8446884155273438,0.9614676237106323,0.4787064790725708
1761369614508602400,9.325602294921875,-0.7723369598388672,0.9097254276275635,0.6545170545578003
1761369614527212500,9.344212646484374,-0.6768770217895508,0.8632303476333618,0.8446285724639893
1761369614545824000,9.362823974609375,-0.49579334259033203,0.8269466161727905,0.9355341792106628
1761369614564434200,9.38143408203125,-0.2975044250488281,0.7314982414245605,0.9759507775306702
1761369614583046000,9.4000458984375,-0.18614959716796875,0.6989831924438477,0.842667281627655
1761369614601656000,9.418656005859376,-0.1279764175415039,0.687279224395752,0.6300733089447021
1761369614620267800,9.437267822265625,-0.11976051330566406,0.6573362350463867,0.4818509817123413
1761369614638878000,9.4558779296875,-0.18711566925048828,0.6258803606033325,0.32263433933258057
1761369614657489700,9.47448974609375,-0.2616567611694336,0.6053228378295898,0.21884262561798096
1761369614676099800,9.493099853515625,-0.19719600677490234,0.618427038192749,0.18249356746673584
1761369614694711600,9.511711669921874,-0.014548301696777344,0.633232831954956,0.18570148944854736
1761369614713321700,9.53032177734375,0.1971883773803711,0.5875186920166016,0.28154540061950684
1761369614731933200,9.54893310546875,0.4374361038208008,0.5284395217895508,0.5387508869171143
1761369614750543400,9.56754345703125,0.5573844909667969,0.4258577823638916,0.7558209300041199
1761369614769155000,9.586155029296876,0.4934053421020508,0.30520033836364746,0.740372896194458
1761369614787765200,9.60476513671875,0.3908395767211914,0.23476171493530273,0.6530325412750244
1761369614806377000,9.623376953125,0.2948036193847656,0.21881890296936035,0.6309640407562256
1761369614824987100,9.641987060546874,0.5295019149780273,0.24731183052062988,0.5316007137298584
1761369614843598800,9.660598876953125,0.816650390625,0.3576624393463135,0.27633237838745117
1761369614862209000,9.679208984375,0.6475238800048828,0.27837681770324707,0.15242552757263184
1761369614880820500,9.697820556640625,0.30783653259277344,0.3815135955810547,-0.07277488708496094
1761369614899430700,9.7164306640625,-0.02617168426513672,0.6536905765533447,-0.17292165756225586
1761369614918042400,9.73504248046875,-0.1747589111328125,0.5547962188720703,0.11626768112182617
1761369614936652500,9.753652587890626,-0.10212993621826172,0.4356083869934082,0.30968809127807617
1761369614955264300,9.77226416015625,0.22753143310546875,0.12808966636657715,0.3787868022918701
1761369614973874400,9.79087451171875,0.5946722030639648,-0.27411389350891113,0.3760380744934082
1761369614992486100,9.809486083984375,0.6299781799316406,-0.6831090450286865,0.2354717254638672
1761369615011096000,9.828095947265625,0.5299768447875977,-0.8734638690948486,0.05011391639709473
1761369615029707800,9.846707763671875,0.2913970947265625,-0.9347493648529053,0.021343231201171875
1761369615048318000,9.86531787109375,-0.13654422760009766,-0.9785010814666748,0.06870532035827637
1761369615066929700,9.8839296875,-0.7956018447875977,-0.9955592155456543,0.03876829147338867
1761369615085539800,9.902539794921875,-1.3402528762817383,-0.9346451759338379,-0.12831199169158936
1761369615104151600,9.921151611328124,-1.4824962615966797,-0.7654705047607422,-0.46631383895874023
1761369615122761700,9.93976171875,-1.5244178771972656,-0.5755147933959961,-0.7054588794708252
1761369615141373400,9.95837353515625,-1.395071029663086,-0.24737238883972168,-0.7470252513885498
1761369615159983400,9.9769833984375,-1.0918407440185547,0.03689384460449219,-0.5077056884765625
1761369615178595000,9.995594970703126,-0.639765739440918,0.06186962127685547,-0.054608821868896484
1761369615197205200,10.014205322265624,-0.24564266204833984,-0.07126426696777344,0.1535738706588745
1761369615215817000,10.03281689453125,0.1655426025390625,-0.24587416648864746,0.07022809982299805
1761369615234427100,10.05142724609375,0.48398590087890625,-0.49005746841430664,-0.17232346534729004
1761369615253038800,10.070038818359375,0.6210231781005859,-0.7041082382202148,-0.6125054359436035
1761369615271649000,10.08864892578125,0.5596981048583984,-0.8011889457702637,-1.1997904777526855
1761369615290260700,10.1072607421875,0.4229564666748047,-0.875659704208374,-1.3999409675598145
1761369615308870700,10.12587060546875,0.34175586700439453,-0.7615931034088135,-1.330397129058838
1761369615327482400,10.144482421875,0.29327869415283203,-0.5970091819763184,-0.8762111663818359
1761369615346092500,10.163092529296875,0.09708309173583984,-0.4058499336242676,-0.43242549896240234
1761369615364704300,10.181704345703125,-0.2698030471801758,-0.23952174186706543,-0.29155564308166504
1761369615383314400,10.200314453125,-0.6415309906005859,-0.15418028831481934,-0.34291720390319824
1761369615401926100,10.218926025390624,-0.8972320556640625,-0.02271866798400879,-0.48377692699432373
1761369615420536000,10.2375361328125,-1.0632457733154297,0.08782720565795898,-0.49007630348205566
1761369615439147800,10.256147705078124,-0.9483346939086914,0.17984819412231445,-0.4053080081939697
1761369615457758000,10.274758056640625,-0.5162715911865234,0.2215108871459961,-0.23783481121063232
1761369615476369700,10.29336962890625,-0.0725555419921875,0.20342755317687988,-0.07525789737701416
1761369615494979800,10.311979736328125,0.098541259765625,0.20360970497131348,-0.1603790521621704
1761369615513591600,10.330591552734376,0.1916656494140625,0.23943758010864258,-0.22084414958953857
1761369615532201700,10.34920166015625,0.3271751403808594,0.2053673267364502,-0.16694152355194092
1761369615550813200,10.367813232421875,0.4997997283935547,0.18114352226257324,-0.25021493434906006
1761369615569423400,10.38642333984375,0.6185617446899414,0.10255146026611328,-0.3323659896850586
1761369615588035000,10.40503515625,0.6406888961791992,-0.032928466796875,0.19600379467010498
1761369615606645200,10.423645263671874,0.8725061416625977,-0.030284881591796875,0.8785076141357422
1761369615625257000,10.442257080078125,1.0273475646972656,0.0995631217956543,0.9283603429794312
1761369615643867100,10.4608671875,0.9288969039916992,-0.014919042587280273,0.8343818187713623
1761369615662478600,10.479478515625,0.5605993270874023,-0.10132789611816406,0.7253391742706299
1761369615681088800,10.4980888671875,0.2751607894897461,-0.14725685119628906,0.7557316422462463
1761369615699700500,10.516700439453125,0.25318431854248047,-0.38666296005249023,0.8838047981262207
1761369615718310700,10.535310546875,0.6163434982299805,-0.6407783031463623,0.7994229197502136
1761369615736922400,10.55392236328125,0.9151716232299805,-0.8092999458312988,0.7642870545387268
1761369615755532500,10.572532470703125,0.7443428039550781,-0.8551197052001953,0.6949319243431091
1761369615774144000,10.59114404296875,0.1919260025024414,-0.7015841007232666,0.6028026938438416
1761369615792754200,10.609754150390625,-0.3247184753417969,-0.36121463775634766,0.5929149389266968
1761369615811366000,10.628365966796874,-0.48037147521972656,-0.04459261894226074,0.7559924125671387
1761369615829976000,10.64697607421875,-0.32068920135498047,0.14785003662109375,1.0348963737487793
1761369615848587800,10.665587890625,-0.15740203857421875,0.08345675468444824,1.220467209815979
1761369615867198000,10.684197998046875,-0.25527191162109375,-0.022400856018066406,1.30330228805542
1761369615885809400,10.702809326171876,-0.4633007049560547,-0.1153252124786377,1.14296555519104
1761369615904419600,10.721419677734374,-0.5255594253540039,-0.18987107276916504,1.0388379096984863
1761369615923031300,10.74003125,-0.3066740036010742,-0.5081584453582764,0.9218809604644775
1761369615941641500,10.758641357421874,0.10445117950439453,-0.2530398368835449,0.32627177238464355
1761369615960253200,10.777253173828125,-0.5650615692138672,-0.15441155433654785,0.017717719078063965
1761369615978863000,10.795863037109376,-1.0037469863891602,-0.26534199714660645,0.1421424150466919
1761369615997474800,10.814474853515625,-1.4055595397949219,-0.16258454322814941,0.2148282527923584
1761369616016085000,10.8330849609375,-1.6449260711669922,0.0038406848907470703,0.10939085483551025
1761369616034696700,10.85169677734375,-1.6362543106079102,0.14630770683288574,0.09280920028686523
