time,seconds_elapsed,z,y,x
1761369605305490400,0.122490478515625,0.07513421028852463,-0.22899135947227478,0.03229855000972748
1761369605333406200,0.15040625,0.13499724864959717,-0.5124244689941406,0.05673243850469589
1761369605352017700,0.169017578125,0.14721418917179108,-0.7940250635147095,0.015194825828075409
1761369605370627800,0.1876279296875,0.12644538283348083,-0.8880955576896667,-0.02214321307837963
1761369605389239800,0.20623974609375,0.0390942245721817,-0.6981220841407776,-0.016645587980747223
1761369605407849700,0.224849609375,-0.03298575058579445,-0.5588488578796387,-0.0007635590736754239
1761369605426461400,0.24346142578125,-0.0787992998957634,-0.4244624972343445,0.09155073016881943
1761369605445072000,0.26207177734375,-0.21990501880645752,0.10880716890096664,0.16424155235290527
1761369605463683300,0.280683349609375,-0.416597843170166,0.02023431472480297,0.00908635277301073
1761369605482293800,0.299293701171875,-0.6016845703125,-0.2149418741464615,-0.27197974920272827
1761369605500905500,0.317905517578125,-0.5699204802513123,-0.2387649267911911,-0.41736137866973877
1761369605519515600,0.336515625,-0.5125008225440979,-0.4067479074001312,-0.31290650367736816
1761369605538127400,0.35512744140625,-0.37139514088630676,-0.5405234694480896,-0.10949437320232391
1761369605556737500,0.373737548828125,-0.20035789906978607,-0.6052733063697815,-0.01969982497394085
1761369605575349200,0.392349365234375,-0.11361759155988693,-0.6883485317230225,-0.10582929104566574
1761369605593959400,0.41095947265625,-0.04459185153245926,-0.6138251423835754,-0.3177932798862457
1761369605612571100,0.429571044921875,-0.020157959312200546,-0.4446204602718353,-0.5346440672874451
1761369605631181300,0.448181396484375,-0.021990500390529633,-0.3688753843307495,-0.7178982496261597
1761369605649793000,0.46679296875,-0.053143709897994995,-0.4250733256340027,-0.8254073858261108
1761369605668403200,0.4854033203125,-0.1313321590423584,-0.34932827949523926,-0.8229639530181885
1761369605687015000,0.504014892578125,-0.16126367449760437,-0.20272493362426758,-0.6904101371765137
1761369605705625000,0.522625,-0.16676130890846252,-0.18317782878875732,-0.4900522232055664
1761369605724236800,0.54123681640625,-0.1844758689403534,-0.21677441895008087,-0.305576354265213
1761369605742847000,0.559846923828125,-0.20524467527866364,-0.2247154414653778,-0.2163926362991333
1761369605761458700,0.578458740234375,-0.21562908589839935,-0.24792763590812683,-0.27320143580436707
1761369605780068900,0.59706884765625,-0.2217375487089157,-0.2393757700920105,-0.40575528144836426
1761369605798680600,0.6156806640625,-0.24189551174640656,-0.28274592757225037,-0.5126535892486572
1761369605817290800,0.634290771484375,-0.24433889985084534,-0.3939201235771179,-0.5395308136940002
1761369605835902500,0.65290234375,-0.2480039894580841,-0.4855472147464752,-0.4796678125858307
1761369605854512600,0.6715126953125,-0.2742704153060913,-0.6181010603904724,-0.3892624080181122
1761369605873124400,0.690124267578125,-0.29381752014160156,-0.7213342785835266,-0.31229567527770996
1761369605891734500,0.708734619140625,-0.3005368411540985,-0.6962895393371582,-0.2817533016204834
1761369605910346200,0.72734619140625,-0.3176405727863312,-0.5790068507194519,-0.2939702570438385
1761369605928956400,0.745956298828125,-0.3243598937988281,-0.3700970709323883,-0.305576354265213
1761369605947568000,0.764568115234375,-0.32191649079322815,-0.17035003006458282,-0.27686652541160583
1761369605966178300,0.78317822265625,-0.33474430441856384,-0.05795413255691528,-0.22372281551361084
1761369605984790000,0.8017900390625,-0.33230090141296387,-0.0011453386396169662,-0.16935740411281586
1761369606003400200,0.820400146484375,-0.32374903559684753,0.047111593186855316,-0.1119377613067627
1761369606022012000,0.839011962890625,-0.3158080279827118,0.057496000081300735,-0.05757235363125801
1761369606040622000,0.8576220703125,-0.29442837834358215,0.06910209357738495,-0.022754060104489326
1761369606059233800,0.87623388671875,-0.2486148327589035,0.030007870867848396,0.0164165198802948
1761369606077844200,0.89484423828125,-0.20157960057258606,-0.08666395395994186,0.07261446863412857
1761369606096456000,0.9134560546875,-0.1429382562637329,-0.19417306780815125,0.1343100368976593
1761369606115065900,0.93206591796875,-0.10262233763933182,-0.26014456152915955,0.19172967970371246
1761369606133677800,0.950677734375,-0.0910162404179573,-0.3407764136791229,0.2131093442440033
1761369606152288000,0.9692880859375,-0.06780404597520828,-0.4977641701698303,0.2002815455198288
1761369606170899700,0.987899658203125,-0.06413896381855011,-0.5325824618339539,0.19722731411457062
1761369606189510000,1.006510009765625,-0.07207997888326645,-0.5680115818977356,0.23693238198757172
1761369606208121600,1.02512158203125,-0.09407047927379608,-0.5429668426513672,0.28580015897750854
1761369606226731800,1.043731689453125,-0.11239589750766754,-0.48310381174087524,0.3303920030593872
1761369606245343500,1.062343505859375,-0.21929416060447693,-0.37315133213996887,0.3200076222419739
1761369606263953700,1.08095361328125,-0.3793361485004425,-0.2790808379650116,0.28702184557914734
1761369606282565400,1.0995654296875,-0.46424391865730286,-0.23021306097507477,0.20822255313396454
1761369606301175600,1.118175537109375,-0.4563029110431671,-0.23571068048477173,0.0946049690246582
1761369606319787300,1.136787353515625,-0.38483378291130066,-0.21066594123840332,0.013973130844533443
1761369606338397400,1.1553974609375,-0.2980934679508209,-0.04756972938776016,0.019470756873488426
1761369606357009200,1.174009033203125,-0.2113531529903412,0.16500511765480042,0.08788564801216125
1761369606375619300,1.192619384765625,-0.12827792763710022,0.25296711921691895,0.18378867208957672
1761369606394231000,1.21123095703125,-0.09773556143045425,0.25235626101493835,0.2815242409706116
1761369606412841200,1.22984130859375,-0.1056765764951706,0.31710609793663025,0.3664320111274719
1761369606431453000,1.248452880859375,-0.12155860662460327,0.38491013646125793,0.45622655749320984
1761369606450063000,1.26706298828125,-0.16309621930122375,0.45027077198028564,0.5454102754592896
1761369606468674800,1.2856748046875,-0.237008735537529,0.4826456904411316,0.6345939636230469
1761369606487285200,1.30428515625,-0.3158080279827118,0.3763582706451416,0.7097281813621521
1761369606505896700,1.322896728515625,-0.41110020875930786,0.048333290964365005,0.7836406826972961
1761369606524507100,1.341507080078125,-0.5680879354476929,-0.357269287109375,0.9064210057258606
1761369606543118800,1.360118896484375,-0.7342383861541748,-0.676131546497345,1.0634087324142456
1761369606561729000,1.37872900390625,-0.7690566778182983,-0.8221240639686584,1.119606614112854
1761369606580340700,1.3973408203125,-0.6810947060585022,-0.8239566087722778,0.9852202534675598
1761369606598951000,1.415950927734375,-0.546097457408905,-0.8935931921005249,0.6883485317230225
1761369606617562600,1.434562744140625,-0.41232189536094666,-0.9113077521324158,0.36459946632385254
1761369606636172800,1.4531728515625,-0.29748260974884033,-0.8441145420074463,0.12514732778072357
1761369606654784500,1.471784423828125,-0.2229592502117157,-0.6834617257118225,-0.054518118500709534
1761369606673394700,1.490394775390625,-0.1716480851173401,-0.3865899443626404,-0.18401773273944855
1761369606692006400,1.50900634765625,-0.16370706260204315,-0.027411770075559616,-0.23716144263744354
1761369606710616600,1.527616455078125,-0.1692046970129013,0.18760646879673004,-0.2652604281902313
1761369606729228300,1.546228271484375,-0.14965757727622986,0.21142950654029846,-0.33856210112571716
1761369606747838500,1.56483837890625,-0.12644538283348083,0.12407834827899933,-0.4900522232055664
1761369606766450200,1.5834501953125,-0.09468132257461548,0.031229566782712936,-0.6806365847587585
1761369606785060400,1.602060302734375,-0.06413896381855011,-0.05734328553080559,-0.8223531246185303
1761369606803672000,1.620672119140625,-0.04031591862440109,-0.11476293206214905,-0.9359707236289978
1761369606822282500,1.639282470703125,-0.051922015845775604,-0.06589514762163162,-1.0288194417953491
1761369606840894200,1.657894287109375,-0.07391251623630524,0.13446275889873505,-1.0721896886825562
1761369606859504400,1.67650439453125,-0.12644538283348083,0.2590755820274353,-1.0520316362380981
1761369606878116000,1.6951162109375,-0.1313321590423584,0.2450261116027832,-0.9940012097358704
1761369606896726300,1.713726318359375,-0.05619794875383377,0.16195088624954224,-0.8980981707572937
1761369606915338000,1.732337890625,0.06780404597520828,0.20348849892616272,-0.7679877281188965
1761369606933948200,1.7509482421875,0.258999228477478,0.3537569046020508,-0.6146650314331055
1761369606952559900,1.769559814453125,0.4434750974178314,0.6744517087936401,-0.4027010500431061
1761369606971170000,1.788170166015625,0.5680879354476929,0.920012354850769,-0.19562382996082306
1761369606989781800,1.80678173828125,0.6359683275222778,1.0036983489990234,-0.01175880990922451
1761369607008392000,1.825391845703125,0.6213080286979675,0.9817079305648804,0.17096087336540222
1761369607027003600,1.844003662109375,0.5308262705802917,0.9499438405036926,0.3193967640399933
1761369607045613800,1.86261376953125,0.41293275356292725,0.8363262414932251,0.382924884557724
1761369607064225500,1.8812255859375,0.2852656841278076,0.6591805219650269,0.33650049567222595
1761369607082835700,1.899835693359375,0.1459924876689911,0.5125772356987,0.2253262847661972
1761369607101447400,1.918447509765625,0.029320668429136276,0.2737359404563904,0.10254598408937454
1761369607120057600,1.9370576171875,-0.04703523963689804,0.1265217363834381,0.04146125912666321
1761369607138669300,1.95566943359375,-0.056808795779943466,0.07032378762960434,0.009697199799120426
1761369607157279700,1.97427978515625,-0.04214845970273018,0.08987089991569519,0.030466007068753242
1761369607175891500,1.992891357421875,-0.09040539711713791,0.18333053588867188,0.11231953650712967
1761369607194501600,2.011501708984375,-0.09345962852239609,0.25235626101493835,0.21066594123840332
1761369607213113300,2.03011328125,-0.05619794875383377,0.31771692633628845,0.33833301067352295
1761369607231723500,2.0487236328125,-0.021990500390529633,0.33298811316490173,0.4898231327533722
1761369607250335200,2.067335205078125,0.024433890357613564,0.17722205817699432,0.6278746128082275
1761369607268945400,2.0859453125,0.06780404597520828,0.06910209357738495,0.7378271222114563
1761369607287557000,2.10455712890625,0.05803048983216286,0.12407834827899933,0.8037986159324646
1761369607306167300,2.123167236328125,0.11667182296514511,0.14667969942092896,0.7408813834190369
1761369607324779000,2.141779052734375,0.14110571146011353,0.06910209357738495,0.5564054846763611
1761369607343389200,2.16038916015625,0.10628741979598999,0.01779092662036419,0.34932827949523926
1761369607362001000,2.1790009765625,0.06963659077882767,0.0361163429915905,0.21616357564926147
1761369607380611000,2.197611083984375,0.06352811306715012,0.06360447406768799,0.15202461183071136
1761369607399222800,2.216222900390625,0.06291726976633072,-0.0231358390301466,0.1355317384004593
1761369607417833000,2.2348330078125,0.04886778071522713,-0.17096087336540222,0.13186664879322052
1761369607436444700,2.253444580078125,0.06780404597520828,-0.25647950172424316,0.11293038725852966
1761369607455054800,2.272054931640625,0.0787992998957634,-0.23632153868675232,0.029855160042643547
1761369607473666600,2.29066650390625,0.06902574002742767,-0.17706935107707977,-0.12048961967229843
1761369607492277000,2.309277099609375,0.04459185153245926,-0.12820157408714294,-0.2658712565898895
1761369607510888700,2.327888671875,0.016492875292897224,-0.10254598408937454,-0.3715478479862213
1761369607529499000,2.346498779296875,-0.01832541823387146,-0.14958122372627258,-0.43141087889671326
1761369607548110600,2.365110595703125,-0.07269082218408585,-0.23082390427589417,-0.4112529158592224
1761369607566720800,2.383720703125,-0.17836740612983704,-0.2625879645347595,-0.3458922505378723
1761369607585332500,2.40233251953125,-0.3158080279827118,-0.32672691345214844,-0.2548760175704956
1761369607603942700,2.420942626953125,-0.3805578351020813,-0.3823140263557434,-0.17485502362251282
1761369607622554400,2.439554443359375,-0.42392799258232117,-0.37681639194488525,-0.1375933438539505
1761369607641164500,2.45816455078125,-0.47707170248031616,-0.255257785320282,-0.10949437320232391
1761369607659776300,2.4767763671875,-0.5021164417266846,-0.15813308954238892,-0.07650861889123917
1761369607678386400,2.495386474609375,-0.4721849262714386,-0.18012358248233795,-0.07956285774707794
1761369607696998100,2.513998046875,-0.37383851408958435,-0.3163425326347351,-0.12354385852813721
1761369607715608300,2.5326083984375,-0.25777754187583923,-0.4757736623287201,-0.1882936656475067
1761369607734220000,2.551219970703125,-0.18691925704479218,-0.5783960223197937,-0.2414373755455017
1761369607752830200,2.569830322265625,-0.20096874237060547,-0.611992597579956,-0.284196674823761
1761369607771442000,2.58844189453125,-0.21501824259757996,-0.644367516040802,-0.29885703325271606
1761369607790052400,2.60705224609375,-0.23334364593029022,-0.7329403758049011,-0.32756683230400085
1761369607808663800,2.625663818359375,-0.2907632887363434,-0.746379017829895,-0.40819868445396423
1761369607827274000,2.64427392578125,-0.34757208824157715,-0.7195017337799072,-0.4821111857891083
1761369607845886000,2.662885986328125,-0.395218163728714,-0.7054522037506104,-0.4937172830104828
1761369607864496000,2.68149609375,-0.4196520745754242,-0.6016082167625427,-0.42224815487861633
1761369607883107800,2.70010791015625,-0.42331716418266296,-0.49715331196784973,-0.2548760175704956
1761369607901718000,2.718718017578125,-0.420873761177063,-0.40125030279159546,0.017027366906404495
1761369607920329700,2.737329833984375,-0.3506263196468353,-0.36398860812187195,0.32245099544525146
1761369607938940000,2.75593994140625,-0.26816195249557495,-0.51914381980896,0.5350258350372314
1761369607957551600,2.774551513671875,-0.2651077210903168,-0.6730773448944092,0.6364265084266663
1761369607976161800,2.793161865234375,-0.33413344621658325,-0.8233457207679749,0.6871268153190613
1761369607994773500,2.8117734375,-0.4312581717967987,-0.9485694169998169,0.6651363372802734
1761369608013383700,2.8303837890625,-0.517998456954956,-0.9247463941574097,0.6290963292121887
1761369608031995400,2.848995361328125,-0.5864133834838867,-0.754930853843689,0.5924454927444458
1761369608050605600,2.86760546875,-0.5913001298904419,-0.45622655749320984,0.542356014251709
1761369608069217300,2.88621728515625,-0.5986303091049194,-0.10437852889299393,0.4488963782787323
1761369608087827500,2.904827392578125,-0.629172682762146,0.06482616811990738,0.30046048760414124
1761369608106439200,2.923439208984375,-0.5809157490730286,0.08131904155015945,0.12697987258434296
1761369608125049300,2.94204931640625,-0.4569137394428253,0.044668205082416534,-0.03924693539738655
1761369608143661000,2.9606611328125,-0.29626092314720154,0.06482616811990738,-0.17118994891643524
1761369608162271200,2.979271240234375,-0.13621893525123596,0.1821088343858719,-0.31473904848098755
1761369608180883000,2.997883056640625,-0.0006108472589403391,0.3360423445701599,-0.4540122151374817
1761369608199493400,3.016493408203125,0.06169557198882103,0.3910185992717743,-0.5700731873512268
1761369608218105000,3.03510498046875,0.10323318839073181,0.42400434613227844,-0.6574243903160095
1761369608236715300,3.05371533203125,0.16676130890846252,0.41972842812538147,-0.695907711982727
1761369608255327000,3.072326904296875,0.24006296694278717,0.3928511440753937,-0.6800256967544556
1761369608273937200,3.090937255859375,0.31947311758995056,0.4044572412967682,-0.6274928450584412
1761369608292548900,3.109548828125,0.3946073353290558,0.4050680994987488,-0.575570821762085
1761369608311159000,3.128158935546875,0.4453076422214508,0.46065518260002136,-0.5383091568946838
1761369608329770800,3.146770751953125,0.49051034450531006,0.5370110869407654,-0.4808894991874695
1761369608348381000,3.165380859375,0.5442649126052856,0.5156314373016357,-0.3953709006309509
1761369608366992600,3.18399267578125,0.5949652194976807,0.3928511440753937,-0.31534990668296814
1761369608385602800,3.202602783203125,0.6280273199081421,0.21081866323947906,-0.254265159368515
1761369608404214500,3.221214599609375,0.6475744247436523,0.047111593186855316,-0.20722992718219757
1761369608422824700,3.23982470703125,0.6616239547729492,-0.07078192383050919,-0.15958385169506073
1761369608441436400,3.2584365234375,0.6677324175834656,-0.1611873209476471,-0.10827267915010452
1761369608460046600,3.277046630859375,0.6579588651657104,-0.24181915819644928,-0.08322793990373611
1761369608478658300,3.295658203125,0.6353574991226196,-0.31023404002189636,-0.11865708231925964
1761369608497268500,3.3142685546875,0.6145886778831482,-0.36215606331825256,-0.19318044185638428
1761369608515880200,3.332880126953125,0.5754181146621704,-0.36337774991989136,-0.25976279377937317
1761369608534490400,3.351490478515625,0.5027272701263428,-0.3817031681537628,-0.3184041380882263
1761369608553102000,3.37010205078125,0.4282039403915405,-0.3694862425327301,-0.3593308925628662
1761369608571712500,3.38871240234375,0.3762819170951843,-0.26991814374923706,-0.3868190348148346
1761369608590324000,3.407323974609375,0.35978904366493225,-0.15446799993515015,-0.41858309507369995
1761369608608934100,3.42593408203125,0.3536805510520935,0.004963133949786425,-0.4540122151374817
1761369608627545900,3.4445458984375,0.3689517378807068,0.12224581092596054,-0.44301697611808777
1761369608646156300,3.46315625,0.3927747905254364,0.2212030589580536,-0.35138988494873047
1761369608664768000,3.48176806640625,0.395218163728714,0.2725142240524292,-0.2017323076725006
1761369608683378200,3.500378173828125,0.4172086715698242,0.3146626949310303,-0.023364907130599022
1761369608701990000,3.518989990234375,0.4453076422214508,0.348259299993515,0.12881241738796234
1761369608720600000,3.53760009765625,0.4819584786891937,0.35558944940567017,0.23082390427589417
1761369608739211800,3.556211669921875,0.5216635465621948,0.3623087704181671,0.2894652485847473
1761369608757822000,3.574822021484375,0.5583143830299377,0.40934401750564575,0.3059581220149994
1761369608776433700,3.59343359375,0.6103127598762512,0.4142307937145233,0.29618456959724426
1761369608795043800,3.6120439453125,0.6280273199081421,0.3910185992717743,0.27113983035087585
1761369608813655600,3.630655517578125,0.6017609238624573,0.38002336025238037,0.2528144121170044
1761369608832265700,3.649265625,0.5509842038154602,0.3360423445701599,0.226547971367836
1761369608850877400,3.66787744140625,0.4679090082645416,0.2682383060455322,0.17157171666622162
1761369608869487600,3.686487548828125,0.34451785683631897,0.17538951337337494,0.0689493864774704
1761369608888099300,3.705099365234375,0.1966928243637085,0.027564482763409615,-0.051463883370161057
1761369608906709500,3.72370947265625,0.08551861345767975,-0.07200361788272858,-0.12965233623981476
1761369608925321200,3.7423212890625,0.028098974376916885,-0.06406260281801224,-0.10705098509788513
1761369608943931400,3.760931396484375,0.0006108472589403391,0.04222481697797775,0.05062396824359894
1761369608962543000,3.779543212890625,-0.01588202826678753,0.18760646879673004,0.31389912962913513
1761369608981153300,3.7981533203125,-0.03176405653357506,0.2731250822544098,0.5985539555549622
1761369608999765000,3.816764892578125,-0.05986303091049194,0.23769593238830566,0.8001335263252258
1761369609018375200,3.835375244140625,-0.0659715011715889,0.17050273716449738,0.8984799385070801
1761369609036987000,3.85398681640625,-0.051922015845775604,0.11063970625400543,0.875267744064331
1761369609055597000,3.87259716796875,-0.04153761267662048,0.04222481697797775,0.7451573014259338
1761369609074208800,3.891208740234375,-0.056808795779943466,-0.07750124484300613,0.5551838278770447
1761369609092819000,3.90981884765625,-0.056808795779943466,-0.17768019437789917,0.33650049567222595
1761369609111430700,3.9284306640625,-0.04092676565051079,-0.23632153868675232,0.08605311065912247
1761369609130040800,3.947040771484375,-0.02626643143594265,-0.24609509110450745,-0.2157817929983139
1761369609148652500,3.965652587890625,0.004886778071522713,-0.2546469569206238,-0.49799323081970215
1761369609167263000,3.984262939453125,0.0647498071193695,-0.11842801421880722,-0.5877877473831177
1761369609185874700,4.002874755859375,0.0916270911693573,0.06604786217212677,-0.4362976551055908
1761369609204484600,4.021484619140625,0.07757759839296341,0.20226679742336273,-0.2017323076725006
1761369609223096600,4.0400966796875,0.15149012207984924,0.28106608986854553,0.11903885751962662
1761369609241706800,4.058706787109375,0.22662433981895447,0.2615189850330353,0.33650049567222595
1761369609260318500,4.077318359375,0.3017585575580597,0.2199813723564148,0.37742725014686584
1761369609278928600,4.0959287109375,0.41476529836654663,0.18638476729393005,0.26014456152915955
1761369609297540400,4.114540283203125,0.5308262705802917,0.19127154350280762,0.04756972938776016
1761369609316150500,4.133150634765625,0.6268056631088257,0.23464170098304749,-0.1754658818244934
1761369609334762200,4.15176220703125,0.6805602312088013,0.2859528660774231,-0.3611634373664856
1761369609353372400,4.170372314453125,0.7312605381011963,0.2987806797027588,-0.46928340196609497
1761369609371984100,4.188984130859375,0.7446991801261902,0.2835094928741455,-0.5004366040229797
1761369609390594300,4.20759423828125,0.739201545715332,0.2877854108810425,-0.47355934977531433
1761369609409206000,4.2262060546875,0.7092700004577637,0.29389387369155884,-0.40331190824508667
1761369609427816200,4.244816162109375,0.6396334171295166,0.3006131947040558,-0.3190149664878845
1761369609446428000,4.263427978515625,0.5534276366233826,0.3262687921524048,-0.23960483074188232
1761369609465038000,4.2820380859375,0.5210527181625366,0.3513135313987732,-0.15286453068256378
1761369609483649800,4.30064990234375,0.5082249045372009,0.43316707015037537,-0.072843536734581
1761369609502260000,4.319260009765625,0.5302154421806335,0.5510605573654175,-0.0331384651362896
1761369609520871700,4.33787158203125,0.5766398310661316,0.6432985067367554,-0.06917845457792282
1761369609539481900,4.35648193359375,0.6573479771614075,0.6017609238624573,-0.15286453068256378
1761369609558093600,4.375093505859375,0.7025507092475891,0.5003602504730225,-0.27503398060798645
1761369609576703700,4.393703857421875,0.7147676348686218,0.45027077198028564,-0.41797223687171936
1761369609595315500,4.4123154296875,0.7104917168617249,0.5345677137374878,-0.5786250829696655
1761369609613925600,4.430925537109375,0.6206972002983093,0.6579588651657104,-0.7979192137718201
1761369609632537300,4.449537353515625,0.5112791657447815,0.896189272403717,-0.983005940914154
1761369609651147500,4.4681474609375,0.29503923654556274,1.2432268857955933,-1.0043855905532837
1761369609669759200,4.48675927734375,-0.029320668429136276,1.4075448513031006,-0.9249754548072815
1761369609688369400,4.505369384765625,-0.3310792148113251,1.589577317237854,-0.673306405544281
1761369609706981000,4.523981201171875,-0.5137225389480591,1.6036267280578613,-0.21333840489387512
1761369609725591300,4.54259130859375,-0.5137225389480591,1.353790283203125,0.24731677770614624
1761369609744203000,4.561203125,-0.22479179501533508,1.053176999092102,0.6058841347694397
1761369609762813200,4.579813232421875,0.21501824259757996,1.160075306892395,0.7763105034828186
1761369609781425000,4.5984248046875,0.6921663284301758,1.21818208694458,0.7408813834190369
1761369609800035000,4.61703515625,1.0415709018707275,1.0421817302703857,0.5417451858520508
1761369609818646800,4.635646728515625,1.2254359722137451,0.8552625179290771,0.27236151695251465
1761369609837257000,4.654257080078125,1.3103437423706055,0.6891120672225952,0.026190076023340225
1761369609855868700,4.67286865234375,1.3170630931854248,0.44965994358062744,-0.15408621728420258
1761369609874478800,4.691478759765625,1.2407071590423584,0.2871745824813843,-0.20234315097332
1761369609893090600,4.710090576171875,1.0873844623565674,0.2987806797027588,-0.1638597846031189
1761369609911700700,4.72870068359375,0.9505546689033508,0.35558944940567017,-0.16080553829669952
1761369609930312400,4.7473125,0.7648571133613586,0.3397074341773987,-0.2145601063966751
1761369609948922600,4.765922607421875,0.46302223205566406,0.35620030760765076,-0.3367295563220978
1761369609967534300,4.784534423828125,0.09590301662683487,0.3366532027721405,-0.4900522232055664
1761369609986144500,4.80314453125,-0.21501824259757996,0.19004985690116882,-0.6751389503479004
1761369610004756200,4.821756103515625,-0.20646637678146362,0.24746949970722198,-0.9622371196746826
1761369610023366400,4.840366455078125,0.10384403169155121,0.4722612798213959,-1.187639832496643
1761369610041978000,4.85897802734375,0.34573954343795776,0.7025507092475891,-1.301868200302124
1761369610060588300,4.87758837890625,0.5809157490730286,0.8100598454475403,-1.306144118309021
1761369610079200000,4.896199951171875,0.7178218960762024,0.7654679417610168,-1.1589299440383911
1761369610097810200,4.91481005859375,0.7966212034225464,0.5657209157943726,-0.8553388714790344
1761369610116422000,4.933421875,0.8827506303787231,0.3616979420185089,-0.5150969624519348
1761369610135032000,4.952031982421875,1.011028528213501,0.1668376624584198,-0.23227466642856598
1761369610153643800,4.970643798828125,1.1777899265289307,0.022066857665777206,-0.08078455179929733
1761369610172254000,4.98925390625,1.3970839977264404,-0.07261446863412857,-0.023975754156708717
1761369610190865700,5.00786572265625,1.5925551652908325,-0.15141376852989197,-0.016645587980747223
1761369610209475800,5.026475830078125,1.6933449506759644,-0.25831204652786255,-0.017867282032966614
1761369610228087600,5.045087646484375,1.6377578973770142,-0.43118181824684143,-0.04107947647571564
1761369610246697700,5.06369775390625,1.4917653799057007,-0.62543123960495,-0.10460758954286575
1761369610265309400,5.082309326171875,1.2938508987426758,-0.7323294878005981,-0.15408621728420258
1761369610283919600,5.100919677734375,1.0812760591506958,-0.6223769783973694,-0.1498102843761444
1761369610302531300,5.11953125,0.9725452065467834,-0.3835357129573822,-0.05757235363125801
1761369610321141500,5.1381416015625,1.0244672298431396,-0.22838051617145538,0.11048699915409088
1761369610339753200,5.156753173828125,1.1777899265289307,-0.06650599837303162,0.31328830122947693
1761369610358363400,5.17536328125,1.290185809135437,0.15584240853786469,0.46905434131622314
1761369610376975000,5.19397509765625,1.3879213333129883,0.15584240853786469,0.593667209148407
1761369610395585300,5.212585205078125,1.465498924255371,0.03306210786104202,0.7573742270469666
1761369610414197000,5.231197021484375,1.4636664390563965,0.0745997205376625,0.8905389308929443
1761369610432807200,5.24980712890625,1.4227396249771118,0.23891763389110565,0.8172372579574585
1761369610451419000,5.2684189453125,1.3201172351837158,0.27617931365966797,0.44523128867149353
1761369610470029000,5.287029052734375,1.0788326263427734,-0.031076854094862938,-0.13331741094589233
1761369610488640800,5.305640869140625,0.7770740985870361,-0.2515927255153656,-0.511431872844696
1761369610507251000,5.3242509765625,0.42331716418266296,-0.32489439845085144,-0.5657972693443298
1761369610525862700,5.342862548828125,0.0910162404179573,-0.32367268204689026,-0.4680617153644562
1761369610544472800,5.361472900390625,-0.08246438205242157,-0.24426254630088806,-0.32878854870796204
1761369610563084500,5.38008447265625,-0.11117420345544815,0.045889899134635925,-0.1754658818244934
1761369610581694700,5.39869482421875,0.0012216945178806782,0.44660571217536926,-0.0068720318377017975
1761369610600306400,5.417306396484375,0.23334364593029022,0.7673004865646362,0.13247749209403992
1761369610618916600,5.43591650390625,0.5216635465621948,0.8754204511642456,0.1361425817012787
1761369610637528300,5.4545283203125,0.7776849269866943,0.9139038324356079,0.045737188309431076
1761369610656138500,5.473138427734375,0.854040801525116,0.7807391285896301,-0.0856713280081749
1761369610674750200,5.491750244140625,0.8094489574432373,0.6707866191864014,-0.19195875525474548
1761369610693360400,5.5103603515625,0.7795174717903137,0.6029825806617737,-0.24754585325717926
1761369610711972000,5.52897216796875,0.8570950627326965,0.6145886778831482,-0.23899398744106293
1761369610730582300,5.547582275390625,0.9731560349464417,0.5644991993904114,-0.19928891956806183
1761369610749194000,5.566194091796875,0.9389485716819763,0.4050680994987488,-0.2163926362991333
1761369610767804200,5.58480419921875,0.7135459780693054,0.20226679742336273,-0.22127941250801086
1761369610786415900,5.603415771484375,0.40254834294319153,-0.004810422193259001,-0.17302247881889343
1761369610805026000,5.622026123046875,0.12400199472904205,-0.13858596980571747,-0.06551336497068405
1761369610823637800,5.6406376953125,-0.08551861345767975,-0.1624090075492859,0.0561215914785862
1761369610842248000,5.659248046875,-0.2211267054080963,-0.0823880210518837,0.10987614840269089
1761369610860859600,5.677859619140625,-0.2761029601097107,0.08009734749794006,0.07505785673856735
1761369610879469800,5.6964697265625,-0.25350162386894226,0.23769593238830566,-0.00992626789957285
1761369610898081500,5.71508154296875,-0.17409147322177887,0.44721654057502747,-0.06673506647348404
1761369610916691700,5.733691650390625,-0.07635590434074402,0.4973060190677643,-0.09361234307289124
1761369610935303400,5.752303466796875,0.023212196305394173,0.47531551122665405,-0.07711946964263916
1761369610953913600,5.77091357421875,0.04337015375494957,0.378190815448761,-0.0716218426823616
1761369610972525300,5.789525390625,0.01038440316915512,0.17783290147781372,-0.10644013434648514
1761369610991135500,5.808135498046875,-0.05497625470161438,-0.04756972938776016,-0.1516428291797638
1761369611009747200,5.826747314453125,-0.13560809195041656,-0.2540360987186432,-0.19256959855556488
1761369611028357400,5.845357421875,-0.21746163070201874,-0.4073587656021118,-0.21211670339107513
1761369611046969000,5.863968994140625,-0.28221142292022705,-0.46722179651260376,-0.2047865390777588
1761369611065579300,5.882579345703125,-0.30725616216659546,-0.5002075433731079,-0.19379130005836487
1761369611084191000,5.90119091796875,-0.3005368411540985,-0.5643464922904968,-0.19562382996082306
1761369611102801200,5.91980126953125,-0.2339545041322708,-0.6932352781295776,-0.20661908388137817
1761369611121412900,5.938412841796875,-0.09590301662683487,-0.8270108103752136,-0.2041756957769394
1761369611140023000,5.95702294921875,0.038483377546072006,-0.9302440285682678,-0.13514995574951172
1761369611158634800,5.975634765625,0.18081079423427582,-0.9510128498077393,0.0023670331574976444
1761369611177245000,5.994244873046875,0.3042019307613373,-0.9198595881462097,0.10987614840269089
1761369611195856600,6.012856689453125,0.393385648727417,-0.8361735343933105,0.20272493362426758
1761369611214466800,6.031466796875,0.47768256068229675,-0.7152257561683655,0.2919086217880249
1761369611233078500,6.05007861328125,0.48928865790367126,-0.6804074645042419,0.30046048760414124
1761369611251688700,6.068688720703125,0.39766156673431396,-0.8422819972038269,0.20944425463676453
1761369611270300400,6.087300537109375,0.14721418917179108,-1.0261470079421997,0.07444700598716736
1761369611288910600,6.10591064453125,-0.2736595869064331,-0.8990908265113831,0.02557922899723053
1761369611307522300,6.124522216796875,-0.5833591222763062,-0.6694122552871704,0.07872293889522552
1761369611326132500,6.143132568359375,-0.6340594291687012,-0.4207974076271057,0.1868429034948349
1761369611344744200,6.161744140625,-0.5326588153839111,-0.17768019437789917,0.3310028612613678
1761369611363354400,6.180354248046875,-0.30725616216659546,0.035505495965480804,0.4879906177520752
1761369611381966000,6.198966064453125,-0.0525328628718853,0.1533990204334259,0.6370373368263245
1761369611400576300,6.217576171875,0.1459924876689911,0.18577392399311066,0.699343740940094
1761369611419188000,6.23618798828125,0.20524467527866364,0.18821731209754944,0.5674007534980774
1761369611437798100,6.254798095703125,0.11178504675626755,0.06482616811990738,0.255257785320282
1761369611456409900,6.273409912109375,-0.034818295389413834,-0.12820157408714294,-0.12354385852813721
1761369611475020000,6.29202001953125,-0.17897824943065643,-0.3316137194633484,-0.488219678401947
1761369611493631500,6.310631591796875,-0.3665083646774292,-0.3029038906097412,-0.751494824886322
1761369611512242000,6.329241943359375,-0.45508119463920593,0.019623467698693275,-0.9011524319648743
1761369611530853400,6.347853271484375,-0.4575245976448059,0.43561044335365295,-0.9677347540855408
1761369611549463800,6.3664638671875,-0.3817795515060425,0.7599703669548035,-0.992168664932251
1761369611568075300,6.3850751953125,-0.29320669174194336,0.9609391093254089,-1.0422581434249878
1761369611586685400,6.403685546875,-0.23884128034114838,1.044625163078308,-1.154043197631836
1761369611605297200,6.422297119140625,-0.24067382514476776,0.9719343185424805,-1.3330214023590088
1761369611623907300,6.4409072265625,-0.22784602642059326,0.8344936966896057,-1.5346009731292725
1761369611642519000,6.45951904296875,-0.15026842057704926,0.6707866191864014,-1.71846604347229
1761369611661129200,6.478129150390625,-0.0012216945178806782,0.47592636942863464,-1.840024709701538
1761369611679741000,6.496740966796875,0.1575985997915268,0.2987806797027588,-1.8479657173156738
1761369611698351000,6.51535107421875,0.26632940769195557,0.2334200143814087,-1.7483975887298584
1761369611716962800,6.533962890625,0.26694026589393616,0.17355698347091675,-1.5987399816513062
1761369611735573000,6.552572998046875,0.25289076566696167,0.15828579664230347,-1.3794457912445068
1761369611754184700,6.571184814453125,0.3830012381076813,0.1796654462814331,-1.0666919946670532
1761369611772795000,6.589794921875,0.6151995658874512,0.21020781993865967,-0.669030487537384
1761369611791406600,6.608406494140625,0.8430455923080444,0.19615831971168518,-0.23532891273498535
1761369611810016800,6.627016845703125,0.9719343185424805,0.08131904155015945,0.1593547761440277
1761369611828628500,6.64562841796875,1.0000332593917847,-0.09827005118131638,0.4482855200767517
1761369611847238700,6.66423876953125,0.951776385307312,-0.3200076222419739,0.6126034259796143
1761369611865850400,6.682850341796875,0.8253310322761536,-0.5405234694480896,0.6413132548332214
1761369611884460500,6.70146044921875,0.6549046039581299,-0.7317186594009399,0.5637356638908386
1761369611903072300,6.720072265625,0.49173203110694885,-0.8428928852081299,0.46905434131622314
1761369611921682400,6.738682373046875,0.3830012381076813,-0.8135721683502197,0.4391228258609772
1761369611940294100,6.757294189453125,0.3524588644504547,-0.769591212272644,0.4653892517089844
1761369611958904300,6.775904296875,0.32008397579193115,-0.7579851150512695,0.5197546482086182
1761369611977516000,6.79451611328125,0.31886225938796997,-0.5716766715049744,0.611992597579956
1761369611996126200,6.813126220703125,0.3432961702346802,-0.39147675037384033,0.6614712476730347
1761369612014738000,6.831738037109375,0.32252734899520874,-0.32733777165412903,0.5967214107513428
1761369612033348000,6.85034814453125,0.2870981991291046,-0.28763270378112793,0.46661093831062317
1761369612051959800,6.868959716796875,0.24617144465446472,-0.22166119515895844,0.3310028612613678
1761369612070570000,6.887570068359375,0.24311721324920654,-0.0817771777510643,0.2662530541419983
1761369612089181700,6.906181640625,0.2638860046863556,0.015958385542035103,0.28274592757225037
1761369612107792000,6.9247919921875,0.2754921019077301,0.053830914199352264,0.3468848764896393
1761369612126403600,6.943403564453125,0.2626643180847168,-0.04085041210055351,0.41529977321624756
1761369612145013800,6.962013671875,0.26694026589393616,-0.19295138120651245,0.48371466994285583
1761369612163625500,6.98062548828125,0.3127537965774536,-0.28702184557914734,0.5704549551010132
1761369612182235400,6.9992353515625,0.38544461131095886,-0.26930728554725647,0.6468108892440796
1761369612200847400,7.017847412109375,0.47890424728393555,-0.15630054473876953,0.6620820760726929
1761369612219457300,7.036457275390625,0.5601469278335571,-0.11598462611436844,0.5460211038589478
1761369612238069000,7.055069091796875,0.669564962387085,-0.1984490007162094,0.3151208162307739
1761369612256679200,7.07367919921875,0.7587486505508423,-0.352993369102478,0.05184566229581833
1761369612275291000,7.092290771484375,0.7831825613975525,-0.5057051777839661,-0.17241163551807404
1761369612293901000,7.110901123046875,0.7172110676765442,-0.6272637844085693,-0.3489464819431305
1761369612312512800,7.1295126953125,0.5986303091049194,-0.6455891728401184,-0.4674508571624756
1761369612331123000,7.148123046875,0.45508119463920593,-0.538080096244812,-0.5108210444450378
1761369612349734700,7.166734619140625,0.3365768492221832,-0.3474957346916199,-0.4747810363769531
1761369612368344800,7.1853447265625,0.2907632887363434,-0.0817771777510643,-0.38009971380233765
1761369612386956500,7.20395654296875,0.3762819170951843,0.16134002804756165,-0.2677038013935089
1761369612405566700,7.222566650390625,0.5601469278335571,0.30305659770965576,-0.1779092699289322
1761369612424178400,7.241178466796875,0.7416449189186096,0.29511559009552,-0.12843063473701477
1761369612442788600,7.25978857421875,0.896189272403717,0.19921256601810455,-0.09239064902067184
1761369612461400300,7.278400390625,1.0201913118362427,0.11796987801790237,-0.02886253222823143
1761369612480010500,7.297010498046875,1.080665111541748,0.0745997205376625,0.07566870748996735
1761369612498622200,7.315622314453125,1.0666157007217407,-0.006642963737249374,0.17035003006458282
1761369612517232400,7.334232421875,0.9975899457931519,-0.12026055157184601,0.2247154414653778
1761369612535844000,7.352843994140625,0.877863883972168,-0.24670593440532684,0.24853847920894623
1761369612554454300,7.371454345703125,0.7648571133613586,-0.3200076222419739,0.2540360987186432
1761369612573066000,7.39006591796875,0.7019398808479309,-0.278469979763031,0.24792763590812683
1761369612591676200,7.40867626953125,0.6524612307548523,-0.19050799310207367,0.2112767994403839
1761369612610287900,7.427287841796875,0.5302154421806335,-0.2124984860420227,0.07139277458190918
1761369612628898000,7.44589794921875,0.258999228477478,-0.38781166076660156,-0.17974179983139038
1761369612647509500,7.464509521484375,0.01588202826678753,-0.46783265471458435,-0.3477247953414917
1761369612666120000,7.483119873046875,-0.04703523963689804,-0.2644205093383789,-0.2817533016204834
1761369612684731400,7.5017314453125,0.07085828483104706,0.07276718318462372,-0.04413371533155441
1761369612703341800,7.520341796875,0.2608317732810974,0.3488701283931732,0.21738526225090027
1761369612721953300,7.538953369140625,0.5418215394020081,0.47714805603027344,0.3853682577610016
1761369612740563500,7.5575634765625,0.7398123741149902,0.6127561330795288,0.3676536977291107
1761369612759175200,7.576175048828125,0.873587965965271,0.6836144328117371,0.22899135947227478
1761369612777785300,7.594785400390625,0.9725452065467834,0.7343147397041321,0.03779617324471474
1761369612796397000,7.61339697265625,1.0611180067062378,0.7465317249298096,-0.1650814712047577
1761369612815007200,7.63200732421875,1.14541494846344,0.692777156829834,-0.39170581102371216
1761369612833619000,7.650618896484375,1.1991695165634155,0.5638883709907532,-0.6213843822479248
1761369612852229000,7.66922900390625,1.2089431285858154,0.39590537548065186,-0.8046385645866394
1761369612870840800,7.6878408203125,1.187563419342041,0.2737359404563904,-0.8822161555290222
1761369612889451000,7.706450927734375,1.136863112449646,0.24930204451084137,-0.8480086922645569
1761369612908062700,7.725062744140625,1.109375,0.2566322088241577,-0.7441646456718445
1761369612926673000,7.7436728515625,1.160075306892395,0.26762744784355164,-0.6140542030334473
1761369612945284600,7.76228466796875,1.2718603610992432,0.2334200143814087,-0.5102101564407349
1761369612963894800,7.780894775390625,1.428848147392273,0.14973393082618713,-0.45523393154144287
1761369612982506500,7.799506591796875,1.5876684188842773,0.03306210786104202,-0.4656183123588562
1761369613001116700,7.81811669921875,1.7177788019180298,-0.0811663269996643,-0.5236487984657288
1761369613019728400,7.836728271484375,1.7996324300765991,-0.15385715663433075,-0.59023118019104
1761369613038338600,7.855338623046875,1.844224214553833,-0.18256697058677673,-0.6354338526725769
1761369613056950300,7.8739501953125,1.8765991926193237,-0.17768019437789917,-0.6647545099258423
1761369613075560400,7.892560546875,1.9053089618682861,-0.11537377536296844,-0.6873558759689331
1761369613094172000,7.911171875,1.9450139999389648,-0.015805672854185104,-0.673306405544281
1761369613112782000,7.929781982421875,2.006709575653076,0.09475768357515335,-0.6036698222160339
1761369613131393800,7.948393798828125,2.0971150398254395,0.19066070020198822,-0.4674508571624756
1761369613150004000,7.96700390625,2.197293996810913,0.2328091561794281,-0.2829749882221222
1761369613168615700,7.98561572265625,2.2883102893829346,0.2444152534008026,-0.09544488787651062
1761369613187225900,8.004225830078125,2.373218059539795,0.33298811316490173,0.07689040154218674
1761369613205837600,8.022837646484374,2.4300267696380615,0.4276694357395172,0.23021306097507477
1761369613224447700,8.04144775390625,2.4733970165252686,0.46432027220726013,0.3462740480899811
1761369613243059500,8.0600595703125,2.5424225330352783,0.6042042970657349,0.41041299700737
1761369613261669600,8.078669677734375,2.6755874156951904,0.7049940824508667,0.3542150557041168
1761369613280281300,8.09728125,2.8081412315368652,0.7031615376472473,0.08910734206438065
1761369613298891500,8.1158916015625,2.8081412315368652,0.29389387369155884,-0.35627666115760803
1761369613317503200,8.134503173828126,2.66275954246521,-0.2405974566936493,-0.7142331600189209
1761369613336113400,8.153113525390625,2.4324700832366943,-0.6883485317230225,-0.798530101776123
1761369613354725000,8.17172509765625,2.228447198867798,-0.9607864022254944,-0.6018372774124146
1761369613373335300,8.190335205078124,2.102001667022705,-1.0536351203918457,-0.27686652541160583
1761369613391947000,8.208947021484375,2.0140397548675537,-0.8447254300117493,0.06467345356941223
1761369613410557200,8.22755712890625,1.9926601648330688,-0.4776062071323395,0.3444415032863617
1761369613429168600,8.246168701171875,2.055577278137207,-0.07444700598716736,0.5411342978477478
1761369613447778800,8.26477880859375,2.1056668758392334,0.4038463830947876,0.6449783444404602
1761369613466390500,8.283390625,1.946846604347229,0.924288272857666,0.5564054846763611
1761369613485000700,8.302000732421876,1.6493639945983887,1.1386955976486206,0.26075541973114014
1761369613503612400,8.3206123046875,1.2675844430923462,1.084941029548645,-0.14858859777450562
1761369613522222600,8.33922265625,0.8900808095932007,0.9639933109283447,-0.515707790851593
1761369613540834300,8.357834228515625,0.5467082858085632,0.6793385148048401,-0.7808154821395874
1761369613559444500,8.376444580078125,0.37689274549484253,0.5596124529838562,-0.8364025950431824
1761369613578056200,8.39505615234375,0.35978904366493225,0.5376219153404236,-0.7404996156692505
1761369613596666400,8.413666259765625,0.46485477685928345,0.5418978929519653,-0.6103891134262085
1761369613615278000,8.432278076171874,0.715989351272583,0.6591805219650269,-0.4497362971305847
1761369613633888300,8.45088818359375,1.0953254699707031,0.7294279932975769,-0.28725093603134155
1761369613652500000,8.4695,1.4587795734405518,1.141139030456543,-0.16813570261001587
1761369613671110100,8.488110107421875,1.686625599861145,1.2548329830169678,-0.14064757525920868
1761369613689721600,8.5067216796875,1.9040873050689697,1.1509126424789429,-0.11377029865980148
1761369613708332000,8.52533203125,1.9492899179458618,0.984151303768158,-0.08689302206039429
1761369613726943500,8.543943603515626,1.8833184242248535,0.5724402666091919,0.02008160389959812
1761369613745553700,8.5625537109375,1.783750295639038,0.09109259396791458,0.20822255313396454
1761369613764165400,8.581165283203125,1.7135028839111328,-0.29740625619888306,0.40308284759521484
1761369613782775600,8.599775634765624,1.729995846748352,-0.5832827687263489,0.5344150066375732
1761369613801387300,8.61838720703125,1.7770310640335083,-0.703619658946991,0.6187118887901306
1761369613819997400,8.63699755859375,1.8173469305038452,-0.648643434047699,0.6871268153190613
1761369613838609200,8.655609130859375,1.8405591249465942,-0.4769953489303589,0.750654935836792
1761369613857219300,8.67421923828125,1.8503327369689941,-0.28274592757225037,0.8111287951469421
1761369613875831000,8.6928310546875,1.8723231554031372,-0.03290939703583717,0.8673267364501953
1761369613894441200,8.711441162109375,1.8765991926193237,0.34276166558265686,0.8557206392288208
1761369613913053000,8.730052978515625,1.793523907661438,0.47409382462501526,0.7121715545654297
1761369613931663000,8.7486630859375,1.6438663005828857,0.38368842005729675,0.4513397812843323
1761369613950274600,8.767274658203124,1.460612177848816,0.4423297643661499,0.16546325385570526
1761369613968884700,8.785884765625,1.2376528978347778,0.5406761765480042,-0.17424418032169342
1761369613987496400,8.804496337890624,1.0550096035003662,0.6378008723258972,-0.49493899941444397
1761369614006106600,8.823106689453125,0.8815289735794067,0.6378008723258972,-0.7698202729225159
1761369614024718300,8.84171826171875,0.7379798293113708,0.6836144328117371,-0.9585720896720886
1761369614043328500,8.86032861328125,0.6280273199081421,0.7062157988548279,-1.0691354274749756
1761369614061940200,8.878940185546876,0.5509842038154602,0.6035934686660767,-1.122279167175293
1761369614080550400,8.89755029296875,0.4709632396697998,0.44782739877700806,-1.1277767419815063
1761369614099162000,8.916162109375,0.41415444016456604,0.24197186529636383,-1.0453124046325684
1761369614117772300,8.934772216796874,0.3805578351020813,0.053830914199352264,-0.8669449687004089
1761369614136384000,8.953384033203125,0.32008397579193115,-0.0823880210518837,-0.6195518374443054
1761369614154994200,8.971994140625,0.22601348161697388,-0.09277242422103882,-0.32756683230400085
1761369614173605600,8.990605712890625,0.12583453953266144,0.08437328040599823,-0.06306997686624527
1761369614192215800,9.0092158203125,0.08429691940546036,0.2071535736322403,0.07322531193494797
1761369614210827500,9.02782763671875,0.10689827054738998,0.21204034984111786,0.09888090193271637
1761369614229437700,9.046437744140626,0.0910162404179573,0.16134002804756165,0.08360971510410309
1761369614248049400,9.06504931640625,0.02993151545524597,0.1271325796842575,0.05062396824359894
1761369614266659600,9.08365966796875,-0.046424392610788345,0.1424037665128708,-0.021532366052269936
1761369614285271300,9.102271240234375,-0.09407047927379608,0.1283542811870575,-0.1369825005531311
1761369614303881500,9.120881591796875,-0.04581354558467865,0.07826480269432068,-0.2518217861652374
1761369614322493200,9.1394931640625,0.09956810623407364,0.000687203137204051,-0.3104631304740906
1761369614341103400,9.158103271484375,0.28037887811660767,-0.029855160042643547,-0.2848075330257416
1761369614359714800,9.17671484375,0.4459185004234314,0.022066857665777206,-0.1754658818244934
1761369614378325000,9.195324951171875,0.5454866290092468,0.1259108930826187,-0.022754060104489326
1761369614396936700,9.213936767578126,0.5913001298904419,0.24197186529636383,0.11109784245491028
1761369614415547000,9.232546875,0.6103127598762512,0.26640576124191284,0.18012358248233795
1761369614434158600,9.25115869140625,0.5864133834838867,0.20287764072418213,0.19111883640289307
1761369614452768800,9.269768798828125,0.5454866290092468,0.09842276573181152,0.16607409715652466
1761369614471380500,9.28838037109375,0.5015056133270264,-0.0005344913806766272,0.10987614840269089
1761369614489990700,9.30699072265625,0.45508119463920593,-0.04879142343997955,0.04023956134915352
1761369614508602400,9.325602294921875,0.416597843170166,-0.00908635277301073,-0.01969982497394085
1761369614527212500,9.344212646484374,0.37200596928596497,0.031229566782712936,-0.07834116369485855
1761369614545824000,9.362823974609375,0.312142938375473,0.0019088976550847292,-0.11560284346342087
1761369614564434200,9.38143408203125,0.2620534598827362,-0.008475505746901035,-0.10888352245092392
1761369614583046000,9.4000458984375,0.2363978922367096,0.03489464893937111,-0.07467607408761978
1761369614601656000,9.418656005859376,0.22784602642059326,0.062993623316288,-0.04046862944960594
1761369614620267800,9.437267822265625,0.24311721324920654,0.12102411687374115,-0.0068720318377017975
1761369614638878000,9.4558779296875,0.2864873707294464,0.1784437596797943,0.02008160389959812
1761369614657489700,9.47448974609375,0.3292466700077057,0.15217731893062592,0.03168770298361778
1761369614676099800,9.493099853515625,0.3414636254310608,0.055052608251571655,0.04818057641386986
1761369614694711600,9.511711669921874,0.342074453830719,-0.006642963737249374,0.0952158197760582
1761369614713321700,9.53032177734375,0.34818294644355774,0.014736690558493137,0.1617981642484665
1761369614731933200,9.54893310546875,0.33718767762184143,0.12163496017456055,0.21982865035533905
1761369614750543400,9.56754345703125,0.30969956517219543,0.2743467688560486,0.26930728554725647
1761369614769155000,9.586155029296876,0.29503923654556274,0.4325562119483948,0.2925194799900055
1761369614787765200,9.60476513671875,0.2999260127544403,0.5076904296875,0.27113983035087585
1761369614806377000,9.623376953125,0.3042019307613373,0.5388436317443848,0.21860696375370026
1761369614824987100,9.641987060546874,0.32374903559684753,0.5535039901733398,0.22349373996257782
1761369614843598800,9.660598876953125,0.37200596928596497,0.6402443051338196,0.3468848764896393
1761369614862209000,9.679208984375,0.420873761177063,0.8143357634544373,0.4482855200767517
1761369614880820500,9.697820556640625,0.4471401870250702,0.8296069502830505,0.4201865494251251
1761369614899430700,9.7164306640625,0.4453076422214508,0.7025507092475891,0.3200076222419739
1761369614918042400,9.73504248046875,0.30725616216659546,0.3763582706451416,0.1740151196718216
1761369614936652500,9.753652587890626,0.08551861345767975,-0.005421269219368696,0.02008160389959812
1761369614955264300,9.77226416015625,-0.08490777015686035,-0.3438306450843811,-0.05207473039627075
1761369614973874400,9.79087451171875,-0.1429382562637329,-0.45622655749320984,0.006642963737249374
1761369614992486100,9.809486083984375,-0.08185353130102158,-0.40430453419685364,0.1471378356218338
1761369615011096000,9.828095947265625,0.043981000781059265,-0.3548259139060974,0.33833301067352295
1761369615029707800,9.846707763671875,0.14965757727622986,-0.2754157483577728,0.5429668426513672
1761369615048318000,9.86531787109375,0.2235700935125351,-0.18928629159927368,0.6987329125404358
1761369615066929700,9.8839296875,0.2999260127544403,-0.1459161341190338,0.7402704954147339
1761369615085539800,9.902539794921875,0.3927747905254364,-0.11964970827102661,0.643756628036499
1761369615104151600,9.921151611328124,0.5265503525733948,-0.05734328553080559,0.49715331196784973
1761369615122761700,9.93976171875,0.6634564995765686,0.00129805039614439,0.32306185364723206
1761369615141373400,9.95837353515625,0.7385907173156738,-0.08727480471134186,0.11659546941518784
1761369615159983400,9.9769833984375,0.6701757907867432,-0.23571068048477173,-0.0856713280081749
1761369615178595000,9.995594970703126,0.4703523814678192,-0.3975852131843567,-0.23777230083942413
1761369615197205200,10.014205322265624,0.23334364593029022,-0.48127129673957825,-0.3471139669418335
1761369615215817000,10.03281689453125,0.038483377546072006,-0.4366794228553772,-0.4289674758911133
1761369615234427100,10.05142724609375,-0.08735115826129913,-0.24181915819644928,-0.46989426016807556
1761369615253038800,10.070038818359375,-0.1172826737165451,-0.11476293206214905,-0.4784461259841919
1761369615271649000,10.08864892578125,0.009773556143045425,-0.04390464723110199,-0.42957833409309387
1761369615290260700,10.1072607421875,0.21501824259757996,0.007406522985547781,-0.3232909142971039
1761369615308870700,10.12587060546875,0.393385648727417,0.037948887795209885,-0.17913095653057098
1761369615327482400,10.144482421875,0.45263782143592834,0.09659022092819214,-0.01847812905907631
1761369615346092500,10.163092529296875,0.4300364851951599,0.1546207070350647,0.09643751382827759
1761369615364704300,10.181704345703125,0.3775036036968231,0.18516308069229126,0.14102935791015625
1761369615383314400,10.200314453125,0.33413344621658325,0.18699561059474945,0.12942326068878174
1761369615401926100,10.218926025390624,0.32313820719718933,0.18760646879673004,0.07444700598716736
1761369615420536000,10.2375361328125,0.3255815804004669,0.18760646879673004,-0.008704573847353458
1761369615439147800,10.256147705078124,0.30969956517219543,0.15095563232898712,-0.09361234307289124
1761369615457758000,10.274758056640625,0.2596100866794586,0.11063970625400543,-0.125987246632576
1761369615476369700,10.29336962890625,0.18997350335121155,0.15034478902816772,-0.08689302206039429
1761369615494979800,10.311979736328125,0.1453816443681717,0.14667969942092896,-0.031916771084070206
1761369615513591600,10.330591552734376,0.11545012891292572,0.08376242965459824,0.012140588834881783
1761369615532201700,10.34920166015625,0.06841489672660828,-0.004810422193259001,0.04756972938776016
1761369615550813200,10.367813232421875,0.03542914241552353,-0.0946049690246582,0.0811663269996643
1761369615569423400,10.38642333984375,0.042759306728839874,-0.20761170983314514,0.11964970827102661
1761369615588035000,10.40503515625,0.01954711228609085,-0.33711132407188416,0.10498937219381332
1761369615606645200,10.423645263671874,-0.07269082218408585,-0.29923880100250244,0.06772769242525101
1761369615625257000,10.442257080078125,-0.1557660549879074,-0.11842801421880722,0.04940227046608925
1761369615643867100,10.4608671875,-0.2241809368133545,-0.0164165198802948,-0.0032069480512291193
1761369615662478600,10.479478515625,-0.265718549489975,0.09536852687597275,-0.11438114941120148
1761369615681088800,10.4980888671875,-0.312142938375473,0.13201937079429626,-0.26159533858299255
1761369615699700500,10.516700439453125,-0.36162158846855164,0.020845163613557816,-0.3880407214164734
1761369615718310700,10.535310546875,-0.3414636254310608,-0.03168770298361778,-0.37826716899871826
1761369615736922400,10.55392236328125,-0.25716668367385864,0.09292513877153397,-0.2432699203491211
1761369615755532500,10.572532470703125,-0.10078980028629303,0.29511559009552,-0.05207473039627075
1761369615774144000,10.59114404296875,0.07269082218408585,0.3641413152217865,0.10315682739019394
1761369615792754200,10.609754150390625,0.182643324136734,0.2871745824813843,0.17035003006458282
1761369615811366000,10.628365966796874,0.1985253542661667,0.0880383625626564,0.16668494045734406
1761369615829976000,10.64697607421875,0.08429691940546036,-0.10560022294521332,0.14041851460933685
1761369615848587800,10.665587890625,-0.05986303091049194,-0.19539476931095123,0.11476293206214905
1761369615867198000,10.684197998046875,-0.18997350335121155,-0.1617981642484665,0.05062396824359894
1761369615885809400,10.702809326171876,-0.2351761907339096,-0.05184566229581833,-0.06062658876180649
1761369615904419600,10.721419677734374,-0.23151111602783203,0.20409934222698212,-0.17118994891643524
1761369615923031300,10.74003125,-0.2883199155330658,0.42461520433425903,0.09765920788049698
1761369615941641500,10.758641357421874,-0.42637139558792114,-0.029855160042643547,0.39330926537513733
1761369615960253200,10.777253173828125,-0.3170297145843506,-0.2815242409706116,0.36459946632385254
1761369615978863000,10.795863037109376,-0.16492876410484314,-0.15752223134040833,0.1984490007162094
1761369615997474800,10.814474853515625,-0.0787992998957634,0.07215633243322372,-0.11438114941120148
1761369616016085000,10.8330849609375,0,0.19860170781612396,-0.45767730474472046
1761369616034696700,10.85169677734375,0.08918370306491852,0.24258272349834442,-0.6806365847587585
