time,seconds_elapsed,z,y,x
1761370309041673700,0.096673828125,0,0,0
1761370309060285700,0.11528564453125,-0.036879539489746094,-0.02353954315185547,-0.00837242603302002
1761370309078896000,0.133896240234375,0.003749847412109375,0.016860008239746094,0.0313563346862793
1761370309097508000,0.152508056640625,0.06519031524658203,0.055924177169799805,0.008386731147766113
1761370309116118500,0.171118408203125,0.182037353515625,0.0285031795501709,-0.0537266731262207
1761370309134730500,0.18973046875,0.15956497192382812,0.007490873336791992,-0.10608643293380737
1761370309153340700,0.208340576171875,0.04109764099121094,-0.00928950309753418,-0.07376551628112793
1761370309171952600,0.22695263671875,-0.03106212615966797,-0.015707015991210938,-0.008468866348266602
1761370309190563000,0.24556298828125,-0.04893779754638672,0.01976919174194336,-0.0015431046485900879
1761370309209175000,0.264175048828125,-0.062015533447265625,0.06753945350646973,0.024407565593719482
1761370309227785500,0.282785400390625,-0.00426483154296875,0.023092985153198242,0.046674489974975586
1761370309246397400,0.3013974609375,-0.05195903778076172,0.017858266830444336,0.07073789834976196
1761370309265007600,0.320007568359375,-0.09981727600097656,0.018231868743896484,0.09060364961624146
1761370309283619600,0.33861962890625,-0.1264057159423828,0.008618593215942383,0.09709510207176208
1761370309302230000,0.35722998046875,-0.12874794006347656,0.013156414031982422,0.10080263018608093
1761370309320842000,0.375842041015625,-0.013186454772949219,0.036928415298461914,0.06425964832305908
1761370309339452400,0.394452392578125,0.12512683868408203,-0.0017268657684326172,0.10100603103637695
1761370309358064000,0.413064208984375,0.06972980499267578,-0.03450655937194824,0.06848099827766418
1761370309376674600,0.431674560546875,-0.036299705505371094,-0.013441085815429688,0.00901186466217041
1761370309395286500,0.45028662109375,0.07147979736328125,0.014204263687133789,0.043167293071746826
1761370309413897000,0.46889697265625,0.11261653900146484,0.03937029838562012,-0.03318369388580322
1761370309432509000,0.487509033203125,0.07617664337158203,-0.015810728073120117,-0.06944793462753296
1761370309451119000,0.506119140625,0.07351875305175781,-0.04907679557800293,-0.05565154552459717
1761370309469731300,0.5247314453125,0.04288768768310547,0.007629871368408203,-0.05298703908920288
1761370309488341500,0.543341552734375,-0.00054931640625,0.012210369110107422,-0.02655959129333496
1761370309506953500,0.561953369140625,-0.07755374908447266,-0.01848292350769043,-0.04178363084793091
1761370309525564000,0.58056396484375,-0.084014892578125,-0.03245806694030762,-0.019226372241973877
1761370309544175900,0.59917578125,-0.07984638214111328,-0.004700899124145508,-0.014889001846313477
1761370309562786000,0.6177861328125,-0.024888992309570312,0.013896942138671875,-0.03957587480545044
1761370309581398000,0.63639794921875,0.05107402801513672,-0.01713848114013672,-0.038367271423339844
1761370309600008400,0.655008544921875,-0.02524280548095703,-0.03642916679382324,-0.045147836208343506
1761370309618620400,0.673620361328125,-0.06155586242675781,-0.01883673667907715,-0.052071452140808105
1761370309637230800,0.69223095703125,0.03580474853515625,-0.006064891815185547,-0.017598211765289307
1761370309655842800,0.7108427734375,0.00815582275390625,0.011507987976074219,-0.023955941200256348
1761370309674453200,0.729453369140625,-0.06095123291015625,-0.005087137222290039,-0.04751241207122803
1761370309693065000,0.74806494140625,-0.08149433135986328,-0.10641980171203613,-0.10000395774841309
1761370309711675400,0.76667529296875,0.011119842529296875,0.1153414249420166,-0.0244675874710083
1761370309730287400,0.785287353515625,0.12109184265136719,0.0856633186340332,-0.07561260461807251
1761370309748897800,0.803897705078125,0.19653797149658203,0.00267791748046875,-0.15232515335083008
1761370309767509800,0.822509765625,0.12095451354980469,-0.011217355728149414,-0.10457980632781982
1761370309786120000,0.841119873046875,-0.01953411102294922,0.01571798324584961,-0.07795822620391846
1761370309804732200,0.859732177734375,-0.05042743682861328,0.02520465850830078,-0.08953803777694702
1761370309823342300,0.87834228515625,-0.03650665283203125,0.019499778747558594,-0.1372353434562683
1761370309841954300,0.896954345703125,0.016470909118652344,0.0326237678527832,-0.1817987561225891
1761370309860564700,0.915564697265625,-0.013988494873046875,0.0379176139831543,-0.11616021394729614
1761370309879176700,0.9341767578125,-0.10954093933105469,0.047713279724121094,-0.12708640098571777
1761370309897787100,0.952787109375,-0.15575313568115234,0.06213092803955078,-0.11427503824234009
1761370309916398800,0.97139892578125,-0.06242847442626953,0.0563046932220459,-0.11670660972595215
1761370309935009300,0.99000927734375,0.06673526763916016,-0.006921052932739258,-0.08895611763000488
1761370309953621200,1.008621337890625,0.039505958557128906,0.017417192459106445,-0.025876343250274658
1761370309972231700,1.027231689453125,-0.0768880844116211,0.04384255409240723,0.049244701862335205
1761370309990843600,1.04584375,-0.06852149963378906,0.05529069900512695,0.10496783256530762
1761370310009454000,1.0644541015625,0.07613658905029297,0.03546500205993652,0.1291888952255249
1761370310028066000,1.083066162109375,0.059317588806152344,0.011407136917114258,0.1195029616355896
1761370310046676200,1.10167626953125,-0.0365142822265625,0.005648612976074219,0.17110323905944824
1761370310065288200,1.1202880859375,-0.033736228942871094,0.042536258697509766,0.14305096864700317
1761370310083898600,1.138898681640625,0.17894554138183594,0.07134866714477539,0.13958227634429932
1761370310102510600,1.157510498046875,0.26783275604248047,0.055316925048828125,0.17622148990631104
1761370310121121000,1.17612109375,0.3912229537963867,0.041384220123291016,-0.0016489028930664062
1761370310139733000,1.19473291015625,0.7314720153808594,-0.017503738403320312,-0.1675255298614502
1761370310158343200,1.21334326171875,0.8641958236694336,-0.055864572525024414,-0.3132467269897461
1761370310176955100,1.231955078125,0.6357526779174805,-0.21984457969665527,-0.35897719860076904
1761370310195565600,1.250565673828125,0.23160552978515625,-0.43268775939941406,-0.3101942539215088
1761370310214177500,1.269177490234375,-0.5178689956665039,-0.33130621910095215,-0.37947356700897217
1761370310232788000,1.2877880859375,-1.0817070007324219,-0.14448285102844238,-0.3147258758544922
1761370310251400000,1.30639990234375,-1.5163097381591797,-0.268169641494751,-0.3311271667480469
1761370310270010400,1.32501025390625,-1.574662208557129,-0.3714570999145508,-0.6296377182006836
1761370310288622300,1.343622314453125,-1.1225299835205078,-0.33555126190185547,-1.0751333236694336
1761370310307232500,1.362232421875,-1.026082992553711,-0.316758394241333,-0.7075376510620117
1761370310325844500,1.380844482421875,-1.1477069854736328,-0.38465094566345215,-0.25414133071899414
1761370310344455000,1.399454833984375,-0.745941162109375,-0.30211830139160156,0.010932445526123047
1761370310363067000,1.41806689453125,-0.3619251251220703,-0.39305686950683594,0.2846027612686157
1761370310381677300,1.43667724609375,0.5597476959228516,-0.14546775817871094,0.034932613372802734
1761370310400289300,1.455289306640625,1.162480354309082,0.7407615184783936,-0.6882925033569336
1761370310418899700,1.473899658203125,0.9206686019897461,1.5137848854064941,-1.1443699598312378
1761370310437511700,1.49251171875,0.2494182586669922,1.7742176055908203,-1.3571165800094604
1761370310456121900,1.511121826171875,0.2581062316894531,1.7314839363098145,-1.3044219017028809
1761370310474733800,1.52973388671875,0.9041461944580078,1.7109551429748535,-1.2776567935943604
1761370310493344300,1.54834423828125,1.7461652755737305,0.5112624168395996,0.04382658004760742
1761370310511956200,1.566956298828125,1.340723991394043,-0.10711932182312012,-0.09836328029632568
1761370310530566700,1.585566650390625,0.44843387603759766,-0.254528284072876,-0.2344963550567627
1761370310549178600,1.6041787109375,-0.19327163696289062,-0.08068323135375977,-0.17338120937347412
1761370310567788800,1.622788818359375,-0.6490716934204102,0.195695161819458,-0.10569548606872559
1761370310586400800,1.64140087890625,-1.172144889831543,0.19688177108764648,-0.09876930713653564
1761370310605011200,1.66001123046875,-1.481766700744629,0.2617173194885254,-0.8216817378997803
1761370310623623200,1.678623046875,-1.395186424255371,0.5479907989501953,-1.2498927116394043
1761370310642233600,1.697233642578125,-1.0103874206542969,0.7645716667175293,-1.2679064273834229
1761370310660845600,1.715845458984375,-1.0693168640136719,1.1639676094055176,-1.024738073348999
1761370310679456000,1.7344560546875,-0.8556137084960938,1.3975543975830078,-0.4604790210723877
1761370310698068000,1.75306787109375,0.16134929656982422,1.4284353256225586,0.04790830612182617
1761370310716678100,1.77167822265625,1.1514892578125,1.0850317478179932,0.33893442153930664
1761370310735290000,1.7902900390625,1.343775749206543,0.5286109447479248,0.3042325973510742
1761370310753900500,1.808900634765625,0.7156667709350586,0.10957884788513184,-0.1838855743408203
1761370310772512500,1.827512451171875,0.15923023223876953,-0.03759169578552246,-0.6475236415863037
1761370310791123000,1.846123046875,-0.1511554718017578,-0.15969443321228027,-0.5807170867919922
1761370310809735000,1.86473486328125,-0.1550731658935547,-0.23810148239135742,-0.2649803161621094
1761370310828345300,1.883345458984375,0.17046356201171875,-0.21190237998962402,-0.10179781913757324
1761370310846957300,1.901957275390625,0.3420085906982422,-0.3776068687438965,0.06600189208984375
1761370310865567500,1.9205673828125,0.2929668426513672,-0.5254374742507935,0.17804837226867676
1761370310884179700,1.9391796875,0.20697975158691406,-0.5551187992095947,0.2657606601715088
1761370310902790000,1.957789794921875,0.08086872100830078,-0.4863783121109009,0.33962392807006836
1761370310921401900,1.97640185546875,-0.2633495330810547,-0.38437867164611816,0.24565696716308594
1761370310940012300,1.99501220703125,-0.45094966888427734,-0.22061872482299805,0.12364912033081055
1761370310958624300,2.013624267578125,-0.3780803680419922,-0.013854503631591797,0.48820960521698
1761370310977234700,2.032234619140625,-0.042694091796875,0.006119489669799805,0.9026594161987305
1761370310995846700,2.0508466796875,0.2493267059326172,-0.08348560333251953,1.0711177587509155
1761370311014456800,2.069456787109375,0.33743762969970703,-0.26947760581970215,1.0409255027770996
1761370311033068800,2.08806884765625,0.36077404022216797,-0.41161322593688965,0.811529278755188
1761370311051679200,2.10667919921875,0.2250375747680664,-0.4550776481628418,0.5442937612533569
1761370311070291200,2.125291259765625,0.06332588195800781,-0.39969396591186523,0.35821533203125
1761370311088901600,2.143901611328125,-0.09119033813476562,-0.22372817993164062,0.28790783882141113
1761370311107513600,2.162513671875,-0.10964012145996094,0.013916969299316406,0.4406512975692749
1761370311126124000,2.1811240234375,-0.033535003662109375,0.2164306640625,0.6065587997436523
1761370311144736000,2.199736083984375,-0.03625011444091797,0.2846541404724121,0.6253252029418945
1761370311163346400,2.218346435546875,-0.03753662109375,0.3336460590362549,0.6031920909881592
1761370311181958400,2.23695849609375,-0.0665273666381836,0.26172494888305664,0.644340991973877
1761370311200568600,2.255568603515625,-0.1741189956665039,0.23726439476013184,0.633360743522644
1761370311219180500,2.2741806640625,-0.2208118438720703,0.21585559844970703,0.581161379814148
1761370311237791000,2.292791015625,-0.17528343200683594,0.22047972679138184,0.6509461402893066
1761370311256403000,2.31140283203125,-0.033713340759277344,0.2758183479309082,0.6437418460845947
1761370311275013400,2.330013427734375,0.03132152557373047,0.29257941246032715,0.5693522691726685
1761370311293625300,2.348625244140625,0.031762123107910156,0.3553950786590576,0.4331395626068115
1761370311312235500,2.367235595703125,-0.10918235778808594,0.3874654769897461,0.30411720275878906
1761370311330847500,2.385847412109375,-0.17992687225341797,0.45294690132141113,0.22217416763305664
1761370311349458000,2.4044580078125,-0.22027301788330078,0.5470809936523438,0.1602787971496582
1761370311368070000,2.42306982421875,-0.2763805389404297,0.5948128700256348,0.07152688503265381
1761370311386680300,2.441680419921875,-0.2907676696777344,0.6265504360198975,0.0023883581161499023
1761370311405292300,2.460292236328125,-0.2437582015991211,0.6567649841308594,0.07563126087188721
1761370311423902700,2.47890283203125,-0.12228965759277344,0.654353141784668,0.22384846210479736
1761370311442514700,2.4975146484375,-0.08584022521972656,0.6053800582885742,0.24024713039398193
1761370311461125000,2.516125,-0.12338924407958984,0.5109763145446777,0.06455135345458984
1761370311479737000,2.534737060546875,-0.07106399536132812,0.4222118854522705,-0.1553274393081665
1761370311498347300,2.55334716796875,0.12427806854248047,0.3331282138824463,-0.30310988426208496
1761370311516959200,2.571959228515625,0.2903919219970703,0.28058290481567383,-0.3853994607925415
1761370311535569700,2.590569580078125,0.4167289733886719,0.24210095405578613,-0.40866923332214355
1761370311554181600,2.609181640625,0.5214319229125977,0.24905109405517578,-0.4022693634033203
1761370311572792000,2.6277919921875,0.3591899871826172,0.33661866188049316,-0.5759512186050415
1761370311591404000,2.646404052734375,0.019947052001953125,0.3952152729034424,-0.7192119359970093
1761370311610014200,2.66501416015625,-0.15526390075683594,0.4002392292022705,-0.38585615158081055
1761370311628626400,2.68362646484375,-0.060965538024902344,0.20653605461120605,0.28919386863708496
1761370311647236600,2.702236572265625,0.3527259826660156,-0.13335132598876953,0.6542137265205383
1761370311665848600,2.7208486328125,1.0610427856445312,-0.504967451095581,0.6562684774398804
1761370311684459000,2.739458984375,1.072296142578125,-1.220473051071167,0.8202529549598694
1761370311703071000,2.758071044921875,0.4650096893310547,-1.6887097358703613,0.5507587194442749
1761370311721681400,2.776681396484375,-0.4724006652832031,-1.7270395755767822,0.030621767044067383
1761370311740293400,2.79529345703125,-1.549241065979004,-1.4574453830718994,-0.3566533327102661
1761370311758903800,2.81390380859375,-2.2937870025634766,-0.8921654224395752,-0.741797685623169
1761370311777515800,2.832515869140625,-2.563290596008301,-0.4118223190307617,-0.800209641456604
1761370311796126000,2.8511259765625,-2.2046890258789062,-0.20288825035095215,-0.5343478918075562
1761370311814738000,2.869738037109375,-1.4513602256774902,-0.2924180030822754,-0.15602850914001465
1761370311833348400,2.888348388671875,-0.686309814453125,-0.275378942489624,-0.17591619491577148
1761370311851960300,2.906960205078125,-0.11118316650390625,-0.32411742210388184,-0.28169023990631104
1761370311870570800,2.92557080078125,0.3672027587890625,-0.284360408782959,-0.5986080169677734
1761370311889182700,2.9441826171875,0.9598855972290039,-0.3127171993255615,-0.810285210609436
1761370311907793000,2.96279296875,1.617197036743164,-0.5630786418914795,-0.8505779504776001
1761370311926405000,2.981405029296875,1.9074630737304688,-0.9182286262512207,-0.8859548568725586
1761370311945015300,3.000015380859375,1.5116872787475586,-1.1456927061080933,-1.0755743980407715
1761370311963627300,3.018627197265625,0.6384458541870117,-1.085734486579895,-1.3259122371673584
1761370311982237700,3.03723779296875,0.02190113067626953,-0.6629390716552734,-1.3125765323638916
1761370312000849700,3.055849609375,-0.05033588409423828,-0.2080833911895752,-0.6467868089675903
1761370312019460000,3.074460205078125,-0.3128013610839844,0.04680633544921875,0.07567954063415527
1761370312038072000,3.093072021484375,-0.6608428955078125,0.33034348487854004,0.2383136749267578
1761370312056682500,3.1116826171875,-0.9817132949829102,0.5502572059631348,0.17859768867492676
1761370312075294500,3.13029443359375,-1.2185230255126953,0.6015934944152832,0.08313870429992676
1761370312093904600,3.148904541015625,-1.3298168182373047,0.5704679489135742,-0.11830663681030273
1761370312112516600,3.1675166015625,-1.1122283935546875,0.5490036010742188,-0.2942969799041748
1761370312131127000,3.186126953125,-0.7216825485229492,0.4055013656616211,-0.3545050621032715
1761370312149739000,3.204739013671875,-0.2319936752319336,0.23033976554870605,-0.5702791213989258
1761370312168349400,3.223349365234375,0.22516250610351562,-0.03277087211608887,-0.8092260360717773
1761370312186961400,3.24196142578125,0.5320444107055664,-0.26617586612701416,-1.0111777782440186
1761370312205571800,3.26057177734375,0.6708517074584961,-0.40763092041015625,-1.206730604171753
1761370312224183800,3.279183837890625,0.7575397491455078,-0.4522109031677246,-1.2704567909240723
1761370312242794000,3.2977939453125,0.9160556793212891,-0.4189513921737671,-1.166947603225708
1761370312261406000,3.316406005859375,1.1837835311889648,-0.36540746688842773,-0.8330657482147217
1761370312280016400,3.335016357421875,1.5632562637329102,-0.4025818109512329,-0.3864123821258545
1761370312298628400,3.35362841796875,1.9766216278076172,-0.565537691116333,-0.07933688163757324
1761370312317238800,3.37223876953125,2.213613510131836,-0.7607797384262085,0.10895252227783203
1761370312335850800,3.390850830078125,1.8139896392822266,-0.7907136678695679,0.17888355255126953
1761370312354461200,3.409461181640625,0.9888505935668945,-0.7844667434692383,-0.19433808326721191
1761370312373073200,3.4280732421875,0.32590579986572266,-0.7850064039230347,-0.49519824981689453
1761370312391683300,3.446683349609375,0.01584339141845703,-0.8738851547241211,-0.3076021671295166
1761370312410295300,3.46529541015625,-0.40790462493896484,-0.9601744413375854,-0.12640619277954102
1761370312428905700,3.48390576171875,-0.6295356750488281,-0.810113251209259,-0.005899548530578613
1761370312447517700,3.502517578125,-0.6961898803710938,-0.5848610401153564,0.5462873578071594
1761370312466128100,3.521128173828125,-0.767521858215332,-0.3311927318572998,0.9525384902954102
1761370312484740000,3.539739990234375,-0.9015865325927734,-0.010434389114379883,0.9865687489509583
1761370312503350500,3.5583505859375,-1.1615228652954102,0.17314648628234863,1.035728931427002
1761370312521962500,3.57696240234375,-1.0521106719970703,0.28053998947143555,1.2222061157226562
1761370312540572700,3.59557275390625,-0.3965330123901367,0.24222087860107422,1.343461036682129
1761370312559184600,3.6141845703125,0.2257680892944336,-0.06515049934387207,1.2612674236297607
1761370312577795000,3.632795166015625,0.38861083984375,-0.2913867235183716,0.918827474117279
1761370312596407000,3.651406982421875,0.15355396270751953,-0.32998812198638916,0.5821707844734192
1761370312615017500,3.670017578125,-0.22977828979492188,-0.21626520156860352,0.5073561668395996
1761370312633629400,3.68862939453125,-0.49413204193115234,0.06275308132171631,0.568718433380127
1761370312652239600,3.707239501953125,-0.6771841049194336,0.32685422897338867,0.6754568219184875
1761370312670851800,3.725851806640625,-0.5953493118286133,0.5663363933563232,0.6852719783782959
1761370312689462000,3.7444619140625,-0.28203296661376953,0.6457771062850952,0.6789059638977051
1761370312708074000,3.763073974609375,-0.17527484893798828,0.6651409864425659,0.5836901664733887
1761370312726684400,3.781684326171875,-0.37479114532470703,0.6794658899307251,0.46167027950286865
1761370312745296400,3.80029638671875,-0.4831876754760742,0.6835469007492065,0.42518889904022217
1761370312763906800,3.81890673828125,-0.25701332092285156,0.639614462852478,0.40867507457733154
1761370312782518800,3.837518798828125,0.13183116912841797,0.5257749557495117,0.3999216556549072
1761370312801129000,3.85612890625,0.3132314682006836,0.4202522039413452,0.19184041023254395
1761370312819741000,3.874740966796875,0.3274421691894531,0.3288419246673584,-0.09663867950439453
1761370312838351400,3.893351318359375,0.2444934844970703,0.3220944404602051,-0.376237154006958
1761370312856963300,3.91196337890625,0.07488155364990234,0.311055064201355,-0.5784657001495361
1761370312875573800,3.93057373046875,0.13056373596191406,0.38402628898620605,-0.7280762195587158
1761370312894185700,3.949185791015625,0.3815479278564453,0.39736413955688477,-0.6822824478149414
1761370312912796200,3.967796142578125,0.5686626434326172,0.4453098773956299,-0.748586893081665
1761370312931408100,3.986408203125,0.5867490768432617,0.5705205202102661,-0.8473738431930542
1761370312950018300,4.005018310546875,0.3110313415527344,0.7199693918228149,-0.867750883102417
1761370312968630300,4.02363037109375,0.1700277328491211,0.7086137533187866,-0.6083559989929199
1761370312987240700,4.04224072265625,0.48307132720947266,0.4750399589538574,-0.1919705867767334
1761370313005852700,4.060852783203125,1.0832252502441406,0.014990568161010742,-0.09117233753204346
1761370313024463000,4.079463134765625,1.4095792770385742,-0.4692901372909546,-0.5455477237701416
1761370313043075000,4.098074951171875,1.0116891860961914,-0.7126270532608032,-1.04367995262146
1761370313061685200,4.116685302734375,0.21187305450439453,-0.7193653583526611,-1.1417449712753296
1761370313080297500,4.13529736328125,-0.11658477783203125,-0.5498429536819458,-1.0181245803833008
1761370313098907600,4.15390771484375,0.18282508850097656,-0.49109768867492676,-0.6692507266998291
1761370313117519600,4.17251953125,0.6437110900878906,-0.5388400554656982,-0.2716726064682007
1761370313136130000,4.191130126953125,0.68463134765625,-0.6004846096038818,-0.12706589698791504
1761370313154742000,4.209741943359375,0.33057689666748047,-0.5677096843719482,-0.31944847106933594
1761370313173352400,4.2283525390625,-0.07984352111816406,-0.47483253479003906,-0.5984245538711548
1761370313191964400,4.24696435546875,-0.14704227447509766,-0.4174625873565674,-0.5663546323776245
1761370313210574600,4.26557470703125,0.18569374084472656,-0.40653085708618164,-0.3294844627380371
1761370313229186600,4.2841865234375,0.7494487762451172,-0.4750063419342041,-0.06475794315338135
1761370313247797000,4.302796875,1.343632698059082,-0.7527716159820557,0.23698890209197998
1761370313266409000,4.321408935546875,1.4544849395751953,-1.1532158851623535,0.3336482048034668
1761370313285019400,4.340019287109375,0.8736228942871094,-1.5030518770217896,0.15095818042755127
1761370313303631400,4.35863134765625,-0.2264261245727539,-1.6596845388412476,-0.07297205924987793
1761370313322241800,4.37724169921875,-1.4308733940124512,-1.6641706228256226,-0.04680132865905762
1761370313340853800,4.395853759765625,-2.475320816040039,-1.4537397623062134,0.042719125747680664
1761370313359464000,4.4144638671875,-3.0639686584472656,-1.2091317176818848,0.28478240966796875
1761370313378076000,4.433075927734375,-2.9791064262390137,-1.044818639755249,0.38851165771484375
1761370313396686300,4.451686279296875,-2.515409469604492,-0.9627499580383301,0.4189486503601074
1761370313415298300,4.47029833984375,-2.0444374084472656,-0.8259596824645996,0.3512589931488037
1761370313433908700,4.48890869140625,-1.7367863655090332,-0.6998274326324463,0.3243563175201416
1761370313452520700,4.507520751953125,-1.530625820159912,-0.5300679206848145,0.29939889907836914
1761370313471131000,4.526130859375,-1.2151298522949219,-0.35828089714050293,0.3000521659851074
1761370313489742800,4.544742919921875,-0.8428001403808594,-0.2059030532836914,0.2296609878540039
1761370313508353300,4.563353271484375,-0.4431915283203125,-0.07444334030151367,0.18902349472045898
1761370313526965200,4.58196533203125,0.058854103088378906,0.020741939544677734,0.19649100303649902
1761370313545575700,4.60057568359375,0.5851573944091797,0.12032699584960938,0.23640131950378418
1761370313564187600,4.619187744140625,1.0496292114257812,0.22855210304260254,0.31535935401916504
1761370313582798000,4.637798095703125,1.4032096862792969,0.3215339183807373,0.3930985927581787
1761370313601409800,4.656409912109375,1.6590099334716797,0.4110865592956543,0.5002872943878174
1761370313620020200,4.675020263671875,1.9073257446289062,0.39879584312438965,0.7802397012710571
1761370313638632200,4.693632080078125,2.0506677627563477,0.3339402675628662,0.9950206279754639
1761370313657242600,4.71224267578125,1.887589454650879,0.22788727283477783,1.0112619400024414
1761370313675854600,4.7308544921875,1.446746826171875,0.26168084144592285,0.8246030807495117
1761370313694465000,4.749465087890625,1.0181951522827148,0.38605284690856934,0.7434499263763428
1761370313713077000,4.768076904296875,0.76470947265625,0.5383578538894653,0.9068399667739868
1761370313731687200,4.786687255859375,0.8132200241088867,0.5386593341827393,1.1211432218551636
1761370313750299100,4.805299072265625,0.9282350540161133,0.34431958198547363,1.2376925945281982
1761370313768909600,4.82390966796875,1.0809412002563477,0.13535869121551514,1.277352213859558
1761370313787521500,4.842521484375,1.279698371887207,-0.05609786510467529,1.4029738903045654
1761370313806132000,4.861132080078125,1.3969917297363281,-0.2540721893310547,1.5640013217926025
1761370313824744000,4.879743896484375,1.3205528259277344,-0.380847692489624,1.694197416305542
1761370313843354000,4.89835400390625,1.149613380432129,-0.4121272563934326,1.8236035108566284
1761370313861966000,4.916966064453125,0.9272584915161133,-0.462799072265625,1.913345456123352
1761370313880576500,4.935576416015625,0.573063850402832,-0.4849858283996582,1.8946770429611206
1761370313899188500,4.9541884765625,0.29430198669433594,-0.5097799301147461,1.8959214687347412
1761370313917799000,4.972798828125,0.21473312377929688,-0.5858464241027832,1.9292268753051758
1761370313936411000,4.991410888671875,0.3193960189819336,-0.7551809549331665,1.9058797359466553
1761370313955021300,5.010021240234375,0.3781299591064453,-0.9528669118881226,1.8579074144363403
1761370313973633000,5.028633056640625,0.24664974212646484,-1.081270456314087,1.6910157203674316
1761370313992243500,5.047243408203125,0.01322174072265625,-1.0258620977401733,1.471130132675171
1761370314010855400,5.06585546875,-0.0855417251586914,-0.893010139465332,1.2943438291549683
1761370314029465900,5.0844658203125,-0.10218620300292969,-0.7561454772949219,1.1181261539459229
1761370314048077800,5.103077880859375,-0.23589801788330078,-0.6391201019287109,0.9487593770027161
1761370314066688000,5.12168798828125,-0.3254861831665039,-0.49753284454345703,0.739751935005188
1761370314085300200,5.14030029296875,-0.19779109954833984,-0.4614863395690918,0.7225704193115234
1761370314103910400,5.158910400390625,-0.005305290222167969,-0.5642917156219482,0.8344042301177979
1761370314122522400,5.1775224609375,0.06509113311767578,-0.6991856098175049,0.7912231683731079
1761370314141132800,5.1961328125,-0.025229454040527344,-0.8598167896270752,0.6306123733520508
1761370314159744800,5.214744873046875,0.052817344665527344,-0.9748852252960205,0.4779679775238037
1761370314178355200,5.233355224609375,0.12850475311279297,-1.0148730278015137,0.3278597593307495
1761370314196967200,5.25196728515625,-0.04715728759765625,-0.928123950958252,0.06435668468475342
1761370314215577300,5.270577392578125,-0.4810199737548828,-0.8196778297424316,-0.122955322265625
1761370314234189300,5.289189208984375,-0.9095983505249023,-0.6829066276550293,-0.2430558204650879
1761370314252799700,5.3077998046875,-1.04815673828125,-0.7633669376373291,-0.007894635200500488
1761370314271411700,5.32641162109375,-0.6675529479980469,-1.0142736434936523,0.40346968173980713
1761370314290022100,5.345022216796875,0.1631622314453125,-1.051542043685913,0.7356020212173462
1761370314308634000,5.363634033203125,0.7000217437744141,-1.3325210809707642,0.9236761331558228
1761370314336550000,5.3915498046875,0.5537033081054688,-1.4715126752853394,0.36449873447418213
1761370314355161900,5.410161865234375,0.2561149597167969,-1.4439178705215454,-0.07299017906188965
1761370314373772300,5.428772216796875,0.014200210571289062,-1.333397626876831,-0.29511499404907227
1761370314392384300,5.44738427734375,-0.1746044158935547,-1.0632586479187012,-0.37357568740844727
1761370314410994700,5.46599462890625,-0.26665687561035156,-0.7817714214324951,-0.3009147644042969
1761370314429606400,5.4846064453125,-0.1529521942138672,-0.6435778141021729,-0.024673938751220703
1761370314448216800,5.503216796875,0.055576324462890625,-0.6895294189453125,0.31409740447998047
1761370314466828800,5.521828857421875,0.46134471893310547,-0.7850747108459473,0.45539355278015137
1761370314485439200,5.540439208984375,0.9981346130371094,-0.9714703559875488,0.5123856663703918
1761370314504051200,5.55905126953125,1.7260799407958984,-1.2540366649627686,0.6441249251365662
1761370314522661600,5.57766162109375,2.259918212890625,-1.6316338777542114,0.6939647197723389
1761370314541273300,5.5962734375,2.106621742248535,-1.8683104515075684,0.3625195622444153
1761370314559883800,5.6148837890625,1.4412078857421875,-1.9100948572158813,-0.08750724792480469
1761370314578495700,5.633495849609375,0.44492053985595703,-1.6942743062973022,-0.3517969846725464
1761370314597106200,5.652106201171875,-0.3163166046142578,-1.3393722772598267,-0.4579493999481201
1761370314615718100,5.67071826171875,-0.7592153549194336,-0.9423004388809204,-0.42838752269744873
1761370314634328600,5.68932861328125,-0.9429178237915039,-0.5963895320892334,-0.16454243659973145
1761370314652940300,5.707940185546875,-0.9252262115478516,-0.2658507823944092,0.06523418426513672
1761370314671550700,5.72655078125,-0.6491327285766602,-0.060884714126586914,0.24563264846801758
1761370314690162700,5.74516259765625,-0.46131324768066406,-0.05709648132324219,0.40076613426208496
1761370314708773000,5.763773193359375,-0.2449016571044922,-0.16195249557495117,0.5067218542098999
1761370314727385000,5.782385009765625,0.14839839935302734,-0.3446779251098633,0.5719440579414368
1761370314745995500,5.80099560546875,0.8506736755371094,-0.42986059188842773,0.45147499442100525
1761370314764607200,5.819607177734375,1.770127296447754,-0.5909328460693359,0.3562493324279785
1761370314783217700,5.8382177734375,2.5902204513549805,-0.8007867336273193,0.26687294244766235
1761370314801829600,5.85682958984375,2.9359359741210938,-0.9679262638092041,0.3936637043952942
1761370314820440000,5.875440185546875,2.5806360244750977,-1.01845383644104,0.6606937050819397
1761370314839052000,5.894052001953125,1.6248397827148438,-0.8368158340454102,0.6970709562301636
1761370314857662500,5.912662353515625,0.5297269821166992,-0.7416081428527832,0.7120360732078552
1761370314876274200,5.931274169921875,-0.38555049896240234,-0.8252060413360596,0.7407506704330444
1761370314894884600,5.949884521484375,-0.9554042816162109,-1.004798412322998,0.700965404510498
1761370314913496600,5.96849658203125,-1.2565488815307617,-1.2207818031311035,0.6584112644195557
1761370314932107000,5.98710693359375,-1.336075782775879,-1.433720350265503,0.5688620209693909
1761370314950719000,6.005718994140625,-1.3606195449829102,-1.5406306982040405,0.3877754807472229
1761370314969329200,6.0243291015625,-1.335911750793457,-1.5952149629592896,0.36546868085861206
1761370314987941000,6.042941162109375,-1.1240549087524414,-1.6267637014389038,0.4954003393650055
1761370315006551600,6.061551513671875,-0.7485027313232422,-1.688258171081543,0.7554434537887573
1761370315025163500,6.08016357421875,-0.21582794189453125,-1.7303961515426636,1.1075620651245117
1761370315043774000,6.09877392578125,0.0513458251953125,-1.8488295078277588,1.3859972953796387
1761370315062386000,6.117385986328125,-0.21210575103759766,-1.8660187721252441,1.2293524742126465
1761370315080996000,6.13599609375,-0.6665010452270508,-1.731562852859497,0.5444434881210327
1761370315099608000,6.154608154296875,-0.9598236083984375,-1.512337565422058,-0.05887269973754883
1761370315118218500,6.173218505859375,-0.6644887924194336,-1.0727136135101318,-0.42900460958480835
1761370315136830500,6.19183056640625,-0.17022132873535156,-0.6652902364730835,-0.3828868269920349
1761370315155441000,6.21044091796875,0.39897727966308594,-0.18248498439788818,-0.1798030436038971
1761370315174052900,6.229052978515625,1.0341644287109375,0.2034367322921753,0.17467615008354187
1761370315192663000,6.2476630859375,1.7076072692871094,0.4307030439376831,0.4706667363643646
1761370315211275000,6.26627490234375,2.22860050201416,0.48392534255981445,0.6203851699829102
1761370315229885400,6.284885498046875,2.4917726516723633,0.493863582611084,0.5374197363853455
1761370315248497400,6.303497314453125,2.635664939880371,0.3573998212814331,0.3102281987667084
1761370315267107800,6.32210791015625,2.6160707473754883,0.12312507629394531,0.040577977895736694
1761370315285719800,6.3407197265625,2.478666305541992,0.05119061470031738,-0.25768110156059265
1761370315304330000,6.359330078125,2.2119522094726562,0.0036051273345947266,-0.34747520089149475
1761370315322942000,6.37794189453125,1.8658666610717773,0.024663567543029785,-0.14548611640930176
1761370315341552400,6.396552490234375,1.343902587890625,0.04912567138671875,0.236270010471344
1761370315360164400,6.415164306640625,0.6712808609008789,0.08561539649963379,0.5118682980537415
1761370315378774800,6.43377490234375,-0.09758377075195312,0.08143401145935059,0.6301385164260864
1761370315397386500,6.452386474609375,-0.7748832702636719,0.05955171585083008,0.6399081349372864
1761370315415997000,6.470996826171875,-1.2394380569458008,0.05790543556213379,0.666553795337677
1761370315434609000,6.48960888671875,-1.42962646484375,0.07484221458435059,0.7530518174171448
1761370315453219300,6.50821923828125,-1.3785696029663086,0.05694437026977539,0.7798371911048889
1761370315471831300,6.526831298828125,-1.2945470809936523,-0.11712121963500977,0.666172206401825
1761370315490441700,6.545441650390625,-1.0610885620117188,-0.26000261306762695,0.4015871286392212
1761370315509053700,6.5640537109375,-0.7526035308837891,-0.24124717712402344,0.08782398700714111
1761370315527664000,6.5826640625,-0.5053653717041016,-0.22355437278747559,0.09715259075164795
1761370315546276000,6.601276123046875,-0.19171142578125,-0.2682530879974365,0.4825246334075928
1761370315564886500,6.619886474609375,0.4955911636352539,-0.3723416328430176,0.9321632981300354
1761370315583498200,6.638498291015625,1.2567024230957031,-0.5931751728057861,1.1401822566986084
1761370315602108700,6.657108642578125,1.4027471542358398,-0.8693728446960449,0.9994667172431946
1761370315620720600,6.675720703125,0.7433919906616211,-1.0072224140167236,0.5000296831130981
1761370315639331000,6.6943310546875,-0.17123699188232422,-0.971247673034668,-0.10228276252746582
1761370315657943000,6.712943115234375,-0.6186809539794922,-0.9173226356506348,-0.4920048713684082
1761370315676553500,6.731553466796875,-0.6354398727416992,-0.9504270553588867,-0.6690313816070557
1761370315695165200,6.750165283203125,-0.5544519424438477,-0.8314342498779297,-0.8143405914306641
1761370315713775600,6.768775634765625,-0.7427988052368164,-0.6444969177246094,-0.7655373811721802
1761370315732387600,6.7873876953125,-1.0744657516479492,-0.3298788070678711,-0.7306427955627441
1761370315750998000,6.805998046875,-1.3112125396728516,-0.018638134002685547,-0.752371072769165
1761370315769610000,6.82460986328125,-1.2869353294372559,0.22733592987060547,-0.552011251449585
1761370315788220400,6.843220458984375,-0.7893543243408203,0.31305360794067383,-0.18101954460144043
1761370315806832000,6.86183203125,0.1249246597290039,0.25373125076293945,-0.014781594276428223
1761370315825442600,6.880442626953125,1.2245235443115234,-0.04580879211425781,0.34151768684387207
1761370315844054500,6.899054443359375,1.8613567352294922,-0.6009857654571533,0.28308749198913574
1761370315862665000,6.9176650390625,1.815896987915039,-1.0105884075164795,0.005624175071716309
1761370315881277000,6.93627685546875,1.2365999221801758,-1.1939027309417725,-0.3760305643081665
1761370315899887000,6.95488720703125,0.3443622589111328,-1.1261141300201416,-0.6477932929992676
1761370315918499000,6.9734990234375,-0.47141551971435547,-0.8245940208435059,-0.5568413734436035
1761370315937109500,6.992109619140625,-1.0111150741577148,-0.5440735816955566,-0.2979700565338135
1761370315955721500,7.010721435546875,-1.5452618598937988,-0.31743812561035156,-0.13366246223449707
1761370315974332000,7.029331787109375,-2.0716018676757812,-0.07226276397705078,-0.030258893966674805
1761370315992943900,7.04794384765625,-2.3235177993774414,0.21894359588623047,0.07575440406799316
1761370316011554000,7.066553955078125,-2.257948875427246,0.4279460906982422,0.22998499870300293
1761370316030166000,7.085166015625,-1.8793110847473145,0.5480217933654785,0.32465553283691406
1761370316048776400,7.1037763671875,-1.3328800201416016,0.4758293628692627,0.34056758880615234
1761370316067388400,7.122388427734375,-0.7616157531738281,0.3573431968688965,0.2740769386291504
1761370316085998800,7.140998779296875,-0.22725677490234375,0.2261664867401123,0.22172212600708008
1761370316104610800,7.15961083984375,0.2715921401977539,0.15517759323120117,0.16667985916137695
1761370316123221200,7.17822119140625,0.5698614120483398,0.09856772422790527,-0.03316497802734375
1761370316141833000,7.1968330078125,0.6405258178710938,0.13185596466064453,-0.2154686450958252
1761370316160443400,7.215443359375,0.48985958099365234,0.19743967056274414,-0.16149568557739258
1761370316179055400,7.234055419921875,0.2916269302368164,0.27467823028564453,-0.12483787536621094
1761370316197665800,7.252665771484375,0.18090343475341797,0.36915040016174316,-0.11897492408752441
1761370316216277800,7.27127783203125,0.34410762786865234,0.3878343105316162,-0.05058765411376953
1761370316234888200,7.28988818359375,0.6138391494750977,0.3263547420501709,-0.011382579803466797
1761370316253500000,7.3085,0.8727779388427734,0.2480001449584961,-0.015211820602416992
1761370316272110300,7.3271103515625,0.9921026229858398,0.1637895107269287,0.12003111839294434
1761370316290722300,7.345722412109375,0.7782716751098633,0.008861541748046875,0.45600295066833496
1761370316309332700,7.364332763671875,0.46981143951416016,-0.09763455390930176,0.7369347810745239
1761370316327944700,7.38294482421875,0.38452911376953125,-0.188262939453125,0.9695641994476318
1761370316346555100,7.40155517578125,0.3374643325805664,-0.2855720520019531,1.0582207441329956
1761370316365167000,7.4201669921875,0.09359169006347656,-0.32253026962280273,0.9191685914993286
1761370316383777500,7.438777587890625,-0.1490459442138672,-0.3058621883392334,0.8697022199630737
1761370316402389200,7.45738916015625,-0.007111549377441406,-0.2712082862854004,0.8181096315383911
1761370316420999700,7.475999755859375,0.43706321716308594,-0.34415102005004883,0.7879600524902344
1761370316439611600,7.494611572265625,0.8739585876464844,-0.5093116760253906,0.7235581874847412
1761370316458222000,7.51322216796875,1.1269950866699219,-0.594491720199585,0.733574628829956
1761370316476834000,7.531833984375,1.180466651916504,-0.6031839847564697,0.833410382270813
1761370316495444500,7.550444580078125,0.9628849029541016,-0.5556535720825195,0.885789155960083
1761370316514056400,7.569056396484375,0.6196937561035156,-0.4313790798187256,0.8383158445358276
1761370316532666600,7.58766650390625,0.3453512191772461,-0.26860475540161133,0.7508618831634521
1761370316551278600,7.606278564453125,0.23758411407470703,-0.11850833892822266,0.7533227205276489
1761370316569889000,7.624888916015625,0.2430105209350586,-0.01285552978515625,0.8442720174789429
1761370316588501000,7.6435009765625,0.5215272903442383,-0.0003635883331298828,0.9065877199172974
1761370316607111400,7.662111328125,0.7181453704833984,-0.1276390552520752,0.8650741577148438
1761370316625723400,7.680723388671875,0.6478786468505859,-0.18827581405639648,0.6207377910614014
1761370316644333800,7.699333740234375,0.36620140075683594,-0.19026422500610352,0.526589035987854
1761370316662945800,7.71794580078125,0.02703571319580078,-0.09012508392333984,0.5555871725082397
1761370316681556200,7.73655615234375,-0.31496620178222656,0.056684017181396484,0.6412713527679443
1761370316700168000,7.75516796875,-0.6231517791748047,0.16322946548461914,0.710018515586853
1761370316718778400,7.7737783203125,-0.8748254776000977,0.24160051345825195,0.8370012044906616
1761370316737390300,7.792390380859375,-1.0564041137695312,0.321911096572876,1.0905617475509644
1761370316756000800,7.811000732421875,-1.0291757583618164,0.4118311405181885,1.379847764968872
1761370316774612700,7.82961279296875,-0.8381214141845703,0.4315667152404785,1.5451258420944214
1761370316793223200,7.84822314453125,-0.581573486328125,0.42937183380126953,1.6019014120101929
1761370316811835100,7.866835205078125,-0.31742095947265625,0.30739593505859375,1.6159723997116089
1761370316830445600,7.885445556640625,-0.06040668487548828,0.07865524291992188,1.3470275402069092
1761370316849057500,7.9040576171875,0.3101959228515625,-0.16817736625671387,0.9211784601211548
1761370316867668000,7.92266796875,0.8122825622558594,-0.3277771472930908,0.4168422222137451
1761370316886280000,7.941280029296875,1.1490859985351562,-0.3330957889556885,-0.118011474609375
1761370316904890000,7.95989013671875,1.0779361724853516,-0.12375211715698242,-0.5806934833526611
1761370316923502000,7.978502197265625,0.6503257751464844,0.23237133026123047,-0.7360827922821045
1761370316942112500,7.997112548828125,0.387420654296875,0.44349074363708496,-0.32835817337036133
1761370316960724500,8.015724365234375,0.7103195190429688,0.48848462104797363,0.3324594497680664
1761370316979335000,8.0343349609375,1.303023338317871,0.2545037269592285,0.7647149562835693
1761370316997947000,8.05294677734375,1.5299062728881836,-0.11424970626831055,0.6584141254425049
1761370317016557300,8.071557373046875,1.2039518356323242,-0.34015321731567383,0.2507774829864502
1761370317035169300,8.090169189453125,0.5027303695678711,-0.3008706569671631,-0.011367321014404297
1761370317053779700,8.10877978515625,-0.19857501983642578,-0.20427799224853516,-0.08733558654785156
1761370317072391700,8.1273916015625,-0.47285938262939453,-0.24146485328674316,-0.20388364791870117
1761370317091002000,8.146002197265625,-0.38837528228759766,-0.48673295974731445,-0.33709716796875
1761370317109614000,8.164614013671875,-0.36656665802001953,-0.7380216121673584,-0.5140583515167236
1761370317128224500,8.183224609375,-0.5160636901855469,-0.8491859436035156,-0.767540454864502
1761370317146836200,8.201836181640624,-0.8106269836425781,-0.7421779632568359,-1.071068525314331
1761370317165446700,8.22044677734375,-0.9703149795532227,-0.40879392623901367,-1.3270113468170166
1761370317184058600,8.23905859375,-0.8618812561035156,-0.09286022186279297,-1.2520511150360107
1761370317202669000,8.2576689453125,-0.5434236526489258,0.12165236473083496,-0.7559182643890381
1761370317221281000,8.276281005859374,0.010699272155761719,0.20601320266723633,-0.05091547966003418
1761370317239891500,8.294891357421875,0.9014434814453125,0.08794522285461426,0.39002013206481934
1761370317258503400,8.31350341796875,1.7457704544067383,-0.3564138412475586,0.4493553638458252
1761370317277113900,8.33211376953125,1.8964042663574219,-0.8730401992797852,0.09763562679290771
1761370317295725800,8.350725830078124,1.3559846878051758,-1.0984725952148438,-0.49329471588134766
1761370317314336300,8.369336181640625,0.5109243392944336,-1.1272811889648438,-0.7637434005737305
1761370317332948200,8.3879482421875,-0.12332344055175781,-0.9613687992095947,-0.5430755615234375
1761370317351558700,8.40655859375,-0.3925504684448242,-0.7668857574462891,-0.13708710670471191
1761370317370170600,8.425170654296876,-0.5829124450683594,-0.6653382778167725,0.10297298431396484
1761370317388781000,8.443781005859375,-0.8555545806884766,-0.582655668258667,0.08986806869506836
1761370317407392800,8.462392822265626,-1.1991376876831055,-0.5022358894348145,-0.04021453857421875
1761370317426003500,8.48100341796875,-1.4613676071166992,-0.32245779037475586,-0.3730325698852539
1761370317444615200,8.499615234375,-1.3673996925354004,-0.1508193016052246,-0.5442945957183838
1761370317463225600,8.5182255859375,-0.8719043731689453,0.004869937896728516,-0.3954014778137207
1761370317481837600,8.536837646484376,-0.19784069061279297,0.13527607917785645,-0.17081785202026367
1761370317500448000,8.555447998046875,0.42563343048095703,0.1065678596496582,0.09352731704711914
1761370317519060000,8.57406005859375,1.0988521575927734,0.03647184371948242,0.24551653861999512
1761370317537670400,8.59267041015625,1.745901107788086,-0.029717683792114258,0.22137069702148438
1761370317556282400,8.611282470703125,2.149214744567871,-0.11022686958312988,0.0823066234588623
1761370317574892800,8.629892822265624,2.2342567443847656,-0.10135889053344727,-0.22450995445251465
1761370317593504800,8.6485048828125,1.9894094467163086,0.024310588836669922,-0.5591917037963867
1761370317612115200,8.667115234375,1.670745849609375,0.15057635307312012,-0.4946410655975342
1761370317630727200,8.68572705078125,1.5969877243041992,0.22712016105651855,-0.13991808891296387
1761370317649337600,8.704337646484374,1.5293197631835938,0.10519647598266602,0.2519874572753906
1761370317667949600,8.722949462890625,1.1345386505126953,-0.1378159523010254,0.4627692699432373
1761370317686560000,8.74156005859375,0.6238641738891602,-0.32055234909057617,0.40987229347229004
1761370317705172000,8.760171875,0.24872207641601562,-0.5617382526397705,0.30826425552368164
1761370317723782400,8.778782470703124,0.012782096862792969,-0.8540964126586914,0.27037501335144043
1761370317742394400,8.797394287109375,-0.2922639846801758,-1.0924993753433228,0.21703076362609863
1761370317761004800,8.8160048828125,-0.7844600677490234,-1.1466689109802246,0.2270033359527588
1761370317779616800,8.83461669921875,-1.3562469482421875,-1.0182039737701416,0.13934803009033203
1761370317798227200,8.853227294921876,-1.8323121070861816,-0.7662017345428467,-0.034641265869140625
1761370317816839200,8.871839111328125,-2.0645532608032227,-0.4440906047821045,-0.2906026840209961
1761370317835449600,8.89044970703125,-2.043529510498047,-0.0751047134399414,-0.5323460102081299
1761370317854061300,8.909061279296875,-2.0165348052978516,0.351071834564209,-0.6839263439178467
1761370317872671700,8.927671630859376,-1.908721923828125,0.7752983570098877,-0.6532158851623535
1761370317891283700,8.94628369140625,-1.686492919921875,0.9073915481567383,-0.0482792854309082
1761370317909894100,8.96489404296875,-1.211395263671875,0.8253014087677002,0.7807290554046631
1761370317928506000,8.983506103515625,-0.3063192367553711,0.6024570465087891,1.1530799865722656
1761370317947116500,9.002116455078125,0.6180734634399414,0.16151690483093262,0.9741724729537964
1761370317965728500,9.020728515625,1.4024248123168945,-0.22409367561340332,0.48246192932128906
1761370317984339000,9.0393388671875,1.4887628555297852,-0.5628402233123779,-0.10923218727111816
1761370318002951000,9.057950927734375,1.008401870727539,-0.7279675006866455,-0.8107068538665771
1761370318021561300,9.076561279296875,0.18596649169921875,-0.5680367946624756,-1.2483325004577637
1761370318040173300,9.09517333984375,-0.4693031311035156,-0.22437715530395508,-1.411268949508667
1761370318058783700,9.11378369140625,-0.7953519821166992,0.013897418975830078,-1.2118866443634033
1761370318077395700,9.132395751953124,-0.9434471130371094,0.12648987770080566,-0.786353349685669
1761370318096006100,9.151006103515625,-1.0013914108276367,0.24021124839782715,-0.4556906223297119
1761370318114618000,9.1696181640625,-0.8747701644897461,0.35124683380126953,-0.41179537773132324
1761370318133228500,9.188228515625,-0.5901432037353516,0.4137251377105713,-0.5918114185333252
1761370318151840500,9.206840576171874,-0.08790874481201172,0.3013145923614502,-0.6205489635467529
1761370318170451000,9.225450927734375,0.6823396682739258,0.0307767391204834,-0.5711205005645752
1761370318189063000,9.24406298828125,1.1314496994018555,-0.4072592258453369,-0.5211453437805176
1761370318207673300,9.26267333984375,0.8817024230957031,-0.6508517265319824,-0.6124105453491211
1761370318226285300,9.281285400390624,0.19145679473876953,-0.5932474136352539,-0.8196661472320557
1761370318244895700,9.299895751953125,-0.3699808120727539,-0.4117317199707031,-0.8424220085144043
1761370318263507700,9.3185078125,-0.5329923629760742,-0.3782026767730713,-0.6641759872436523
1761370318282118100,9.3371181640625,-0.40753650665283203,-0.32944464683532715,-0.5714364051818848
1761370318300730000,9.355730224609376,-0.2877388000488281,-0.012135744094848633,-0.6517183780670166
1761370318319340500,9.374340576171875,-0.23578929901123047,0.31281399726867676,-0.4501819610595703
1761370318337952500,9.392952392578126,-0.1036672592163086,0.527411699295044,0.005150318145751953
1761370318356563000,9.41156298828125,0.5177984237670898,0.46430492401123047,0.3338099718093872
1761370318375175000,9.4301748046875,1.5030136108398438,-0.06762552261352539,0.669292688369751
1761370318393785300,9.448785400390625,2.222137451171875,-0.6668839454650879,0.7268221378326416
1761370318412397300,9.467397216796876,2.1645450592041016,-1.026397943496704,0.33110296726226807
1761370318431007700,9.4860078125,1.2005538940429688,-1.0686967372894287,-0.26850390434265137
1761370318449619500,9.504619384765626,0.1443948745727539,-0.8151354789733887,-0.6078333854675293
1761370318468230100,9.523230224609375,-0.4630250930786133,-0.556096076965332,-0.6026709079742432
1761370318486841900,9.541841796875,-0.6607084274291992,-0.4530801773071289,-0.27086806297302246
1761370318505452500,9.56045263671875,-0.5421724319458008,-0.41821813583374023,0.07166004180908203
1761370318524064300,9.579064208984375,-0.16109371185302734,-0.5170431137084961,0.4279085397720337
1761370318542674700,9.5976748046875,0.12227630615234375,-0.7472963333129883,0.3821890354156494
1761370318561286700,9.61628662109375,0.04592609405517578,-1.0153846740722656,-0.07486200332641602
1761370318579897000,9.63489697265625,-0.2797832489013672,-1.213888168334961,-0.5045316219329834
1761370318598509000,9.653509033203125,-0.5257730484008789,-1.2512341737747192,-0.7959187030792236
1761370318617119500,9.672119384765624,-0.4166603088378906,-1.1624938249588013,-0.8571968078613281
1761370318635731500,9.6907314453125,-0.09558582305908203,-1.0801905393600464,-0.7574522495269775
1761370318654342000,9.709341796875,0.19456100463867188,-1.0325913429260254,-0.6390136480331421
1761370318672953900,9.727953857421875,0.2195873260498047,-0.9948121309280396,-0.5537341833114624
1761370318691564300,9.746564208984376,0.12493419647216797,-0.9074908494949341,-0.5261664390563965
1761370318710176300,9.76517626953125,0.10894298553466797,-0.8735277652740479,-0.48519420623779297
1761370318728786700,9.78378662109375,0.05304145812988281,-0.7544012069702148,-0.40232813358306885
1761370318747398700,9.802398681640625,-0.04817008972167969,-0.6244626045227051,-0.3774895668029785
1761370318766009000,9.821009033203126,-0.052153587341308594,-0.5318119525909424,-0.42215752601623535
1761370318784621000,9.83962109375,0.12381744384765625,-0.4693875312805176,-0.4183032512664795
1761370318803231500,9.8582314453125,0.24013423919677734,-0.4703707695007324,-0.4742624759674072
1761370318821843500,9.876843505859375,0.06444263458251953,-0.43037939071655273,-0.6351965665817261
1761370318840454000,9.895453857421876,-0.14960861206054688,-0.34220433235168457,-0.8690773248672485
1761370318859065900,9.91406591796875,-0.28125762939453125,-0.29415416717529297,-0.9893958568572998
1761370318877676300,9.93267626953125,-0.22089672088623047,-0.1670703887939453,-0.9410523176193237
1761370318896288300,9.951288330078125,0.059200286865234375,-0.08693814277648926,-0.5816880464553833
1761370318914898700,9.969898681640625,0.4220552444458008,-0.07446813583374023,-0.2810342311859131
1761370318933510700,9.9885107421875,0.6891460418701172,-0.19073724746704102,-0.21477007865905762
1761370318952121000,10.00712109375,0.8148155212402344,-0.25756263732910156,-0.2581113576889038
1761370318970733000,10.025733154296875,0.8590402603149414,-0.22322940826416016,-0.2623950242996216
1761370318989343500,10.044343505859375,0.9274454116821289,-0.08015584945678711,-0.1983252763748169
1761370319007955500,10.06295556640625,1.041825294494629,0.048987627029418945,-0.1183234453201294
1761370319026566000,10.08156591796875,1.1718807220458984,0.03994178771972656,0.12025642395019531
1761370319045177900,10.100177734375,1.2263412475585938,-0.002001523971557617,0.2894167900085449
1761370319063788300,10.118788330078125,1.1207332611083984,-0.11662602424621582,0.394978404045105
1761370319082400300,10.137400146484374,0.7958784103393555,-0.18113040924072266,0.309717059135437
1761370319101010700,10.1560107421875,0.3781404495239258,-0.15605640411376953,0.2121138572692871
1761370319119622700,10.17462255859375,0.10933971405029297,-0.10582566261291504,0.19982969760894775
1761370319138233000,10.193233154296875,0.20494556427001953,-0.07321715354919434,0.33844423294067383
1761370319156844800,10.2118447265625,0.4797191619873047,-0.16838359832763672,0.608649492263794
1761370319175455200,10.230455322265625,0.664311408996582,-0.27362895011901855,0.8734201192855835
1761370319194067200,10.249067138671874,0.4788389205932617,-0.34960007667541504,1.079780101776123
1761370319212677600,10.267677734375,-0.03043365478515625,-0.19475221633911133,1.0938599109649658
1761370319231289600,10.28628955078125,-0.6560001373291016,0.07128763198852539,1.1513702869415283
1761370319249900000,10.304900146484375,-1.272017478942871,0.40741825103759766,1.1709411144256592
1761370319268512000,10.323511962890626,-1.5110206604003906,0.6058366298675537,1.3184423446655273
1761370319287122400,10.342122314453125,-1.080739974975586,0.5960147380828857,1.4685083627700806
1761370319305734400,10.360734375,-0.1650867462158203,0.35842132568359375,1.3834823369979858
1761370319324344800,10.3793447265625,0.4714984893798828,0.0148162841796875,1.1609153747558594
1761370319342956800,10.397956787109376,0.5233592987060547,-0.24647164344787598,0.7528845071792603
1761370319361567200,10.416567138671875,0.22537517547607422,-0.29363560676574707,0.3095390796661377
1761370319380179200,10.43517919921875,-0.11327266693115234,-0.1954333782196045,0.08228659629821777
1761370319398789600,10.45378955078125,-0.32415771484375,-0.009152412414550781,0.1644974946975708
1761370319417401600,10.472401611328126,-0.5791959762573242,0.18055343627929688,0.3024667501449585
1761370319436012000,10.491011962890624,-0.9487428665161133,0.2980837821960449,0.33754539489746094
1761370319454624000,10.5096240234375,-1.2059097290039062,0.38539981842041016,0.2792145013809204
1761370319473234400,10.528234375,-1.3717689514160156,0.4082682132720947,0.21207797527313232
1761370319491846400,10.546846435546875,-1.3848028182983398,0.45097804069519043,0.07092416286468506
1761370319510456800,10.565456787109374,-1.089491844177246,0.44647860527038574,-0.06327366828918457
1761370319529068800,10.58406884765625,-0.4471712112426758,0.38974452018737793,-0.19438552856445312
1761370319547679200,10.60267919921875,0.223724365234375,0.3601245880126953,-0.3531043529510498
1761370319566291200,10.621291259765625,0.6433334350585938,0.3096907138824463,-0.5832159519195557
1761370319584901600,10.639901611328124,0.7649545669555664,0.28223514556884766,-0.6930890083312988
1761370319603513600,10.658513671875,0.6819019317626953,0.36643147468566895,-0.6043179035186768
1761370319622124000,10.6771240234375,0.5729551315307617,0.5065691471099854,-0.5238333940505981
1761370319640736000,10.695736083984375,0.4310588836669922,0.6367812156677246,-0.5175379514694214
1761370319659346400,10.714346435546876,0.3160743713378906,0.6825525760650635,-0.44472742080688477
1761370319677958400,10.73295849609375,0.422943115234375,0.5961434841156006,-0.21350085735321045
1761370319696568800,10.75156884765625,0.8422031402587891,0.45748019218444824,-0.05245506763458252
1761370319715180800,10.770180908203125,1.3709049224853516,0.18518447875976562,0.18110120296478271
1761370319733791200,10.788791259765626,1.5934410095214844,-0.1793959140777588,0.1931304931640625
1761370319752403200,10.8074033203125,1.7514467239379883,-0.5211138725280762,-0.12990403175354004
1761370319771013600,10.826013671875,1.6190223693847656,-0.8616008758544922,-0.22992944717407227
1761370319789625600,10.84462548828125,1.1559906005859375,-1.0378632545471191,-0.19993937015533447
1761370319808236000,10.863236083984376,0.6170234680175781,-1.0547215938568115,-0.05979812145233154
1761370319826848000,10.881847900390625,0.18126773834228516,-1.1018292903900146,0.3085196018218994
1761370319845458400,10.90045849609375,-0.10340118408203125,-1.1484789848327637,0.7612723112106323
1761370319864070400,10.9190703125,-0.2342376708984375,-1.1473729610443115,0.8645380735397339
1761370319882680800,10.937680908203125,-0.5448741912841797,-1.1763639450073242,0.9562115669250488
1761370319901292800,10.956292724609375,-0.7015962600708008,-1.1422629356384277,0.8723351955413818
1761370319919903200,10.9749033203125,-0.3794689178466797,-1.206291675567627,0.6430187225341797
1761370319938515200,10.99351513671875,-0.05134773254394531,-1.4019947052001953,0.4122682809829712
1761370319957125600,11.012125732421875,0.14126968383789062,-1.490842580795288,0.22444486618041992
1761370319975737600,11.030737548828125,0.38256168365478516,-1.5606296062469482,0.1570659875869751
1761370319994348000,11.04934814453125,0.47566795349121094,-1.6637065410614014,0.12502646446228027
1761370320012960000,11.0679599609375,0.10502338409423828,-1.6341075897216797,0.1463327407836914
1761370320031570400,11.0865703125,-0.1886892318725586,-1.468632459640503,0.22963404655456543
1761370320050182400,11.105182373046874,-0.15491294860839844,-1.3987064361572266,0.35088491439819336
1761370320068792800,11.123792724609375,-0.17505645751953125,-1.2982878684997559,0.5901572704315186
1761370320087404800,11.14240478515625,-0.183990478515625,-1.1609725952148438,0.7243882417678833
1761370320106015200,11.16101513671875,0.07888031005859375,-1.2481396198272705,0.7026088237762451
1761370320124627200,11.179627197265624,0.034557342529296875,-1.1551220417022705,0.752560019493103
1761370320143237600,11.198237548828125,-0.008487701416015625,-1.074193000793457,0.7770341634750366
1761370320161849600,11.216849609375,-0.15949153900146484,-0.610637903213501,0.409421443939209
1761370320180460000,11.2354599609375,-0.4324769973754883,-0.5251688957214355,0.3192967176437378
1761370320199072000,11.254072021484374,-0.41460609436035156,-0.6648406982421875,0.5798956155776978
1761370320217682400,11.272682373046875,-0.05417823791503906,-0.6302187442779541,0.5384485721588135
1761370320236294400,11.29129443359375,0.1015176773071289,-0.6332309246063232,0.3249928951263428
1761370320254904800,11.30990478515625,0.30422210693359375,-0.6039857864379883,0.08190274238586426
