time,seconds_elapsed,z,y,x
1761370662716791300,0.189791259765625,0.23896360397338867,-0.10437679290771484,-0.4377942681312561
1761370662735402200,0.20840234375,0.2987942695617676,0.038347721099853516,-0.37531524896621704
1761370662754014700,0.2270146484375,0.21352195739746094,0.11651802062988281,-0.07149767875671387
1761370662772625700,0.245625732421875,0.6465244293212891,-0.10010194778442383,-0.12774085998535156
1761370662791238000,0.26423779296875,0.36223697662353516,-0.0312652587890625,-0.1965782642364502
1761370662809848800,0.282848876953125,0.03593921661376953,-0.0469970703125,-0.42508208751678467
1761370662828461300,0.30146142578125,-0.24349737167358398,0.009119510650634766,0.21731042861938477
1761370662847072300,0.320072265625,0.4016385078430176,-0.13049745559692383,0.37261223793029785
1761370662865684500,0.3386845703125,0.7574939727783203,-0.3128342628479004,0.2454817295074463
1761370662884295400,0.35729541015625,0.7280216217041016,-0.09890556335449219,0.9554311037063599
1761370662902908000,0.375907958984375,0.6658153533935547,0.1644735336303711,1.3236663341522217
1761370662921518800,0.394518798828125,0.31012535095214844,0.18224859237670898,0.9889935255050659
1761370662940131300,0.41313134765625,-0.032408714294433594,0.027210712432861328,0.5316812992095947
1761370662958742000,0.431741943359375,0.043731689453125,-0.023491859436035156,0.04212331771850586
1761370662977354500,0.4503544921875,0.03309822082519531,-0.09473037719726562,-0.15248560905456543
1761370662995965400,0.46896533203125,-0.07754993438720703,-0.08092308044433594,-0.17664361000061035
1761370663014578000,0.487577880859375,-0.2530398368835449,-0.06388187408447266,-0.12348747253417969
1761370663033188600,0.506188720703125,-0.2273731231689453,-0.08923625946044922,-0.0097198486328125
1761370663051801000,0.524801025390625,-0.054953575134277344,-0.06104564666748047,0.021762490272521973
1761370663070412000,0.543412109375,0.2185993194580078,0.015435218811035156,0.16972565650939941
1761370663089024500,0.5620244140625,0.2421255111694336,-0.0390782356262207,0.09032595157623291
1761370663107635500,0.580635498046875,0.050994873046875,-0.03216981887817383,0.1522608995437622
1761370663126248000,0.599248046875,0.0724029541015625,-0.0827798843383789,0.11628103256225586
1761370663144858600,0.617858642578125,0.008367538452148438,-0.11910057067871094,-0.0344163179397583
1761370663163471000,0.63647119140625,-0.11591434478759766,-0.010118484497070312,-0.08764088153839111
1761370663182082000,0.65508203125,-0.09473705291748047,0.06331443786621094,-0.0838167667388916
1761370663200694500,0.673694580078125,-0.004352569580078125,0.03518104553222656,0.028518080711364746
1761370663219305500,0.692305419921875,0.0807647705078125,-0.01944255828857422,0.0463486909866333
1761370663237917700,0.710917724609375,0.07896232604980469,-0.049166202545166016,-0.003652334213256836
1761370663256528600,0.729528564453125,0.14756393432617188,0.019475460052490234,-0.0646214485168457
1761370663275141000,0.74814111328125,0.09744930267333984,0.03451871871948242,-0.08275198936462402
1761370663293752000,0.766751953125,0.10558223724365234,-0.02151346206665039,-0.04022395610809326
1761370663312364500,0.785364501953125,0.26701831817626953,-0.03590250015258789,0.10494327545166016
1761370663330975200,0.803975341796875,0.434173583984375,0.050194740295410156,0.15968811511993408
1761370663349587700,0.822587646484375,0.4745626449584961,0.06447792053222656,0.1452033519744873
1761370663368198700,0.84119873046875,0.38405513763427734,-0.05363893508911133,-0.05306804180145264
1761370663386811100,0.85981103515625,0.11469650268554688,-0.12474727630615234,-0.2189418077468872
1761370663405422000,0.878422119140625,-0.10843658447265625,0.010283470153808594,-0.18360185623168945
1761370663424034600,0.89703466796875,-0.17473840713500977,0.1819753646850586,0.0094376802444458
1761370663442645200,0.915645263671875,-0.17200422286987305,0.16112852096557617,0.07267248630523682
1761370663461257700,0.9342578125,-0.1865386962890625,0.07523632049560547,-0.023182034492492676
1761370663479868700,0.95286865234375,-0.0965433120727539,-0.05661821365356445,-0.1205892562866211
1761370663498481200,0.971481201171875,-0.09618568420410156,-0.09592151641845703,-0.04746067523956299
1761370663517092000,0.990092041015625,-0.19201040267944336,-0.07065725326538086,0.056917786598205566
1761370663535704600,1.00870458984375,-0.1483159065246582,0.050287723541259766,0.14605748653411865
1761370663554315300,1.027315185546875,0.05436229705810547,0.022615909576416016,0.371870756149292
1761370663572927700,1.045927734375,0.1278514862060547,-0.03893232345581055,0.2594268321990967
1761370663591538700,1.06453857421875,0.04583930969238281,-0.008418560028076172,-0.03662467002868652
1761370663610151200,1.083151123046875,0.11227703094482422,-0.0224609375,-0.08714890480041504
1761370663628762000,1.10176220703125,0.18251800537109375,0.0441136360168457,-0.016010165214538574
1761370663647374300,1.120374267578125,0.10869884490966797,0.060810089111328125,-0.0840308666229248
1761370663665985300,1.1389853515625,0.0052032470703125,0.04464101791381836,-0.1298733949661255
1761370663684597800,1.15759765625,-0.0316009521484375,0.0259246826171875,-0.09642255306243896
1761370663703208700,1.176208740234375,0.032929420471191406,0.00601959228515625,-0.054332852363586426
1761370663721821200,1.1948212890625,0.031929969787597656,-0.03081035614013672,-0.05103778839111328
1761370663740432000,1.213431884765625,0.10732460021972656,-0.06558752059936523,0.09823119640350342
1761370663759044400,1.23204443359375,0.0649251937866211,-0.05666399002075195,0.07289743423461914
1761370663777655300,1.2506552734375,-0.08954620361328125,0.0016732215881347656,0.01683938503265381
1761370663796267800,1.269267822265625,-0.0892782211303711,0.03609323501586914,0.10226953029632568
1761370663814878700,1.287878662109375,0.0099639892578125,0.028616905212402344,0.10197925567626953
1761370663833491000,1.306490966796875,0.0538787841796875,0.008111953735351562,0.04412388801574707
1761370663852102000,1.325101806640625,0.12057018280029297,0.0108184814453125,0.008403658866882324
1761370663870714400,1.34371435546875,0.12312698364257812,0.046862125396728516,0.011847615242004395
1761370663889325300,1.3623251953125,0.11953163146972656,0.013007164001464844,0.02012312412261963
1761370663907937800,1.380937744140625,0.19979000091552734,0.005275249481201172,0.031131267547607422
1761370663926548700,1.399548828125,0.31555747985839844,-0.0312809944152832,0.04770040512084961
1761370663945161000,1.418160888671875,0.36489009857177734,-0.016622066497802734,0.12351715564727783
1761370663963772000,1.43677197265625,0.24971771240234375,0.024290084838867188,0.0988619327545166
1761370663982384400,1.45538427734375,0.18161869049072266,0.03421306610107422,0.16843366622924805
1761370664000995300,1.473995361328125,0.14757823944091797,-0.024749279022216797,0.1857086420059204
1761370664019607800,1.49260791015625,0.16232776641845703,-0.08731412887573242,0.16767144203186035
1761370664038218800,1.51121875,0.15636062622070312,-0.18491554260253906,0.017007946968078613
1761370664056831000,1.5298310546875,-0.07704353332519531,-0.18993663787841797,-0.1369016170501709
1761370664075442000,1.54844189453125,-0.2998495101928711,-0.08577585220336914,-0.07447993755340576
1761370664094054400,1.567054443359375,-0.2994804382324219,0.019510746002197266,0.11792421340942383
1761370664112665300,1.585665283203125,-0.26700544357299805,0.04193305969238281,0.10651087760925293
1761370664131277800,1.60427783203125,-0.38440608978271484,-0.05878019332885742,0.03111135959625244
1761370664149888800,1.622888671875,-0.28564929962158203,-0.014311790466308594,0.12421178817749023
1761370664168501000,1.6415009765625,-0.13292598724365234,-0.03287029266357422,0.15388727188110352
1761370664187112000,1.66011181640625,-0.1015939712524414,-0.056484222412109375,-0.09797537326812744
1761370664205724400,1.678724365234375,-0.12377691268920898,-0.028394699096679688,-0.17906808853149414
1761370664224335400,1.69733544921875,0.01990985870361328,-0.006952762603759766,0.0737382173538208
1761370664242947800,1.71594775390625,0.3744840621948242,0.002902507781982422,0.21360623836517334
1761370664261558500,1.73455859375,0.7714309692382812,-0.09929180145263672,0.20538544654846191
1761370664280171000,1.7531708984375,1.214578628540039,-0.24938392639160156,0.4589855670928955
1761370664298782000,1.771781982421875,0.960963249206543,-0.16845273971557617,0.42531490325927734
1761370664317394400,1.79039453125,0.17219066619873047,-0.07122373580932617,0.15768206119537354
1761370664336005400,1.80900537109375,-0.2617473602294922,-0.027417659759521484,-0.05171215534210205
1761370664354617900,1.827617919921875,-0.18541288375854492,-0.09942245483398438,0.010905265808105469
1761370664373228500,1.846228515625,-0.012360095977783203,-0.1273174285888672,0.18178749084472656
1761370664391841000,1.864841064453125,-0.0017986297607421875,-0.10165119171142578,0.5281033515930176
1761370664410452000,1.883451904296875,-0.4414501190185547,-0.308840274810791,0.4069098234176636
1761370664429064400,1.902064453125,-0.8522629737854004,0.04775238037109375,0.14981770515441895
1761370664447675400,1.92067529296875,-0.9547357559204102,-0.3599076271057129,-0.2884402275085449
1761370664466287600,1.93928759765625,-0.7579226493835449,-0.16269826889038086,-0.6142747402191162
1761370664484898600,1.957898681640625,-0.4032306671142578,-0.05710124969482422,-0.5765540599822998
1761370664503511000,1.976510986328125,0.07044363021850586,0.4808235168457031,-0.021459519863128662
1761370664522122000,1.9951220703125,0.8566789627075195,0.2577357292175293,0.30491727590560913
1761370664540734500,2.013734375,1.0570006370544434,-0.12679767608642578,0.12988126277923584
1761370664559345400,2.032345458984375,0.7997331619262695,-0.13343143463134766,-0.15797728300094604
1761370664577957600,2.05095751953125,0.5047793388366699,-0.1479511260986328,-0.2189697027206421
1761370664596568600,2.069568603515625,0.1552424430847168,-0.11517620086669922,-0.16084009408950806
1761370664615181000,2.08818115234375,-0.09389114379882812,-0.025402069091796875,-0.10834717750549316
1761370664633792000,2.1067919921875,-0.07863473892211914,0.05905866622924805,0.1766412854194641
1761370664652404500,2.125404541015625,-0.21402597427368164,0.1482090950012207,0.37386906147003174
1761370664671015200,2.14401513671875,-0.05551576614379883,0.24786806106567383,-0.18013012409210205
1761370664689627600,2.162627685546875,-0.11265373229980469,-0.03664684295654297,-0.35191354155540466
1761370664708238600,2.181238525390625,0.1519317626953125,-0.05762195587158203,-0.17015984654426575
1761370664726851000,2.19985107421875,-0.11452627182006836,-0.11293220520019531,-0.5377681255340576
1761370664745462000,2.2184619140625,-0.3705472946166992,0.14627361297607422,-0.5448520183563232
1761370664764074500,2.237074462890625,0.032009124755859375,-0.07673072814941406,-0.4932899475097656
1761370664782685200,2.255685302734375,-0.5529727935791016,0.22664928436279297,-0.5043366551399231
1761370664801297700,2.274297607421875,-0.6954388618469238,0.26633214950561523,-0.2581040859222412
1761370664819908600,2.29290869140625,-1.0003080368041992,-0.2081618309020996,-0.5983173847198486
1761370664838521000,2.31152099609375,-0.6109013557434082,0.2164902687072754,-0.30715909600257874
1761370664857132000,2.330132080078125,-0.12018871307373047,-0.01397848129272461,-0.046734511852264404
1761370664875744500,2.34874462890625,0.49225807189941406,-0.06783151626586914,0.7106061577796936
1761370664894355200,2.367355224609375,0.935570240020752,-0.13956689834594727,1.0764210224151611
1761370664912967700,2.3859677734375,0.541895866394043,-0.010525703430175781,0.36606258153915405
1761370664931578600,2.40457861328125,0.09142589569091797,0.10483741760253906,-0.29902827739715576
1761370664950191000,2.423191162109375,0.05756711959838867,0.0822296142578125,-0.36027252674102783
1761370664968802000,2.441802001953125,0.1676187515258789,0.0585784912109375,-0.22292014956474304
1761370664987414300,2.460414306640625,0.3463897705078125,-0.01490926742553711,-0.19311100244522095
1761370665006025200,2.479025146484375,0.3271002769470215,-0.002582550048828125,-0.1878557801246643
1761370665024637700,2.4976376953125,0.21595430374145508,0.026105880737304688,-0.3124541640281677
1761370665043248600,2.51624853515625,0.06836128234863281,0.06079530715942383,-0.5367676615715027
1761370665061861000,2.534861083984375,0.09510469436645508,-0.15070295333862305,-0.5756170153617859
1761370665080472000,2.55347216796875,0.31786155700683594,-0.034752845764160156,-0.31096506118774414
1761370665099084300,2.572084228515625,0.42122602462768555,-0.011022567749023438,0.15043377876281738
1761370665117695200,2.5906953125,0.4080052375793457,-0.138092041015625,0.16954684257507324
1761370665136307700,2.6093076171875,0.3011956214904785,0.12283849716186523,0.08447027206420898
1761370665154918700,2.627918701171875,0.6427912712097168,-0.2442622184753418,0.16921991109848022
1761370665173531100,2.64653125,0.07840538024902344,-0.23788738250732422,0.24910473823547363
1761370665192142000,2.66514208984375,0.22580385208129883,0.1997685432434082,0.0700070858001709
1761370665210754600,2.683754638671875,-0.3522505760192871,-0.24962282180786133,-0.05223041772842407
1761370665229365500,2.702365478515625,-0.5262551307678223,0.2461681365966797,-0.3370986878871918
1761370665247977700,2.720977783203125,0.06819629669189453,0.008220195770263672,0.03495293855667114
1761370665266588700,2.739588623046875,-0.07631874084472656,-0.06778430938720703,0.22848832607269287
1761370665285201200,2.758201171875,0.19121026992797852,-0.2991495132446289,0.1628798246383667
1761370665303812000,2.77681201171875,-0.01551198959350586,-0.060900211334228516,0.14820021390914917
1761370665322424300,2.79542431640625,-0.029784202575683594,-0.13515758514404297,-0.1695805788040161
1761370665341035300,2.81403515625,0.04214286804199219,-0.10016345977783203,-0.1286032795906067
1761370665359647700,2.832647705078125,-0.35874080657958984,-0.05811738967895508,-0.2237975001335144
1761370665378258700,2.8512587890625,-0.49674224853515625,0.12583208084106445,-0.0918874740600586
1761370665396871200,2.86987109375,-0.7605524063110352,0.13209867477416992,0.2549685835838318
1761370665415482000,2.888482177734375,-0.6697592735290527,0.010137081146240234,0.37362140417099
1761370665434094600,2.907094482421875,-0.6706442832946777,-0.14919376373291016,0.24468612670898438
1761370665452705300,2.925705322265625,-0.612185001373291,-0.1786341667175293,0.10217088460922241
1761370665471317800,2.94431787109375,-0.47291040420532227,-0.019440174102783203,0.09676504135131836
1761370665489928700,2.9629287109375,-0.07911491394042969,0.1052088737487793,0.054238080978393555
1761370665508541200,2.981541259765625,0.35589027404785156,0.1675252914428711,0.23804515600204468
1761370665527152000,3.000152099609375,0.6551713943481445,-0.16664600372314453,0.17411834001541138
1761370665545764600,3.0187646484375,0.5178203582763672,0.004664897918701172,-0.08328700065612793
1761370665564375600,3.03737548828125,0.4180474281311035,-0.018026351928710938,-0.2981882691383362
1761370665582987800,3.05598779296875,0.3065495491027832,0.007330417633056641,-0.28414201736450195
1761370665601598700,3.0745986328125,0.13521862030029297,-0.0130767822265625,-0.07788264751434326
1761370665620211200,3.093211181640625,-0.09179544448852539,0.31157541275024414,0.21794265508651733
1761370665638822100,3.111822265625,-0.14745473861694336,-0.4485740661621094,0.07661712169647217
1761370665657434600,3.1304345703125,-0.13495731353759766,0.08222436904907227,-0.2922084927558899
1761370665676045600,3.149045654296875,0.20308780670166016,-0.010013580322265625,0.35402899980545044
1761370665694657800,3.16765771484375,0.5596833229064941,0.03329753875732422,0.5296000838279724
1761370665713268700,3.186268798828125,0.3468656539916992,-0.09128761291503906,0.18609505891799927
1761370665731881200,3.204881103515625,-0.027532577514648438,-0.02331829071044922,-0.410072386264801
1761370665750492200,3.2234921875,-0.40914106369018555,0.02171039581298828,-0.3893934488296509
1761370665769104600,3.242104736328125,-0.5780544281005859,0.01837921142578125,0.004879772663116455
1761370665787715600,3.260715576171875,-0.5373682975769043,0.09166622161865234,0.19568264484405518
1761370665806328000,3.279328125,-0.4533514976501465,0.06090974807739258,0.09431278705596924
1761370665824938800,3.297938720703125,-0.3401508331298828,0.08072471618652344,0.12318497896194458
1761370665843551200,3.31655126953125,-0.2695298194885254,-0.05865478515625,0.2053738832473755
1761370665862162200,3.335162109375,-0.04268646240234375,-0.18517065048217773,0.07269531488418579
1761370665880774700,3.353774658203125,0.12234306335449219,-0.17084264755249023,-0.05597960948944092
1761370665899385600,3.372385498046875,0.12963581085205078,-0.1129908561706543,0.03814411163330078
1761370665917997800,3.390997802734375,0.22210693359375,0.10180807113647461,0.09864205121994019
1761370665936608800,3.40960888671875,0.12248563766479492,0.2004103660583496,-0.19584783911705017
1761370665955221200,3.42822119140625,0.09172773361206055,0.10523843765258789,-0.2824491560459137
1761370665973832200,3.446832275390625,0.1868886947631836,-0.009946823120117188,-0.26317673921585083
1761370665992444700,3.465444580078125,0.3941316604614258,-0.08249521255493164,-0.05217677354812622
1761370666011055600,3.4840556640625,0.46781349182128906,-0.04940080642700195,0.011008620262145996
1761370666029668000,3.502668212890625,0.22736310958862305,0.03137922286987305,-0.047692298889160156
1761370666048278800,3.52127880859375,0.022035598754882812,0.07675838470458984,-0.0672106146812439
1761370666066891300,3.539891357421875,-0.06980180740356445,0.05942583084106445,0.10652714967727661
1761370666085502200,3.558502197265625,-0.009877204895019531,0.024578094482421875,0.19044369459152222
1761370666104114700,3.57711474609375,0.07169723510742188,-0.044625282287597656,-0.09927010536193848
1761370666122725600,3.5957255859375,-0.0453181266784668,-0.05202913284301758,-0.2351871132850647
1761370666141338000,3.614338134765625,-0.14493608474731445,0.030543804168701172,-0.1269361972808838
1761370666159948800,3.63294873046875,-0.2240443229675293,0.06150531768798828,0.12414795160293579
1761370666178561300,3.651561279296875,-0.33698177337646484,0.07558059692382812,0.10437482595443726
1761370666197172200,3.670172119140625,-0.5828628540039062,-0.009549617767333984,-0.06720966100692749
1761370666215784700,3.68878466796875,-0.650306224822998,-0.11975336074829102,-0.09956663846969604
1761370666234395600,3.707395751953125,-0.44812488555908203,-0.09464263916015625,-0.00350266695022583
1761370666253008000,3.7260078125,-0.16772174835205078,-0.03548717498779297,0.1696109175682068
1761370666271618800,3.744618896484375,0.054839134216308594,0.01121377944946289,0.15141797065734863
1761370666290231300,3.763231201171875,0.13613128662109375,0.024788379669189453,-0.007113099098205566
1761370666308842200,3.78184228515625,0.19372320175170898,-0.010161399841308594,0.04805248975753784
1761370666327454700,3.800454833984375,0.33544921875,0.0016379356384277344,0.20280194282531738
1761370666346065700,3.819065673828125,0.41072702407836914,0.016301631927490234,0.26573121547698975
1761370666364678100,3.83767822265625,0.41291332244873047,-0.06387853622436523,0.13211685419082642
1761370666383288800,3.856288818359375,0.26131439208984375,-0.08882570266723633,-0.07963687181472778
1761370666401901300,3.8749013671875,0.15619468688964844,-0.04850482940673828,-0.08301711082458496
1761370666420512300,3.89351220703125,0.15315485000610352,0.05292987823486328,0.024038493633270264
1761370666439124700,3.912124755859375,0.0528416633605957,0.07987308502197266,-0.012808024883270264
1761370666457735700,3.930735595703125,-0.1611800193786621,0.020015239715576172,-0.0871543288230896
1761370666476348200,3.94934814453125,-0.3208503723144531,-0.03151226043701172,-0.11130470037460327
1761370666494959000,3.967958984375,-0.30846500396728516,-0.035956382751464844,-0.11793160438537598
1761370666513571300,3.9865712890625,-0.01844310760498047,0.01755237579345703,0.012368321418762207
1761370666532182300,4.005182373046875,0.22209501266479492,0.021688461303710938,0.13921654224395752
1761370666550794800,4.023794677734375,0.1595020294189453,-0.03592634201049805,0.08420109748840332
1761370666569405700,4.04240576171875,0.021203041076660156,-0.0664830207824707,-0.0270879864692688
1761370666588018000,4.061017822265625,-0.10906124114990234,-0.02423238754272461,-0.02393895387649536
1761370666606628900,4.07962890625,-0.004494667053222656,0.06626272201538086,0.0659719705581665
1761370666625241300,4.098241455078125,0.09198474884033203,0.06156730651855469,0.10125350952148438
1761370666643852300,4.116852294921875,0.06334829330444336,0.00212860107421875,0.01115274429321289
1761370666662464800,4.13546484375,0.07540082931518555,-0.05684089660644531,-0.14020371437072754
1761370666681075700,4.15407568359375,0.010732650756835938,-0.01608419418334961,-0.1009323000907898
1761370666699688000,4.17268798828125,-0.06776809692382812,-0.012118339538574219,-0.0711933970451355
1761370666718299000,4.191298828125,-0.14183807373046875,-0.015475749969482422,0.06626248359680176
1761370666736911400,4.209911376953125,-0.20128202438354492,-0.034259796142578125,0.2623542547225952
1761370666755522300,4.228522216796875,-0.1536698341369629,-0.025834083557128906,0.24949568510055542
1761370666774134800,4.247134765625,-0.16154098510742188,-0.01801013946533203,0.07861083745956421
1761370666792745700,4.265745849609375,-0.1152811050415039,0.08248090744018555,-0.09455597400665283
1761370666811358000,4.28435791015625,0.03340005874633789,0.061542510986328125,-0.0064389705657958984
1761370666829969000,4.302968994140625,0.17633295059204102,-0.0043773651123046875,0.07614290714263916
1761370666848581400,4.321581298828125,0.28569459915161133,-0.027091503143310547,-0.060788631439208984
1761370666867192300,4.3401923828125,0.2920398712158203,-0.016203880310058594,-0.12543928623199463
1761370666885804800,4.3588046875,0.20944643020629883,0.025571346282958984,-0.05754297971725464
1761370666904415700,4.377415771484375,0.05202150344848633,0.045907020568847656,-0.0025297999382019043
1761370666923028000,4.396028076171875,-0.06099128723144531,0.026826858520507812,0.018821418285369873
1761370666941639000,4.414638916015625,-0.017545700073242188,-0.01874685287475586,0.10045826435089111
1761370666960251400,4.43325146484375,-0.04418373107910156,-0.04629945755004883,0.08879399299621582
1761370666978862300,4.4518623046875,-0.08967161178588867,-0.06602048873901367,0.08295601606369019
1761370666997474800,4.470474853515625,-0.12242794036865234,-0.055826663970947266,0.09442806243896484
1761370667016085800,4.489085693359375,-0.13750791549682617,-0.013480663299560547,0.07291179895401001
1761370667034698000,4.507697998046875,-0.13802862167358398,0.022323131561279297,0.08240795135498047
1761370667053309000,4.526308837890625,-0.07935142517089844,0.05092954635620117,0.07543206214904785
1761370667071921400,4.54492138671875,-0.06385374069213867,0.03524971008300781,0.07918316125869751
1761370667090532400,4.563532470703125,-0.02205371856689453,-0.037091732025146484,0.062445998191833496
1761370667109144800,4.582144775390625,-0.009830474853515625,-0.05742835998535156,-0.02673041820526123
1761370667127755500,4.600755615234375,0.02010345458984375,-0.024999618530273438,-0.04708242416381836
1761370667146368000,4.619367919921875,0.004615306854248047,0.030384063720703125,-0.05455935001373291
1761370667164979000,4.63797900390625,0.02069234848022461,0.0486903190612793,-0.104128897190094
1761370667183591400,4.65659130859375,0.15256023406982422,0.037070274353027344,-0.07426726818084717
1761370667202202400,4.675202392578125,0.23679447174072266,0.0646820068359375,-0.1080659031867981
1761370667220814600,4.693814697265625,0.08991527557373047,0.018944263458251953,-0.06361657381057739
1761370667239425500,4.712425537109375,-0.08985424041748047,-0.015403270721435547,0.036814987659454346
1761370667258038000,4.7310380859375,-0.19353151321411133,-0.025845050811767578,0.0646737813949585
1761370667276649000,4.74964892578125,-0.2816619873046875,0.010584354400634766,0.050434648990631104
1761370667295261400,4.768261474609375,-0.20047903060913086,0.008891582489013672,0.03642505407333374
1761370667313872400,4.786872314453125,0.005476951599121094,0.0299835205078125,0.04559171199798584
1761370667332484600,4.805484619140625,0.08929681777954102,0.01885080337524414,0.00823885202407837
1761370667351095600,4.824095458984375,0.03623819351196289,0.018618106842041016,-0.005188405513763428
1761370667369708000,4.8427080078125,0.041281700134277344,0.025435924530029297,-0.08347189426422119
1761370667388319000,4.861319091796875,0.26882123947143555,0.062047481536865234,-0.11301660537719727
1761370667406931200,4.87993115234375,0.40204572677612305,0.016686439514160156,-0.11195635795593262
1761370667425542100,4.898542236328125,0.3560800552368164,-0.031200408935546875,-0.11759018898010254
1761370667444154600,4.917154541015625,0.11561727523803711,-0.027240753173828125,-0.16651183366775513
1761370667462765600,4.935765625,-0.07702016830444336,-0.03454303741455078,-0.18302321434020996
1761370667481378000,4.9543779296875,-0.08767032623291016,-0.0025811195373535156,-0.10027515888214111
1761370667499989000,4.972989013671875,-0.13551092147827148,0.011468887329101562,0.02181035280227661
1761370667518601200,4.991601318359375,-0.1734333038330078,0.0023822784423828125,0.0545123815536499
1761370667537212200,5.010212158203125,-0.2831997871398926,-0.006304264068603516,0.09853470325469971
1761370667555824600,5.02882470703125,-0.2024683952331543,-0.0006561279296875,0.11763817071914673
1761370667574435600,5.047435546875,-0.07735013961791992,-0.12964582443237305,0.15681248903274536
1761370667593048000,5.066048095703125,-0.017135143280029297,-0.021892547607421875,0.11281019449234009
1761370667611658800,5.08465869140625,-0.16870546340942383,0.01161336898803711,0.12806785106658936
1761370667630271200,5.103271240234375,-0.2312479019165039,0.05478954315185547,0.019596874713897705
1761370667648882200,5.121882080078125,-0.11766767501831055,0.09489297866821289,-0.07851791381835938
1761370667667494700,5.14049462890625,0.048091888427734375,0.10311651229858398,-0.08713877201080322
1761370667686105600,5.159105712890625,0.1974353790283203,0.05554819107055664,-0.06039363145828247
1761370667704717800,5.1777177734375,0.3805060386657715,-0.021529197692871094,0.039657413959503174
1761370667723328800,5.196328857421875,0.41574621200561523,-0.05105876922607422,0.12839841842651367
1761370667741941200,5.214941162109375,0.2070932388305664,-0.027745723724365234,0.1639862060546875
1761370667760552200,5.23355224609375,-0.062055110931396484,0.020479679107666016,0.1528797149658203
1761370667779164700,5.25216455078125,-0.17130613327026367,0.022983551025390625,0.13068938255310059
1761370667797775400,5.270775390625,-0.1545696258544922,-0.011538982391357422,0.040079355239868164
1761370667816387800,5.289387939453125,-0.11101865768432617,-0.03262758255004883,0.005002379417419434
1761370667834998800,5.307998779296875,0.000232696533203125,-0.05025625228881836,0.04106020927429199
1761370667853611300,5.326611328125,0.04760456085205078,-0.04452037811279297,0.01104593276977539
1761370667872222200,5.34522216796875,-0.006381988525390625,-0.006616115570068359,-0.07485634088516235
1761370667890834400,5.36383447265625,-0.030525684356689453,0.020817279815673828,0.004943966865539551
1761370667909445400,5.3824453125,-0.02589893341064453,-0.018283843994140625,0.038732290267944336
1761370667928057900,5.401057861328125,-0.059175968170166016,-0.08155679702758789,-0.027666687965393066
1761370667946668800,5.419668701171875,-0.11909055709838867,-0.11277484893798828,-0.0823221206665039
1761370667965281300,5.43828125,-0.03823709487915039,-0.06456518173217773,-0.0566372275352478
1761370667983892000,5.45689208984375,0.09006500244140625,-0.0005316734313964844,0.045276761054992676
1761370668002504400,5.47550439453125,0.07956838607788086,0.043609619140625,0.15937542915344238
1761370668021115400,5.494115478515625,0.022793292999267578,0.044515132904052734,0.14094483852386475
1761370668039727900,5.512727783203125,0.07635641098022461,0.05619668960571289,0.0892108678817749
1761370668058338600,5.531338623046875,0.08258867263793945,0.02375650405883789,0.06036794185638428
1761370668076951000,5.549950927734375,-0.007002353668212891,-0.016805648803710938,0.0668565034866333
1761370668095562000,5.56856201171875,-0.1608262062072754,-0.03595256805419922,0.05914342403411865
1761370668114174500,5.587174560546875,-0.22708511352539062,0.025951385498046875,-0.02195531129837036
1761370668132785400,5.605785400390625,-0.2053384780883789,0.010194778442382812,-0.11023682355880737
1761370668151397600,5.624397705078125,-0.024367809295654297,0.08937978744506836,-0.1590467095375061
1761370668170008600,5.643008544921875,0.15763092041015625,0.048911094665527344,0.0015534162521362305
1761370668188621000,5.66162109375,0.26360654830932617,0.005915641784667969,0.003568887710571289
1761370668207232000,5.68023193359375,0.18534374237060547,0.009929656982421875,-0.13408434391021729
1761370668225844200,5.69884423828125,0.0551300048828125,0.08387088775634766,-0.22282910346984863
1761370668244455200,5.717455078125,0.08356094360351562,0.13750505447387695,-0.18876439332962036
1761370668263067600,5.736067626953125,0.30293703079223633,0.010337352752685547,-0.03504997491836548
1761370668281678600,5.7546787109375,0.32687807083129883,-0.07182788848876953,0.16089797019958496
1761370668300291000,5.773291015625,0.22226238250732422,-0.08638381958007812,0.20679354667663574
1761370668318902000,5.791902099609375,-0.05379009246826172,-0.07806396484375,0.12059253454208374
1761370668337514200,5.81051416015625,-0.27391958236694336,-0.04277372360229492,-0.02080172300338745
1761370668356125200,5.829125244140625,-0.33935976028442383,-0.06181621551513672,-0.0205499529838562
1761370668374737700,5.847737548828125,-0.35790061950683594,-0.010186195373535156,0.07340598106384277
1761370668393348600,5.8663486328125,-0.4783058166503906,0.02550506591796875,0.2545135021209717
1761370668411960800,5.8849609375,-0.49208879470825195,-0.04767942428588867,0.3043578267097473
1761370668430571800,5.90357177734375,-0.27594518661499023,-0.1714038848876953,0.11549001932144165
1761370668449184300,5.922184326171875,0.07895660400390625,-0.12617778778076172,-0.01731729507446289
1761370668467795200,5.940795166015625,0.36571836471557617,0.01655864715576172,0.014222860336303711
1761370668486407400,5.959407470703125,0.6063284873962402,0.14162778854370117,0.07045131921768188
1761370668505018400,5.978018310546875,0.6026973724365234,0.1427164077758789,0.01412135362625122
1761370668523630800,5.996630859375,0.41193342208862305,-0.024147987365722656,-0.06548327207565308
1761370668542241800,6.01524169921875,0.18538522720336914,-0.1533336639404297,-0.1979581117630005
1761370668560854000,6.03385400390625,0.027051448822021484,-0.127349853515625,-0.10368311405181885
1761370668579465000,6.05246484375,-0.08461284637451172,-0.030227184295654297,0.11902356147766113
1761370668598077400,6.071077392578125,-0.2003188133239746,0.07021188735961914,0.1553117036819458
1761370668616688400,6.0896884765625,-0.327911376953125,0.06802940368652344,0.004652202129364014
1761370668635300900,6.10830078125,-0.2149524688720703,0.03191041946411133,-0.05556833744049072
1761370668653911600,6.12691162109375,-0.0495600700378418,-0.004149913787841797,0.01723778247833252
1761370668672524000,6.14552392578125,0.033971309661865234,-0.016458511352539062,0.03236359357833862
1761370668691135000,6.164135009765625,-0.0126800537109375,-0.026599884033203125,-0.01861894130706787
1761370668709747500,6.18274755859375,-0.0914907455444336,-0.035347938537597656,-0.04362612962722778
1761370668728358400,6.2013583984375,-0.18940973281860352,0.02207803726196289,0.03840512037277222
1761370668746970600,6.219970703125,-0.2098855972290039,0.0069866180419921875,0.07539874315261841
1761370668765581600,6.23858154296875,-0.036263465881347656,-0.03295326232910156,0.04065072536468506
1761370668784194000,6.257194091796875,0.20066308975219727,-0.021121501922607422,0.015863418579101562
1761370668802804700,6.2758046875,0.3146953582763672,0.024349212646484375,-0.008019447326660156
1761370668821417200,6.294417236328125,0.28338193893432617,0.033152103424072266,-0.08008986711502075
1761370668840028200,6.313028076171875,0.11984825134277344,-0.0067768096923828125,-0.18367618322372437
1761370668858640600,6.331640625,-0.07878398895263672,-0.006807804107666016,-0.23034685850143433
1761370668877251600,6.35025146484375,-0.1665191650390625,0.04525947570800781,-0.1659281849861145
1761370668895863800,6.36886376953125,-0.09069061279296875,0.06760120391845703,-0.020463228225708008
1761370668914474800,6.387474853515625,0.09088516235351562,0.024840831756591797,0.10220128297805786
1761370668933087200,6.406087158203125,0.15025711059570312,-0.03142213821411133,0.04151993989944458
1761370668951698200,6.4246982421875,0.03708171844482422,-0.042942047119140625,-0.06222015619277954
1761370668970310400,6.443310302734375,-0.09353017807006836,0.009114265441894531,-0.0966501235961914
1761370668988921300,6.46192138671875,-0.1793665885925293,0.04225730895996094,-0.1410267949104309
1761370669007533800,6.480533935546875,-0.1343235969543457,0.030200481414794922,-0.16444212198257446
1761370669026144800,6.499144775390625,-0.1441049575805664,-0.012376785278320312,-0.07032406330108643
1761370669044757000,6.517757080078125,-0.18178701400756836,-0.048555850982666016,-0.00870603322982788
1761370669063368000,6.536367919921875,-0.057328224182128906,-0.0018138885498046875,0.03724485635757446
1761370669081980400,6.55498046875,0.20029830932617188,0.026990890502929688,0.220583975315094
1761370669100591400,6.57359130859375,0.28856563568115234,0.0168304443359375,0.2699401378631592
1761370669119203800,6.592203857421875,0.17108964920043945,-0.0277099609375,0.1270601749420166
1761370669137814500,6.610814453125,-0.03709268569946289,-0.017196178436279297,-0.043369829654693604
1761370669156427000,6.629427001953125,-0.1680588722229004,0.00908041000366211,-0.05444139242172241
1761370669175038000,6.648037841796875,-0.19005632400512695,0.053132057189941406,0.008883416652679443
1761370669193650200,6.666650146484375,-0.15820837020874023,0.08832979202270508,0.055853426456451416
1761370669212261000,6.68526123046875,-0.14575576782226562,0.07692575454711914,0.08215534687042236
1761370669230873600,6.70387353515625,-0.15026521682739258,0.0916910171508789,0.08081060647964478
1761370669249484500,6.722484619140625,-0.018372058868408203,0.03044271469116211,0.07236307859420776
1761370669268096800,6.7410966796875,0.16155481338500977,-0.020855426788330078,0.06501781940460205
1761370669286707700,6.759707763671875,0.26041173934936523,-0.10714960098266602,0.13356685638427734
1761370669305320200,6.7783203125,0.18300342559814453,-0.03167724609375,0.056940555572509766
1761370669323931100,6.79693115234375,-0.026857852935791016,-0.0636606216430664,-0.052351176738739014
1761370669342543600,6.815543701171875,-0.03447389602661133,-0.0788431167602539,-0.11342185735702515
1761370669361154300,6.834154296875,0.05474710464477539,-0.017842769622802734,-0.05800032615661621
1761370669379766800,6.852766845703125,-0.04938173294067383,0.05368518829345703,0.02685236930847168
1761370669398377700,6.871377685546875,-0.21087169647216797,0.043593406677246094,-0.0471915602684021
1761370669416990000,6.889989990234375,-0.2260298728942871,0.04482746124267578,-0.1266399621963501
1761370669435601000,6.908600830078125,-0.0590667724609375,0.05804729461669922,-0.14319968223571777
1761370669454213400,6.92721337890625,0.1283574104309082,0.06340837478637695,-0.013162553310394287
1761370669472824300,6.94582421875,0.27802133560180664,0.004299163818359375,0.08336102962493896
1761370669491436800,6.964436767578125,0.1814274787902832,-0.0587310791015625,-0.012099146842956543
1761370669510047500,6.983047607421875,-0.07260942459106445,-0.0585942268371582,-0.1726132035255432
1761370669528660000,7.001659912109375,-0.12955856323242188,-0.029804229736328125,-0.20749139785766602
1761370669547271000,7.02027099609375,0.03177452087402344,0.040907859802246094,-0.07191270589828491
1761370669565883100,7.038883056640625,0.15451574325561523,0.07181596755981445,0.1252906322479248
1761370669584494000,7.057494140625,0.14064455032348633,-0.015145301818847656,0.06923878192901611
1761370669603106600,7.0761064453125,0.07838201522827148,-0.08015727996826172,-0.07510179281234741
1761370669621717500,7.094717529296875,-0.0318603515625,-0.07378435134887695,-0.11760276556015015
1761370669640329700,7.113329833984375,-0.08800458908081055,-0.024620532989501953,-0.20572882890701294
1761370669658940700,7.131940673828125,-0.078338623046875,0.013017654418945312,-0.21678227186203003
1761370669677553200,7.15055322265625,-0.06563520431518555,0.07786750793457031,-0.07881766557693481
1761370669696164000,7.1691640625,-0.08729171752929688,0.04100322723388672,0.05786532163619995
1761370669714776300,7.1877763671875,-0.15186691284179688,-0.023787498474121094,0.042926788330078125
1761370669733387300,7.20638720703125,-0.17724990844726562,-0.053648948669433594,0.010230004787445068
1761370669751999700,7.224999755859375,-0.22202348709106445,-0.05870389938354492,0.07361698150634766
1761370669770610700,7.243610595703125,-0.30148935317993164,-0.04064655303955078,0.21027666330337524
1761370669789223000,7.262222900390625,-0.2961101531982422,-0.046427249908447266,0.27474457025527954
1761370669807833900,7.280833740234375,-0.20769405364990234,-0.057460784912109375,0.2459697723388672
1761370669826446300,7.2994462890625,-0.1426529884338379,0.010907649993896484,0.045023202896118164
1761370669845057300,7.318057373046875,-0.12474203109741211,0.10639238357543945,-0.1698535680770874
1761370669863669500,7.33666943359375,0.06854248046875,0.19391345977783203,-0.15839260816574097
1761370669882280400,7.355280517578125,0.3317089080810547,0.17437505722045898,0.050459086894989014
1761370669900893000,7.373892822265625,0.46611738204956055,0.04100799560546875,0.04830366373062134
1761370669919503600,7.392503662109375,0.5227103233337402,-0.07822608947753906,-0.13252490758895874
1761370669938116000,7.4111162109375,0.5736489295959473,-0.09155845642089844,-0.16055262088775635
1761370669956727000,7.42972705078125,0.5349183082580566,0.005279541015625,0.011825978755950928
1761370669975339500,7.448339599609375,0.2423868179321289,0.05323982238769531,0.02497124671936035
1761370669993950200,7.4669501953125,-0.043094635009765625,0.07527875900268555,-0.07014042139053345
1761370670012562700,7.485562744140625,-0.1780695915222168,0.04183816909790039,0.0387076735496521
1761370670031173600,7.504173583984375,-0.28223323822021484,-0.07375955581665039,0.04421311616897583
1761370670049786000,7.5227861328125,-0.3057842254638672,-0.08286046981811523,-0.02992910146713257
1761370670068396800,7.541396728515625,-0.22789478302001953,-0.027166366577148438,0.008894026279449463
1761370670087009300,7.56000927734375,-0.07605695724487305,0.01927042007446289,0.12486141920089722
1761370670105620200,7.5786201171875,0.03755998611450195,-0.024739742279052734,0.14982032775878906
1761370670124232400,7.597232421875,0.034150123596191406,-0.04984760284423828,0.054782748222351074
1761370670142843400,7.615843505859375,-0.029789447784423828,-0.04128837585449219,-0.052140772342681885
1761370670161455900,7.634455810546875,-0.03826570510864258,-0.006950855255126953,-0.01290738582611084
1761370670180066800,7.65306689453125,-0.013943195343017578,0.016905784606933594,0.03922677040100098
1761370670198679000,7.671678955078125,-0.028589248657226562,0.05953693389892578,0.028329074382781982
1761370670217290000,7.6902900390625,-0.17774534225463867,0.06026411056518555,-0.03761714696884155
1761370670235902500,7.70890234375,-0.09186029434204102,0.011670589447021484,-0.0946226716041565
1761370670254513400,7.727513427734375,0.16168451309204102,-0.05012655258178711,-0.007997453212738037
1761370670273125600,7.746125732421875,0.24494552612304688,-0.0928349494934082,0.08501404523849487
1761370670291736600,7.764736572265625,0.11877679824829102,-0.09964227676391602,0.030913710594177246
1761370670310349000,7.78334912109375,-0.04235363006591797,-0.031716346740722656,-0.05799853801727295
1761370670328959700,7.801959716796875,-0.11505746841430664,0.013921260833740234,0.00965118408203125
1761370670347572200,7.820572265625,-0.11089801788330078,0.02718067169189453,0.06370311975479126
1761370670366183200,7.83918310546875,-0.0697016716003418,0.021384239196777344,0.006582736968994141
1761370670384795600,7.857795654296875,0.023023605346679688,0.021456241607666016,-0.0149688720703125
1761370670403406300,7.87640625,0.11147451400756836,0.01770782470703125,0.041800498962402344
1761370670422018800,7.895018798828125,0.12935113906860352,0.009753227233886719,0.1000511646270752
1761370670440629800,7.913629638671875,0.13220500946044922,-0.004310131072998047,0.09358716011047363
1761370670459242000,7.932241943359375,0.11161184310913086,0.0012335777282714844,0.06854617595672607
1761370670477853000,7.95085302734375,0.08228015899658203,0.016132354736328125,0.04780036211013794
1761370670496465400,7.96946533203125,0.01564311981201172,-0.04956626892089844,-0.0003548860549926758
1761370670515076000,7.988076171875,-0.10031843185424805,-0.050197601318359375,-0.00251084566116333
1761370670533688600,8.0066884765625,-0.27401113510131836,-0.008255958557128906,-0.04364907741546631
1761370670552299500,8.025299560546875,-0.32126522064208984,0.029808521270751953,-0.07547712326049805
1761370670570912000,8.043912109375,-0.21778249740600586,0.033597469329833984,-0.08105266094207764
1761370670589522700,8.062522705078125,-0.04019784927368164,0.01306009292602539,0.018439769744873047
1761370670608135200,8.08113525390625,0.11917686462402344,0.007918357849121094,0.07036334276199341
1761370670626746000,8.09974609375,0.17183685302734375,-0.0003781318664550781,0.13010025024414062
1761370670645358300,8.1183583984375,0.10297870635986328,-0.05138111114501953,0.12222927808761597
1761370670663969300,8.13696923828125,0.10506200790405273,-0.03586101531982422,0.07306039333343506
1761370670682581800,8.155581787109375,0.15137577056884766,0.026229381561279297,0.12523996829986572
1761370670701192700,8.174192626953126,0.15944623947143555,-0.03146791458129883,0.1991938352584839
1761370670719805000,8.192804931640625,0.02349710464477539,-0.06451940536499023,0.012489259243011475
1761370670738415900,8.211415771484376,-0.07843971252441406,-0.02967214584350586,-0.10456830263137817
1761370670757028400,8.2300283203125,-0.13707828521728516,0.031149864196777344,-0.04517453908920288
1761370670775639000,8.24863916015625,-0.22268390655517578,0.03390169143676758,-0.028798341751098633
1761370670794251500,8.26725146484375,-0.23284626007080078,0.03645038604736328,-0.13248181343078613
1761370670812862500,8.285862548828124,-0.0625457763671875,0.07554817199707031,-0.08370888233184814
1761370670831474700,8.304474609375,0.11313295364379883,0.04350471496582031,0.05009335279464722
1761370670850085600,8.323085693359374,0.17488431930541992,-0.0024199485778808594,0.002540290355682373
1761370670868698000,8.341697998046875,0.1066584587097168,-0.04700899124145508,0.03260481357574463
1761370670887309000,8.36030908203125,-0.03620624542236328,-0.057485103607177734,-0.052689313888549805
1761370670905921300,8.37892138671875,-0.1208338737487793,-0.013209342956542969,-0.12379688024520874
1761370670924532200,8.3975322265625,-0.09116411209106445,0.0016570091247558594,-0.0065076351165771484
1761370670943144700,8.416144775390626,0.09130096435546875,0.02993488311767578,0.07440894842147827
1761370670961755600,8.434755615234375,0.24120140075683594,-0.023136615753173828,0.09993505477905273
1761370670980368000,8.453367919921876,0.22965717315673828,0.007431507110595703,0.06753534078598022
1761370670998978800,8.471978759765625,0.08992290496826172,0.0026407241821289062,0.0866929292678833
1761370671017591300,8.49059130859375,-0.07167196273803711,-0.03169059753417969,-0.048111140727996826
1761370671036202000,8.509201904296875,-0.12334823608398438,-0.010691165924072266,-0.11577212810516357
1761370671054814500,8.527814453125,-0.12493181228637695,-0.002266407012939453,-0.06630545854568481
1761370671073425400,8.54642529296875,-0.17125415802001953,0.012781620025634766,-0.04408597946166992
1761370671092037600,8.56503759765625,-0.13379764556884766,-0.010576725006103516,-0.027462124824523926
1761370671110648600,8.583648681640625,-0.008555889129638672,-0.01714324951171875,0.005251407623291016
1761370671129261000,8.602260986328124,0.025514602661132812,-0.004570484161376953,0.04719477891921997
1761370671147872000,8.6208720703125,-0.04590797424316406,0.007256031036376953,0.03508460521697998
1761370671166484200,8.639484130859374,-0.08368825912475586,0.003574371337890625,0.020810961723327637
1761370671185095200,8.65809521484375,-0.00722503662109375,-0.000682830810546875,-0.01717245578765869
1761370671203707600,8.676707763671875,0.11178159713745117,-0.010272502899169922,-0.009937047958374023
1761370671222318300,8.695318359375,0.07953310012817383,0.015483856201171875,0.06238210201263428
1761370671240930800,8.713930908203125,-0.05678749084472656,0.01042938232421875,0.13483351469039917
1761370671259541800,8.732541748046875,-0.09785079956054688,-0.017711162567138672,0.13880085945129395
1761370671278154200,8.751154296875,-0.06056642532348633,-0.033974647521972656,0.1477108597755432
1761370671296765000,8.769764892578126,-0.034739017486572266,-0.04417562484741211,0.1359274983406067
1761370671315377400,8.78837744140625,-0.0027379989624023438,0.0069026947021484375,0.08250880241394043
1761370671333988400,8.80698828125,0.013946533203125,0.08149194717407227,0.06318044662475586
1761370671352600600,8.8256005859375,0.0020732879638671875,0.06763553619384766,-0.06000405550003052
1761370671371211500,8.84421142578125,0.04065895080566406,0.04883384704589844,-0.18726080656051636
1761370671389824000,8.862823974609375,0.09616994857788086,0.06197023391723633,-0.14848655462265015
1761370671408434700,8.8814345703125,0.1313929557800293,0.042227745056152344,-0.10541379451751709
1761370671427047200,8.900047119140625,0.20258855819702148,0.00302886962890625,-0.07351839542388916
1761370671445658000,8.918658203125,0.1493220329284668,-0.04093122482299805,-0.05759787559509277
1761370671464270600,8.9372705078125,-0.024971961975097656,-0.036841392517089844,-0.07895255088806152
1761370671482881300,8.95588134765625,-0.11295747756958008,-0.027392864227294922,-0.0185125470161438
1761370671501493800,8.97449365234375,-0.09626340866088867,0.0037689208984375,0.018251776695251465
1761370671520104700,8.993104736328124,0.02476978302001953,-0.017435550689697266,0.10969054698944092
1761370671538717000,9.011717041015626,0.12242794036865234,-0.05135202407836914,0.11317503452301025
1761370671557328000,9.030327880859375,0.07025527954101562,-0.049121856689453125,0.041079819202423096
1761370671575940400,9.0489404296875,-0.0711202621459961,-0.03041362762451172,-0.035959720611572266
1761370671594551300,9.06755126953125,-0.18500566482543945,0.022792816162109375,-0.0452614426612854
1761370671613163500,9.08616357421875,-0.26342058181762695,0.0321660041809082,-0.07010197639465332
1761370671631774500,9.1047744140625,-0.22987794876098633,0.006050586700439453,-0.05174851417541504
1761370671650387000,9.123386962890624,-0.06468772888183594,-0.0030965805053710938,-0.07574522495269775
1761370671668998000,9.141997802734375,0.08666658401489258,0.005689144134521484,-0.04000157117843628
1761370671687610000,9.160610107421874,0.1775517463684082,-0.018975257873535156,-0.023152291774749756
1761370671706221000,9.179220947265625,0.09326982498168945,-0.014852046966552734,-0.07627302408218384
1761370671724833500,9.19783349609375,-0.06281042098999023,0.05217266082763672,-0.046476125717163086
1761370671743444200,9.2164443359375,-0.10884857177734375,0.06334638595581055,0.00026428699493408203
1761370671762056700,9.235056640625,-0.010885238647460938,0.017908096313476562,-0.020056068897247314
1761370671780667600,9.253667724609375,0.0767979621887207,0.022533416748046875,0.012476742267608643
1761370671799279900,9.27227978515625,0.13048028945922852,0.03470802307128906,0.0635116696357727
1761370671817890800,9.290890869140625,0.10704898834228516,0.014797210693359375,-0.02463245391845703
1761370671836503300,9.30950341796875,0.05806732177734375,0.031951904296875,-0.06696063280105591
1761370671855114200,9.3281142578125,0.09394168853759766,0.019174575805664062,-0.008545756340026855
1761370671873726500,9.3467265625,0.10767984390258789,-0.020850658416748047,-0.02948099374771118
1761370671892337400,9.36533740234375,0.05602407455444336,-0.010508537292480469,0.029537439346313477
1761370671910950000,9.383949951171875,-0.06814765930175781,-0.024652481079101562,0.05739450454711914
1761370671929560600,9.402560546875,-0.2562384605407715,-0.06388616561889648,0.008508443832397461
1761370671948173000,9.421173095703125,-0.3789820671081543,-0.04715108871459961,-0.09633934497833252
1761370671966784000,9.439783935546876,-0.27214622497558594,0.011655807495117188,-0.026770055294036865
1761370671985396500,9.458396484375,-0.06874227523803711,0.029713153839111328,0.15064316987991333
1761370672004007200,9.477007080078126,-0.012585639953613281,-0.029816150665283203,0.09414613246917725
1761370672022619600,9.49561962890625,-0.13840246200561523,0.006038665771484375,0.09860241413116455
1761370672041230600,9.514230712890624,-0.12100744247436523,-0.0409393310546875,0.14340049028396606
1761370672059842800,9.5328427734375,-0.057704925537109375,-0.039517879486083984,0.0191078782081604
1761370672078453800,9.551453857421874,0.05464792251586914,0.04391622543334961,-0.11237674951553345
1761370672097066200,9.570066162109375,0.20169973373413086,0.05172586441040039,-0.12378799915313721
1761370672115677000,9.588677001953124,0.3246603012084961,0.03351736068725586,-0.2049877643585205
1761370672134289400,9.607289306640626,0.4115142822265625,0.08451080322265625,-0.19784533977508545
1761370672152900400,9.625900390625,0.42099761962890625,0.05932426452636719,-0.05774420499801636
1761370672171512800,9.644512939453126,0.3340144157409668,0.010820388793945312,-0.13120758533477783
1761370672190123500,9.66312353515625,0.09270524978637695,-0.015096187591552734,-0.1612095832824707
1761370672208736000,9.681736083984376,0.005400180816650391,0.00840616226196289,-0.0059770941734313965
1761370672227347000,9.700346923828125,0.007052898406982422,0.009304046630859375,0.16638195514678955
1761370672245959200,9.718959228515626,-0.11537408828735352,-0.021472930908203125,0.09261548519134521
1761370672264570000,9.737570068359375,-0.28632307052612305,-0.043701171875,0.03380793333053589
1761370672283182600,9.7561826171875,-0.34243059158325195,-0.0014638900756835938,0.11354881525039673
1761370672301793300,9.774793212890625,-0.2338085174560547,-0.005867958068847656,0.1969040036201477
1761370672320405800,9.79340576171875,-0.08919715881347656,-0.034389495849609375,0.2596125602722168
1761370672339016700,9.8120166015625,-0.03440046310424805,-0.05417299270629883,0.090290367603302
1761370672357629200,9.830629150390624,0.008845806121826172,-0.03771400451660156,0.002571702003479004
1761370672376239900,9.849239990234375,0.07428216934204102,0.012943744659423828,0.017974436283111572
1761370672394852400,9.867852294921875,0.13683605194091797,0.02047443389892578,0.08147823810577393
1761370672413463300,9.88646337890625,0.12202644348144531,-0.034949302673339844,0.04983323812484741
1761370672432075500,9.905075439453125,-0.005745887756347656,-0.04683637619018555,-0.06202298402786255
1761370672450686500,9.9236865234375,-0.09331560134887695,-0.059529781341552734,-0.056438565254211426
1761370672469299000,9.942298828125,-0.14795398712158203,-0.029584884643554688,-0.05657196044921875
1761370672487910000,9.960909912109376,-0.1669158935546875,0.02527618408203125,0.0349918007850647
1761370672506522000,9.979522216796875,-0.09674453735351562,0.0056095123291015625,0.04374372959136963
1761370672525133000,9.998133056640626,0.0028400421142578125,-0.057317256927490234,-0.05193430185317993
1761370672543745300,10.016745361328125,0.0563359260559082,-0.016308307647705078,-0.11406910419464111
1761370672562356200,10.035356201171876,0.034432411193847656,0.02649402618408203,-0.06210857629776001
1761370672580968700,10.05396875,-0.000035762786865234375,0.021064281463623047,-0.072451651096344
1761370672599579600,10.07257958984375,0.09715938568115234,-0.05623817443847656,-0.09386873245239258
1761370672618192000,10.09119189453125,0.05917215347290039,0.01711130142211914,-0.04511314630508423
1761370672636802800,10.109802734375,-0.06208038330078125,-0.016541004180908203,0.050072431564331055
1761370672655415300,10.128415283203125,-0.15744352340698242,0.0005617141723632812,0.07440745830535889
1761370672674026000,10.14702587890625,-0.1407604217529297,0.010605335235595703,0.1131974458694458
1761370672692638500,10.165638427734375,-0.10539484024047852,0.023501873016357422,0.18687963485717773
1761370672711249400,10.18424951171875,-0.09167289733886719,0.037514686584472656,0.2142021656036377
1761370672729861600,10.202861572265626,-0.05852937698364258,-0.0016455650329589844,0.13801735639572144
1761370672748472600,10.22147265625,-0.008313655853271484,-0.015399456024169922,0.024674415588378906
1761370672767085000,10.2400849609375,0.06180524826049805,0.03859090805053711,0.002934873104095459
1761370672785696000,10.258696044921875,0.1356501579284668,0.06624698638916016,-0.05238819122314453
1761370672804308200,10.27730810546875,0.22554397583007812,0.04009580612182617,-0.08476340770721436
1761370672822919200,10.295919189453125,0.3218369483947754,-0.026334285736083984,-0.10530436038970947
1761370672841531600,10.31453173828125,0.36510705947875977,-0.03993558883666992,-0.06327712535858154
1761370672860142300,10.333142333984375,0.24383878707885742,-0.0244903564453125,-0.02771472930908203
1761370672878754800,10.3517548828125,0.1320648193359375,0.04885721206665039,-0.05156677961349487
1761370672897365800,10.37036572265625,0.11058473587036133,0.0756978988647461,0.012346625328063965
1761370672915978000,10.38897802734375,0.051966190338134766,0.039263248443603516,0.004691481590270996
1761370672934589000,10.4075888671875,-0.013335227966308594,-0.05453634262084961,-0.03374767303466797
1761370672953201400,10.426201416015624,-0.04558897018432617,-0.0821986198425293,-0.016790330410003662
1761370672971812000,10.44481201171875,-0.06790494918823242,-0.04329490661621094,-0.06210535764694214
1761370672990424600,10.463424560546875,-0.13183355331420898,0.02895355224609375,0.03291374444961548
1761370673009035500,10.482035400390625,-0.16887998580932617,0.07826948165893555,0.08302772045135498
1761370673027647700,10.500647705078125,-0.19175100326538086,0.02839374542236328,0.04465609788894653
1761370673046258700,10.5192587890625,-0.13700008392333984,-0.04762983322143555,0.012015163898468018
1761370673064871200,10.53787109375,-0.014886856079101562,-0.076324462890625,0.0883898138999939
1761370673083482000,10.556482177734376,0.015140533447265625,-0.058499813079833984,0.1644977331161499
1761370673102094300,10.57509423828125,0.02153158187866211,-0.02064657211303711,0.06392139196395874
1761370673120705300,10.593705322265626,0.1200714111328125,0.019827842712402344,0.03348076343536377
1761370673139317500,10.6123173828125,0.11681938171386719,0.06178426742553711,0.05527937412261963
1761370673157928400,10.630928466796876,0.045430660247802734,-0.016001224517822266,0.11971187591552734
1761370673176541000,10.649541015625,-0.04169130325317383,-0.08241415023803711,0.05746603012084961
1761370673195151600,10.668151611328126,-0.13517236709594727,-0.08153390884399414,-0.07873600721359253
1761370673213764000,10.68676416015625,-0.1871013641357422,-0.05243349075317383,-0.006077706813812256
1761370673232375000,10.705375,-0.21993160247802734,0.022287368774414062,0.15302318334579468
1761370673250987500,10.723987548828125,-0.29192638397216797,-0.0374903678894043,0.22413480281829834
1761370673269598200,10.74259814453125,-0.2944040298461914,-0.03876924514770508,0.02003622055053711
1761370673288210700,10.761210693359375,-0.23496770858764648,-0.02162313461303711,-0.13757306337356567
1761370673306821600,10.779821533203124,-0.16966533660888672,0.08313369750976562,-0.032507896423339844
1761370673325433900,10.798433837890625,-0.11851215362548828,0.029368877410888672,-0.11008566617965698
1761370673344044800,10.817044921875,0.1224970817565918,0.07064247131347656,-0.1724291443824768
1761370673362657300,10.8356572265625,0.3880147933959961,0.06037616729736328,0.012722671031951904
1761370673381268000,10.85426806640625,0.47049951553344727,0.0380096435546875,-0.05825376510620117
1761370673399880400,10.87288037109375,0.3170905113220215,-0.026288509368896484,-0.1766747236251831
1761370673418491400,10.891491455078125,0.16524171829223633,-0.04400777816772461,-0.180056631565094
1761370673437103600,10.910103515625,0.13618183135986328,-0.04262495040893555,-0.04820847511291504
