time,seconds_elapsed,z,y,x
1761311795128876500,0.19087646484375,2.053974151611328,3.8029961585998535,-3.267258405685425
1761311795147489000,0.209489013671875,4.207406044006348,4.216806888580322,-2.642825126647949
1761311795166103000,0.22810302734375,6.1869401931762695,3.510911464691162,-1.3777945041656494
1761311795184715800,0.2467158203125,6.5701003074646,3.0533857345581055,-1.3379755020141602
1761311795203329800,0.265329833984375,4.4727396965026855,3.1917896270751953,-1.2488343715667725
1761311795221942300,0.2839423828125,1.6862459182739258,3.9764795303344727,-1.1617207527160645
1761311795240556300,0.302556396484375,0.18849992752075195,4.039392471313477,-0.8216333389282227
1761311795259168800,0.321168701171875,-0.5205745697021484,3.0037460327148438,-0.1885051727294922
1761311795277782800,0.33978271484375,-1.2816219329833984,1.8265256881713867,0.25399112701416016
1761311795296395500,0.3583955078125,-1.7886862754821777,0.8336195945739746,1.061666488647461
1761311795315009500,0.377009521484375,-2.0368480682373047,0.1708226203918457,1.5976507663726807
1761311795333622000,0.3956220703125,-2.4956398010253906,-0.5178699493408203,2.077157974243164
1761311795352236000,0.414236083984375,-3.090506076812744,-1.2070684432983398,2.521958827972412
1761311795370848500,0.4328486328125,-3.6138529777526855,-1.657972812652588,2.7509350776672363
1761311795389462500,0.451462646484375,-4.002276420593262,-1.7696504592895508,2.5599875450134277
1761311795408075300,0.4700751953125,-3.6801958084106445,-1.5048191547393799,1.923298954963684
1761311795426689300,0.488689208984375,-3.264321804046631,-1.3005666732788086,1.4925131797790527
1761311795445301800,0.5073017578125,-3.22454833984375,-1.4473485946655273,1.1712851524353027
1761311795463915800,0.525915771484375,-3.2794761657714844,-1.619544267654419,0.8051412105560303
1761311795482528300,0.5445283203125,-3.3434062004089355,-1.9959895610809326,0.5192495584487915
1761311795501142300,0.563142333984375,-3.2885208129882812,-2.382847547531128,0.4431267976760864
1761311795519755000,0.581755126953125,-3.5573067665100098,-2.7560155391693115,0.6556261777877808
1761311795538369000,0.600369140625,-3.7627835273742676,-2.654569387435913,0.6337176561355591
1761311795556981500,0.6189814453125,-3.68641996383667,-2.1553211212158203,0.5021982192993164
1761311795575595500,0.637595458984375,-3.3732962608337402,-1.817823886871338,0.6060341596603394
1761311795594208000,0.6562080078125,-2.7177953720092773,-1.2169179916381836,0.4728015661239624
1761311795612822000,0.674822021484375,-1.322974681854248,-0.19829511642456055,0.5519528388977051
1761311795631434800,0.693434814453125,0.45290613174438477,0.6551904678344727,1.2574248313903809
1761311795650048800,0.712048828125,1.7250428199768066,1.023125171661377,1.3706691265106201
1761311795668661200,0.7306611328125,2.358469009399414,1.0597820281982422,0.46077287197113037
1761311795687275300,0.749275146484375,2.5904173851013184,1.2095279693603516,-0.7214692831039429
1761311795705887700,0.7678876953125,3.2534780502319336,1.9236435890197754,-1.8630099296569824
1761311795724502000,0.786501953125,3.9458560943603516,2.140988349914551,-2.373706817626953
1761311795743114500,0.805114501953125,4.057361602783203,2.044861316680908,-2.4605889320373535
1761311795761728500,0.823728515625,3.4933481216430664,2.210298538208008,-2.5206429958343506
1761311795780341000,0.842341064453125,2.762234687805176,2.182718276977539,-1.94287109375
1761311795798955000,0.860955078125,1.704935073852539,1.3231229782104492,-0.8115888833999634
1761311795817567700,0.879567626953125,0.4557218551635742,0.09494638442993164,0.07636332511901855
1761311795836181800,0.898181640625,-0.5411396026611328,-0.5001735687255859,0.8159079551696777
1761311795854793000,0.91679296875,-1.2905068397521973,0.1373758316040039,1.9585530757904053
1761311795873407000,0.935406982421875,-1.1930842399597168,0.9216766357421875,2.1891140937805176
1761311795892019700,0.954019775390625,-0.1626129150390625,0.7596659660339355,2.2280898094177246
1761311795910633700,0.9726337890625,0.17412948608398438,0.3229670524597168,1.9335434436798096
1761311795929246200,0.99124609375,-0.40746402740478516,0.36998462677001953,0.6854579448699951
1761311795947860200,1.009860107421875,-1.5946836471557617,0.9146106243133545,-1.0133048295974731
1761311795966472700,1.02847265625,-2.9063315391540527,1.5655765533447266,-2.4389243125915527
1761311795985087000,1.0470869140625,-3.8664584159851074,1.6836535930633545,-2.660329580307007
1761311796003699500,1.065699462890625,-3.9995017051696777,1.4595282077789307,-2.141376495361328
1761311796022313500,1.0843134765625,-3.486422538757324,1.2965219020843506,-1.379393219947815
1761311796040926000,1.102926025390625,-2.651913642883301,1.225651502609253,-0.7922953367233276
1761311796059540000,1.1215400390625,-1.765608787536621,0.9873440265655518,-0.15702438354492188
1761311796078152700,1.140152587890625,-1.2112131118774414,0.6418168544769287,0.7048203945159912
1761311796096766700,1.1587666015625,-0.8040857315063477,0.23439335823059082,1.3480441570281982
1761311796115379200,1.177379150390625,-0.3312225341796875,0.19582200050354004,1.100303053855896
1761311796133993200,1.1959931640625,0.4775581359863281,0.5486316680908203,1.2995054721832275
1761311796152605700,1.214605712890625,1.7594013214111328,1.1016912460327148,1.9800968170166016
1761311796171220000,1.233219970703125,3.8120508193969727,1.8416705131530762,1.559955358505249
1761311796189832400,1.25183251953125,5.746865272521973,2.2007665634155273,0.8643819689750671
1761311796208446500,1.270446533203125,8.161500930786133,2.2222471237182617,1.4020193815231323
1761311796227059000,1.289058837890625,11.45798110961914,1.1949257850646973,1.984090805053711
1761311796245673000,1.3076728515625,12.469435691833496,-0.7258844375610352,2.321906089782715
1761311796264285700,1.32628564453125,10.36369514465332,-0.5867147445678711,1.6284289360046387
1761311796282899700,1.344899658203125,7.3742523193359375,0.9947061538696289,0.23655802011489868
1761311796301512200,1.36351220703125,4.8106584548950195,1.4131741523742676,-0.7682979106903076
1761311796320126200,1.382126220703125,2.3807334899902344,0.47356367111206055,-0.5280746221542358
1761311796338738700,1.40073876953125,0.16733932495117188,0.25006914138793945,-0.9742345809936523
1761311796357352700,1.419352783203125,-1.934706687927246,0.19101285934448242,-1.2805677652359009
1761311796375965400,1.43796533203125,-4.044887542724609,0.13928461074829102,-0.9221079349517822
1761311796394579500,1.456579345703125,-5.5021257400512695,-0.48485422134399414,-0.6630052328109741
1761311796413192000,1.47519189453125,-5.833390235900879,-1.2089052200317383,-0.3615812063217163
1761311796431806000,1.493805908203125,-5.4031877517700195,-1.7928440570831299,0.05165672302246094
1761311796450418400,1.51241845703125,-5.009283542633057,-2.614561080932617,0.5570505857467651
1761311796469032700,1.53103271484375,-4.6817402839660645,-2.984164237976074,0.795674204826355
1761311796487645200,1.549645263671875,-4.850692272186279,-2.6156084537506104,0.2958347797393799
1761311796506259200,1.56825927734375,-5.729223251342773,-2.071742057800293,-0.21132206916809082
1761311796524871700,1.58687158203125,-6.271757125854492,-1.174556016921997,-1.2261489629745483
1761311796543486000,1.60548583984375,-5.920180320739746,-0.7616970539093018,-1.8485411405563354
1761311796562098400,1.624098388671875,-5.733771324157715,-1.4027907848358154,-0.9549763202667236
1761311796580712400,1.64271240234375,-5.928606033325195,-1.857142448425293,0.07303547859191895
1761311796599325000,1.661324951171875,-5.730081558227539,-2.19400954246521,0.49216318130493164
1761311796617939000,1.67993896484375,-5.053369522094727,-2.187650203704834,0.6545135974884033
1761311796636551700,1.6985517578125,-4.21525239944458,-2.140453338623047,0.8358602523803711
1761311796655165700,1.717165771484375,-3.5186243057250977,-1.7245473861694336,1.074938416481018
1761311796673778200,1.735778076171875,-2.8676347732543945,-1.4474475383758545,1.6326055526733398
1761311796692392200,1.75439208984375,-1.1941213607788086,-1.0451087951660156,1.9302384853363037
1761311796711004700,1.773004638671875,0.3647480010986328,-0.8716254234313965,2.0999293327331543
1761311796729618700,1.79161865234375,0.36843156814575195,-0.46932315826416016,2.4346444606781006
1761311796748231400,1.8102314453125,-0.039374351501464844,0.4548473358154297,1.0218936204910278
1761311796766845400,1.828845458984375,0.14708375930786133,1.4339075088500977,-1.8114402294158936
1761311796785458000,1.8474580078125,1.6247467994689941,2.4738898277282715,-3.9362235069274902
1761311796804072000,1.866072021484375,4.15067195892334,4.8811492919921875,-4.451457977294922
1761311796822684400,1.884684326171875,7.462305545806885,5.866393089294434,-1.8581535816192627
1761311796841298700,1.903298583984375,11.15445327758789,5.571564197540283,1.0112323760986328
1761311796859911200,1.9219111328125,14.556648254394531,4.11034631729126,2.0021162033081055
1761311796878525200,1.940525146484375,16.054798126220703,2.7448883056640625,1.519829273223877
1761311796897137700,1.9591376953125,14.614337921142578,2.8223752975463867,0.2958672046661377
1761311796915751700,1.977751708984375,9.71884822845459,2.8698058128356934,-0.6809077262878418
1761311796934364400,1.996364501953125,3.388249397277832,2.7572712898254395,-1.420791745185852
1761311796952978400,2.014978515625,-2.088411331176758,1.6843390464782715,-1.3683429956436157
1761311796971591000,2.0335908203125,-4.874765872955322,0.7716507911682129,-1.110657811164856
1761311796990205000,2.052204833984375,-5.474186420440674,0.20663928985595703,-0.8132450580596924
1761311797008817400,2.0708173828125,-5.128357410430908,-0.0994253158569336,-0.7660913467407227
1761311797027431700,2.089431640625,-4.215207576751709,0.03979611396789551,-1.2346057891845703
1761311797046044200,2.108044189453125,-3.649198055267334,-0.28066563606262207,-1.3813567161560059
1761311797064658200,2.126658203125,-4.5127763748168945,-1.1656394004821777,-0.8574481010437012
1761311797083270700,2.145270751953125,-5.356286525726318,-1.1006935834884644,-0.9899392127990723
1761311797101884700,2.163884765625,-5.605123043060303,-1.1940624713897705,-1.012047529220581
1761311797120497400,2.182497314453125,-5.641559600830078,-1.2055997848510742,-0.7038064002990723
1761311797139111400,2.201111328125,-5.76030158996582,-0.9956114292144775,-0.2044709324836731
1761311797157724000,2.219723876953125,-6.366456985473633,-1.085747241973877,0.2720978856086731
1761311797176338000,2.238337890625,-6.820807456970215,-1.6265254020690918,0.4695809483528137
1761311797194950400,2.256950439453125,-7.1959919929504395,-2.231786012649536,0.8203554153442383
1761311797213564400,2.275564453125,-7.583122253417969,-2.2259867191314697,1.701442003250122
1761311797232177200,2.29417724609375,-7.209167003631592,-1.834456443786621,1.9146161079406738
1761311797250791200,2.312791259765625,-5.209165573120117,-1.3803110122680664,1.0487496852874756
1761311797269403600,2.331403564453125,-2.9322543144226074,-0.65395188331604,-0.04162299633026123
1761311797288017700,2.350017578125,-1.584914207458496,-0.6964969635009766,-0.17354440689086914
1761311797306630100,2.368630126953125,2.252394676208496,-0.18495702743530273,-0.06995689868927002
1761311797325244400,2.387244384765625,5.679569244384766,-0.4432487487792969,1.503514051437378
1761311797343857000,2.40585693359375,7.706138610839844,0.23637914657592773,1.7691123485565186
1761311797362471000,2.424470947265625,7.331094741821289,1.5357213020324707,0.10866701602935791
1761311797381083400,2.44308349609375,6.805957794189453,2.9918556213378906,-1.8354123830795288
1761311797399697400,2.461697509765625,7.14863395690918,3.9233169555664062,-3.3856120109558105
1761311797418310100,2.48031005859375,8.381327629089355,4.2056498527526855,-3.5752503871917725
1761311797436924200,2.498924072265625,9.57136344909668,4.438096523284912,-3.083141326904297
1761311797455536600,2.51753662109375,8.812701225280762,3.976761817932129,-1.1888996362686157
1761311797474150700,2.536150634765625,5.380956649780273,3.5440330505371094,1.1288948059082031
1761311797492763100,2.55476318359375,2.083192825317383,3.3431220054626465,3.3805665969848633
1761311797511377400,2.57337744140625,-0.05329322814941406,2.2009785175323486,4.334356784820557
1761311797529990000,2.591989990234375,-1.3383245468139648,0.4921729564666748,3.317660331726074
1761311797548604000,2.61060400390625,-1.322739601135254,-0.36098599433898926,1.3018546104431152
1761311797567216400,2.62921630859375,-1.143136978149414,-0.7621965408325195,0.17374831438064575
1761311797585830400,2.647830322265625,-2.334408760070801,-0.8861277103424072,-0.336602121591568
1761311797604443000,2.66644287109375,-4.773172855377197,-0.8039236068725586,-0.8211016058921814
1761311797623057200,2.68505712890625,-6.854187965393066,-0.2196943759918213,-1.2499690055847168
1761311797641669600,2.703669677734375,-7.889824867248535,-0.03289437294006348,-1.666982889175415
1761311797660283600,2.72228369140625,-7.7751240730285645,-0.14816641807556152,-1.137223720550537
1761311797678896000,2.740896240234375,-7.037110328674316,-0.6399669647216797,-1.2613615989685059
1761311797697510100,2.75951025390625,-6.342938423156738,-0.5325899124145508,-1.9175372123718262
1761311797716123000,2.778122802734375,-5.844028472900391,-0.7289087772369385,-2.1809396743774414
1761311797734737000,2.79673681640625,-5.626786231994629,-1.3166533708572388,-2.118821144104004
1761311797753349400,2.815349365234375,-5.274765968322754,-1.85310697555542,-1.934157133102417
1761311797771963400,2.83396337890625,-4.4116082191467285,-1.6971278190612793,-1.9700927734375
1761311797790575900,2.852575927734375,-3.36952543258667,-1.131680965423584,-1.5707955360412598
1761311797809190000,2.87118994140625,-3.0303759574890137,-1.8579034805297852,0.7752800583839417
1761311797827802600,2.889802734375,-2.210331916809082,-2.414299964904785,1.127135992050171
1761311797846416600,2.908416748046875,-1.5841703414916992,-2.114222526550293,0.3647574484348297
1761311797865029000,2.927029052734375,-1.6912007331848145,-1.082017183303833,0.38314640522003174
1761311797883643100,2.94564306640625,-1.588820457458496,0.08768320083618164,0.20641255378723145
1761311797902255600,2.964255615234375,-0.2432565689086914,1.0078558921813965,-0.6911599636077881
1761311797920869600,2.98286962890625,4.611510276794434,1.9681711196899414,-1.2827736139297485
1761311797939482400,3.001482421875,8.82399845123291,1.0251851081848145,-0.8024311065673828
1761311797958096400,3.020096435546875,10.393041610717773,-0.5401580333709717,-0.5151587724685669
1761311797976708900,3.038708984375,11.279829978942871,-1.1653563976287842,0.03182998299598694
1761311797995323000,3.057322998046875,11.355716705322266,1.1257126331329346,-2.1070234775543213
1761311798013935400,3.075935302734375,8.564652442932129,1.434648036956787,-1.7822201251983643
1761311798032549600,3.094549560546875,6.261346817016602,1.8971922397613525,-1.6740503311157227
1761311798051162000,3.113162109375,4.506182670593262,1.8924951553344727,-1.5168249607086182
1761311798069776100,3.131776123046875,2.8019628524780273,1.4206061363220215,0.34862181544303894
1761311798088388600,3.150388671875,0.3439521789550781,0.7756437063217163,2.287717819213867
1761311798107002600,3.169002685546875,0.3453216552734375,0.8398194313049316,3.6284332275390625
1761311798125615400,3.187615478515625,0.9766740798950195,0.893278956413269,4.517923355102539
1761311798144229400,3.2062294921875,0.5234756469726562,1.3294012546539307,3.6600468158721924
1761311798162841900,3.224841796875,-1.0521173477172852,1.8123736381530762,1.6634867191314697
1761311798181456000,3.243455810546875,-1.7615890502929688,2.840264320373535,-0.8398936986923218
1761311798200068400,3.262068359375,-2.000703811645508,3.0583436489105225,-1.9909344911575317
1761311798218682400,3.280682373046875,-2.5921144485473633,2.8832473754882812,-2.3128745555877686
1761311798237295000,3.299295166015625,-3.7819457054138184,2.3366355895996094,-1.9466938972473145
1761311798255909000,3.3179091796875,-5.516723155975342,1.5538396835327148,-1.2723058462142944
1761311798274521600,3.336521484375,-6.927943706512451,0.882376492023468,-0.9826977849006653
1761311798293135600,3.355135498046875,-7.82014274597168,0.5832102298736572,-0.9070197343826294
1761311798311748000,3.373748046875,-8.299854278564453,0.4260157346725464,-0.5001919269561768
1761311798330362400,3.3923623046875,-7.8850483894348145,0.14973604679107666,-0.564153790473938
1761311798348974800,3.410974853515625,-6.864998817443848,0.06628990173339844,-0.6522313952445984
1761311798367588900,3.4295888671875,-6.109877586364746,-0.15022552013397217,-0.8230545520782471
1761311798386201300,3.448201416015625,-5.143657207489014,-0.1292816400527954,-1.4985129833221436
1761311798404815400,3.4668154296875,-4.474997043609619,-0.34876108169555664,-2.4364428520202637
1761311798423427800,3.485427734375,-2.862163543701172,-0.30997538566589355,-2.2199673652648926
1761311798442042000,3.5040419921875,1.5047607421875,-0.2953784465789795,-0.08542418479919434
1761311798460654600,3.522654541015625,5.8173065185546875,-1.003868579864502,3.160212755203247
1761311798479268600,3.5412685546875,8.53998851776123,-2.8328115940093994,6.982540607452393
1761311798497881000,3.559881103515625,11.16968822479248,-2.344259262084961,6.290319442749023
1761311798516495000,3.5784951171875,13.228438377380371,-1.253382921218872,4.051540374755859
1761311798535107800,3.59710791015625,14.34822940826416,-0.8639242649078369,2.4908838272094727
1761311798553721900,3.615721923828125,13.082520484924316,-0.1868840456008911,2.221558094024658
1761311798572334300,3.634334228515625,10.592652320861816,1.2306280136108398,2.5132131576538086
1761311798590948400,3.6529482421875,6.960489273071289,2.4621076583862305,2.89849591255188
1761311798609560800,3.671560791015625,3.5220155715942383,2.9938924312591553,3.494030237197876
1761311798628174800,3.6901748046875,1.0702705383300781,3.0910959243774414,3.244119882583618
1761311798646787600,3.70878759765625,0.26807403564453125,2.808656692504883,2.117081642150879
1761311798665401300,3.7274013671875,0.7315864562988281,3.169292449951172,1.127290964126587
1761311798684014000,3.74601416015625,1.3211088180541992,3.759652614593506,0.7797139883041382
1761311798702628000,3.764628173828125,0.5100440979003906,3.8224501609802246,1.3218975067138672
1761311798721240600,3.783240478515625,-0.5969905853271484,3.6887784004211426,1.7603877782821655
1761311798739854600,3.8018544921875,-1.893946647644043,3.41848087310791,0.8053274154663086
1761311798758467000,3.820467041015625,-3.7404842376708984,2.750476121902466,-0.8790284991264343
1761311798777081000,3.8390810546875,-4.9455461502075195,1.9552943706512451,-2.6438519954681396
1761311798795693800,3.85769384765625,-5.436543941497803,1.1310458183288574,-3.6231770515441895
1761311798814307800,3.876307861328125,-6.019880771636963,-0.10844054818153381,-3.3822977542877197
1761311798832920300,3.89492041015625,-6.965610504150391,-1.3602180480957031,-2.474937915802002
1761311798851534300,3.913534423828125,-8.047309875488281,-1.9007771015167236,-1.181427001953125
1761311798870146800,3.932146728515625,-8.429194450378418,-2.4142980575561523,-0.4189370274543762
1761311798888761000,3.950760986328125,-7.872731685638428,-2.60542893409729,-0.37501662969589233
1761311798907373600,3.96937353515625,-6.70150089263916,-2.374274253845215,-0.18883514404296875
1761311798925987600,3.987987548828125,-5.379761695861816,-1.6789777278900146,-0.24147534370422363
1761311798944600000,4.00660009765625,-3.2812156677246094,-0.7375528812408447,-0.22017991542816162
1761311798963214000,4.025214111328125,0.9666709899902344,0.21020793914794922,0.23064827919006348
1761311798981826600,4.04382666015625,4.553606986999512,0.3525204658508301,0.5922559499740601
1761311799000440800,4.06244091796875,7.841390609741211,-0.3402700424194336,1.0468993186950684
1761311799019053300,4.08105322265625,11.781346321105957,-0.06972932815551758,-0.1403713822364807
1761311799037667300,4.099667236328125,13.637934684753418,0.7622146606445312,-0.004464566707611084
1761311799056279800,4.11827978515625,13.772696495056152,1.0585312843322754,-0.7580231428146362
1761311799074893800,4.136893798828125,12.084941864013672,1.2809462547302246,-0.319593608379364
1761311799093506300,4.15550634765625,9.327718734741211,2.274963855743408,0.1888265311717987
1761311799112120600,4.17412060546875,5.727545738220215,3.7319445610046387,0.8040576577186584
1761311799130733000,4.192733154296875,1.2141227722167969,4.798628330230713,1.1413159370422363
1761311799149347000,4.21134716796875,-2.4848833084106445,4.703747272491455,1.2506614923477173
1761311799167959600,4.22995947265625,-3.996227741241455,3.3270206451416016,1.6909053325653076
1761311799186573600,4.248573486328125,-2.7895689010620117,1.4699907302856445,3.1703834533691406
1761311799205186000,4.26718603515625,-2.0790863037109375,0.005433559417724609,5.359062194824219
1761311799223800300,4.28580029296875,-2.5843920707702637,-0.37456321716308594,6.237508296966553
1761311799242412800,4.304412841796875,-4.4518890380859375,-0.5638539791107178,6.305856227874756
1761311799261026800,4.32302685546875,-6.082151889801025,-1.1477077007293701,4.584728717803955
1761311799279639300,4.341639404296875,-7.137673377990723,-1.5044939517974854,1.862472653388977
1761311799298253300,4.36025341796875,-7.708688735961914,-1.9020373821258545,0.3470306992530823
1761311799316865800,4.37886572265625,-8.520676612854004,-2.3816421031951904,-0.1951923370361328
1761311799335480000,4.39747998046875,-9.287375450134277,-2.8439652919769287,-0.20998156070709229
1761311799354092500,4.416092529296875,-9.520675659179688,-3.1244845390319824,-0.6057104468345642
1761311799372706600,4.43470654296875,-9.20802116394043,-3.3886499404907227,-1.3469843864440918
1761311799391319000,4.453319091796875,-8.705364227294922,-3.0646090507507324,-2.6314620971679688
1761311799409933000,4.47193310546875,-6.400338172912598,-2.724504232406616,-1.9906388521194458
1761311799428545500,4.490545654296875,-4.423171043395996,-1.9777545928955078,-0.7458983659744263
1761311799447159800,4.509159912109375,-2.7743897438049316,-0.9309358596801758,-0.12294958531856537
1761311799465772300,4.527772216796875,-0.543614387512207,-0.1848287582397461,0.2282654047012329
1761311799484386300,4.54638623046875,2.4500789642333984,0.4068131446838379,0.7884919047355652
1761311799502998800,4.564998779296875,4.247114181518555,0.6306920051574707,1.3012452125549316
1761311799521612800,4.58361279296875,5.3209123611450195,0.9096493721008301,1.4274802207946777
1761311799540225300,4.602225341796875,7.97556209564209,1.1306548118591309,0.7363815307617188
1761311799558839300,4.62083935546875,10.184840202331543,1.598968505859375,-0.9288896322250366
1761311799577452000,4.6394521484375,10.941805839538574,2.1606554985046387,-2.0764074325561523
1761311799596066000,4.658066162109375,10.916128158569336,3.0037083625793457,-3.8508667945861816
1761311799614678500,4.676678466796875,10.036609649658203,3.930373191833496,-4.895251274108887
1761311799633292500,4.69529248046875,8.126444816589355,4.556073188781738,-5.064746856689453
1761311799651905000,4.713905029296875,5.184911251068115,5.004312992095947,-5.251568794250488
1761311799670519000,4.73251904296875,2.1860103607177734,5.142149925231934,-4.994101524353027
1761311799689131500,4.751131591796875,-0.8318943977355957,4.358059883117676,-3.444368362426758
1761311799707745800,4.769745849609375,-2.7591047286987305,2.6210803985595703,-0.6581562161445618
1761311799726358300,4.788358154296875,-2.693905830383301,0.4606137275695801,2.7969865798950195
1761311799744972300,4.80697216796875,-1.9346814155578613,-1.5544023513793945,4.752422332763672
1761311799763584800,4.825584716796875,-1.4385595321655273,-3.053170680999756,4.717006206512451
1761311799782198800,4.84419873046875,-2.2701826095581055,-4.021903038024902,3.619640827178955
1761311799800811300,4.862811279296875,-3.304615020751953,-4.650934219360352,2.39431095123291
1761311799819425500,4.881425537109375,-3.9723763465881348,-4.81832218170166,1.4430968761444092
1761311799838038000,4.9000380859375,-4.316765308380127,-4.851528644561768,0.9671307802200317
1761311799856652000,4.918652099609375,-4.410912990570068,-4.491867542266846,0.5523078441619873
1761311799875264500,4.937264404296875,-4.5375213623046875,-3.840373992919922,0.12164680659770966
1761311799893878500,4.95587841796875,-5.042541027069092,-3.358628749847412,0.0050580319948494434
1761311799912491000,4.974490966796875,-5.801198482513428,-3.364474296569824,0.47966766357421875
1761311799931105000,4.99310498046875,-6.199760913848877,-3.4317405223846436,0.8911094069480896
1761311799949717800,5.0117177734375,-6.197934627532959,-3.6321022510528564,1.2812427282333374
1761311799968331800,5.030331787109375,-5.612517833709717,-3.8841094970703125,1.2895467281341553
1761311799986944300,5.0489443359375,-4.600482940673828,-3.7633049488067627,1.0150014162063599
1761311800005558300,5.067558349609375,-3.448737621307373,-3.4859373569488525,0.8486613035202026
1761311800024170800,5.086170654296875,-2.321535110473633,-2.4961981773376465,0.5127591490745544
1761311800042784800,5.10478466796875,-1.223829746246338,-0.6634483337402344,-0.24788230657577515
1761311800061397200,5.123397216796875,-1.1156668663024902,1.8878440856933594,-1.7487975358963013
1761311800080011500,5.142011474609375,-0.7799167633056641,4.284733772277832,-4.142952919006348
1761311800098624000,5.1606240234375,3.594794750213623,6.386335849761963,-5.2932209968566895
1761311800117238000,5.179238037109375,7.399500370025635,8.295409202575684,-3.1638123989105225
1761311800135850500,5.1978505859375,10.354167938232422,8.55997085571289,-1.7733087539672852
1761311800154464500,5.216464599609375,13.741323471069336,9.162311553955078,-3.6618499755859375
1761311800173077000,5.235076904296875,14.920818328857422,9.292123794555664,-4.147221565246582
1761311800191691000,5.25369091796875,14.15372085571289,8.971919059753418,-2.0374083518981934
1761311800210303700,5.2723037109375,12.249513626098633,7.915574550628662,0.28267765045166016
1761311800228917800,5.290917724609375,8.76789665222168,6.315413475036621,0.8942928314208984
1761311800247530200,5.3095302734375,4.815208911895752,5.221035003662109,1.0609976053237915
1761311800266144300,5.328144287109375,1.177267074584961,3.198424816131592,2.190412998199463
1761311800284756700,5.3467568359375,-0.8685364723205566,0.28538942337036133,3.005314826965332
1761311800303370800,5.365370849609375,-1.3264694213867188,-2.475839614868164,3.090599536895752
1761311800321983200,5.383983154296875,-1.4741406440734863,-4.390114784240723,2.9660019874572754
1761311800340597500,5.402597412109375,-2.588141441345215,-5.1726179122924805,3.494966983795166
1761311800359210000,5.4212099609375,-4.522950172424316,-5.7131853103637695,3.5777382850646973
1761311800377824000,5.439823974609375,-5.739060878753662,-6.108306407928467,2.849094867706299
1761311800396436500,5.4584365234375,-6.109450340270996,-6.199501037597656,2.134188652038574
1761311800415050500,5.477050537109375,-6.618710994720459,-6.161192417144775,1.62180495262146
1761311800433663000,5.4956630859375,-7.1114091873168945,-6.018080711364746,1.3781505823135376
1761311800452277000,5.514277099609375,-7.435401916503906,-6.2757568359375,1.7364699840545654
1761311800470889500,5.532889404296875,-6.975271224975586,-6.445431709289551,2.201730489730835
1761311800489503700,5.551503662109375,-6.164740085601807,-6.512655258178711,2.969083309173584
1761311800508116200,5.5701162109375,-5.51513147354126,-6.468779563903809,3.2302401065826416
1761311800526730200,5.588730224609375,-5.093684196472168,-6.112865447998047,3.008983612060547
1761311800545342700,5.6073427734375,-3.9853174686431885,-5.571231842041016,2.4867424964904785
1761311800563956700,5.625956787109375,-2.862497568130493,-4.542108535766602,1.8614243268966675
1761311800582569200,5.6445693359375,-2.1745645999908447,-2.672790050506592,0.6350066065788269
1761311800601183200,5.663183349609375,-2.403252124786377,-0.6517682075500488,-0.27111148834228516
1761311800619796000,5.6817958984375,-2.2468228340148926,0.6446905136108398,-0.28096914291381836
1761311800638410000,5.700409912109375,-0.3734254837036133,1.9966564178466797,-1.0527231693267822
1761311800657022500,5.7190224609375,1.3832173347473145,3.625293254852295,-1.4417885541915894
1761311800675636500,5.737636474609375,1.972787857055664,5.295831203460693,-0.9629305601119995
1761311800694249000,5.7562490234375,2.0225281715393066,7.158353805541992,-0.8414815664291382
1761311800712863000,5.774863037109375,2.4621477127075195,7.966921329498291,-0.6540403366088867
1761311800731475500,5.793475341796875,3.2527809143066406,7.109550952911377,0.6318939924240112
1761311800750089500,5.81208935546875,4.348875999450684,9.196829795837402,-1.7022897005081177
1761311800768702200,5.8307021484375,6.553498268127441,9.9923095703125,-3.3224658966064453
1761311800787316200,5.849316162109375,7.603294372558594,9.361955642700195,-4.303543567657471
1761311800805928700,5.8679287109375,4.019497394561768,6.245768070220947,-2.2074005603790283
1761311800824542700,5.886542724609375,0.6685957908630371,2.2433414459228516,0.14239716529846191
1761311800843155200,5.9051552734375,0.27837228775024414,-0.40988636016845703,-0.07485091686248779
1761311800861769200,5.923769287109375,1.7037353515625,-1.7079267501831055,-1.8498859405517578
1761311800880382000,5.9423818359375,2.3417134284973145,-2.689549446105957,-1.8028175830841064
1761311800898996000,5.960995849609375,1.7180194854736328,-3.844316005706787,-0.7031423449516296
1761311800917608400,5.9796083984375,0.5348753929138184,-4.67675256729126,-0.3844152092933655
1761311800936222500,5.998222412109375,-0.674860954284668,-5.179106712341309,-1.1097623109817505
1761311800954835000,6.0168349609375,-1.5096406936645508,-4.918652534484863,-1.01718008518219
1761311800973449000,6.035448974609375,-2.5615291595458984,-4.611125946044922,-0.17671799659729004
1761311800992061400,6.0540615234375,-3.8380603790283203,-4.408111572265625,0.5289674997329712
1761311801010675500,6.072675537109375,-4.455893516540527,-4.910673141479492,1.8395761251449585
1761311801029288200,6.0912880859375,-4.550229549407959,-5.0125579833984375,2.486156702041626
1761311801047902200,6.109902099609375,-4.7884345054626465,-4.950435638427734,2.204497814178467
1761311801066514700,6.1285146484375,-5.236433982849121,-4.809024810791016,1.2949275970458984
1761311801085128700,6.147128662109375,-4.954198360443115,-4.388285160064697,0.24536536633968353
1761311801103741200,6.1657412109375,-3.937023639678955,-3.5814106464385986,0.3184472322463989
1761311801122355200,6.184355224609375,-3.514589548110962,-2.6183738708496094,0.5662047863006592
1761311801140967700,6.2029677734375,-3.617281198501587,-1.259737491607666,0.37956956028938293
1761311801159581700,6.221581787109375,-2.538118362426758,0.6543154716491699,0.10543856024742126
1761311801178194200,6.240194091796875,-1.7117924690246582,2.5216455459594727,-0.2833302319049835
1761311801196808400,6.258808349609375,0.38263607025146484,4.371038913726807,0.17397519946098328
1761311801215421000,6.2774208984375,2.4384450912475586,4.469303131103516,1.5908032655715942
1761311801234035000,6.296034912109375,3.724327564239502,5.554215908050537,1.4586987495422363
1761311801252647400,6.3146474609375,4.833520889282227,7.685142517089844,-0.7772958278656006
1761311801271261400,6.333261474609375,4.706478118896484,7.796138286590576,-1.4336254596710205
1761311801289874000,6.3518740234375,4.607300758361816,7.788002014160156,-0.7656100988388062
1761311801308488000,6.370488037109375,5.208549499511719,7.514367580413818,-0.2912779748439789
1761311801327100400,6.389100341796875,4.0583953857421875,7.1389665603637695,-0.8087121248245239
1761311801345714400,6.40771435546875,2.4513797760009766,7.053140640258789,-2.6699917316436768
1761311801364327200,6.4263271484375,0.8491625785827637,5.209158420562744,-3.1804094314575195
1761311801382941200,6.444941162109375,-0.4152512550354004,1.7470722198486328,-1.9447453022003174
1761311801401553700,6.4635537109375,-1.2734761238098145,-1.163926124572754,-0.636509120464325
1761311801420167700,6.482167724609375,-0.9415221214294434,-3.2013959884643555,0.9422279596328735
1761311801438780200,6.5007802734375,-0.7370061874389648,-4.245486259460449,1.3595809936523438
1761311801457394200,6.519394287109375,-0.3961625099182129,-4.31912899017334,1.5351409912109375
1761311801476006700,6.538006591796875,-0.8063645362854004,-3.9818849563598633,1.4019451141357422
1761311801494620700,6.55662060546875,-1.985879898071289,-3.8670742511749268,1.051353931427002
1761311801513233400,6.5752333984375,-2.636414051055908,-4.439023017883301,0.6898913383483887
1761311801531847400,6.593847412109375,-2.7140517234802246,-4.675487518310547,0.10746502876281738
1761311801550460000,6.6124599609375,-2.8497567176818848,-4.348332405090332,-0.32802557945251465
1761311801569074000,6.631073974609375,-3.084897994995117,-4.488338947296143,-0.454262375831604
1761311801587686400,6.649686279296875,-2.5975937843322754,-5.618223190307617,0.16979968547821045
1761311801606300400,6.668300537109375,-1.8978161811828613,-5.753150939941406,0.042354583740234375
1761311801624913000,6.686912841796875,-2.2778987884521484,-5.143798828125,-0.3439940810203552
1761311801643527200,6.705527099609375,-2.8235182762145996,-5.655936241149902,0.7749594449996948
1761311801662139600,6.7241396484375,-2.8098278045654297,-5.344062805175781,1.1059494018554688
1761311801680753700,6.742753662109375,-2.7918312549591064,-3.837763786315918,1.2678768634796143
1761311801699366100,6.7613662109375,-2.965733289718628,-1.78749418258667,0.48101046681404114
1761311801717980200,6.779980224609375,-2.939387083053589,-0.04756498336791992,0.7916500568389893
1761311801736592600,6.798592529296875,-2.186999559402466,3.2965660095214844,-0.030753284692764282
1761311801755206700,6.81720654296875,-0.3377037048339844,6.250628471374512,-1.8755297660827637
1761311801773819100,6.835819091796875,0.7223515510559082,7.294110298156738,-3.2318644523620605
1761311801792433200,6.85443310546875,1.1541175842285156,6.092925071716309,-1.3199968338012695
1761311801811045600,6.873045654296875,3.075377941131592,6.864645481109619,-0.8876672387123108
1761311801829660000,6.891659912109375,5.502267360687256,7.9759626388549805,-1.282738208770752
1761311801848272400,6.9102724609375,6.538398265838623,7.583326816558838,-1.5312250852584839
1761311801866886400,6.928886474609375,7.290794372558594,7.52864933013916,-2.9180855751037598
1761311801885499000,6.947498779296875,6.92363977432251,7.641005039215088,-3.4405863285064697
1761311801904113000,6.96611279296875,3.849884033203125,6.352310657501221,-1.8995866775512695
1761311801922725400,6.984725341796875,-0.5297183990478516,4.267263412475586,-0.2822580933570862
1761311801941339400,7.00333935546875,-4.28809928894043,1.5625739097595215,1.0997610092163086
1761311801959952000,7.021951904296875,-4.989099025726318,-0.8946003913879395,1.7672209739685059
1761311801978566000,7.04056591796875,-2.1942648887634277,-2.182210922241211,1.7754135131835938
1761311801997178600,7.0591787109375,0.5242252349853516,-3.310872793197632,1.5944507122039795
1761311802015792600,7.077792724609375,1.0828824043273926,-4.547215461730957,1.7582159042358398
1761311802034405000,7.096405029296875,-0.22498607635498047,-5.079410076141357,1.3448214530944824
1761311802053019100,7.11501904296875,-1.3720273971557617,-4.6547532081604,0.10168924182653427
1761311802071631600,7.133631591796875,-1.9409046173095703,-3.9097788333892822,-1.0862224102020264
1761311802090245600,7.15224560546875,-3.250640869140625,-4.449992656707764,-1.0201222896575928
1761311802108858000,7.170858154296875,-4.223588943481445,-5.29682731628418,0.020579949021339417
1761311802127472000,7.18947216796875,-4.371394157409668,-5.7779951095581055,0.8565418124198914
1761311802146084900,7.2080849609375,-3.737183094024658,-5.84240198135376,0.7630562782287598
1761311802164699000,7.226698974609375,-2.8548390865325928,-5.512490749359131,0.10225916653871536
1761311802183311400,7.245311279296875,-2.3080992698669434,-5.140989303588867,-0.5683231353759766
1761311802201925400,7.26392529296875,-2.4222421646118164,-4.535513877868652,-0.793013334274292
1761311802220537900,7.282537841796875,-2.6658570766448975,-3.6040778160095215,-1.2262424230575562
1761311802239151900,7.30115185546875,-2.361649990081787,-2.2962098121643066,-1.651227593421936
1761311802257764400,7.319764404296875,-1.619943618774414,-0.26557064056396484,-1.220801591873169
1761311802276378400,7.33837841796875,-1.1062660217285156,1.7589197158813477,0.2582135498523712
1761311802294990800,7.356990966796875,-0.7921996116638184,3.2173728942871094,1.6085209846496582
1761311802313604900,7.37560498046875,-0.5952310562133789,4.052010536193848,1.504754900932312
1761311802332217600,7.394217529296875,-0.42888331413269043,5.347118377685547,-1.602249264717102
1761311802350831600,7.41283154296875,-1.4070079326629639,6.72265625,-2.556910753250122
1761311802369444000,7.431444091796875,-1.7113728523254395,7.909692764282227,-2.576853036880493
1761311802388058000,7.45005810546875,-0.6007368564605713,9.68665599822998,-1.1909353733062744
1761311802406670600,7.468670654296875,1.058866024017334,10.152740478515625,0.18962711095809937
1761311802425284600,7.48728466796875,2.496664524078369,9.923707008361816,-1.2915459871292114
1761311802443897000,7.50589697265625,4.406576633453369,9.569591522216797,-1.7367926836013794
1761311802462511000,7.524510986328125,5.386514186859131,8.0409517288208,0.818041205406189
1761311802481123600,7.54312353515625,5.229928970336914,5.209836006164551,2.990787982940674
1761311802499737600,7.561737548828125,3.2554335594177246,2.7395315170288086,1.8555381298065186
1761311802518350300,7.580350341796875,0.30147600173950195,-0.42901182174682617,0.8993487358093262
1761311802536964400,7.59896435546875,-1.8894639015197754,-3.1828956604003906,0.7374359369277954
1761311802555576800,7.617576904296875,-2.8415026664733887,-4.908628463745117,0.8281891345977783
1761311802574190800,7.63619091796875,-3.508230686187744,-6.057662487030029,1.1626391410827637
1761311802592803300,7.65480322265625,-3.356973171234131,-6.889046669006348,1.6114822626113892
1761311802611417300,7.673417236328125,-2.4330315589904785,-7.039107322692871,1.2874383926391602
1761311802630029800,7.69202978515625,-1.5616059303283691,-5.684481143951416,0.4716397225856781
1761311802648643800,7.710643798828125,-1.4880881309509277,-5.054023742675781,0.5018194317817688
1761311802667256600,7.729256591796875,-2.388324737548828,-5.272943019866943,0.9887759685516357
1761311802685870600,7.74787060546875,-3.4284515380859375,-5.920877933502197,1.8036820888519287
1761311802704483000,7.766483154296875,-2.9094972610473633,-6.126632213592529,2.132960796356201
1761311802723097000,7.78509716796875,-2.5771279335021973,-5.555129051208496,1.0886222124099731
1761311802741709600,7.80370947265625,-2.640408754348755,-5.307526588439941,0.33313697576522827
1761311802760323600,7.822323486328125,-2.46224045753479,-5.1998748779296875,0.16204458475112915
1761311802778936000,7.84093603515625,-2.4797286987304688,-4.382213115692139,-0.047222256660461426
1761311802797550000,7.859550048828125,-2.6091179847717285,-2.950958251953125,-0.12385237216949463
1761311802816162600,7.87816259765625,-1.922187089920044,-0.35305309295654297,0.17673194408416748
1761311802834776600,7.896776611328125,-0.9180703163146973,2.1216888427734375,0.20644748210906982
1761311802853389000,7.91538916015625,0.2627706527709961,3.3475494384765625,0.5988959670066833
1761311802872003300,7.93400341796875,1.8048815727233887,4.79995059967041,-0.30478203296661377
1761311802890615800,7.95261572265625,3.063854694366455,5.285528182983398,-1.5073877573013306
1761311802909229800,7.971229736328125,3.3878583908081055,5.7212018966674805,-2.8359262943267822
1761311802927842300,7.98984228515625,3.147273540496826,6.703645706176758,-3.523322105407715
1761311802946456300,8.008456298828126,2.547769069671631,7.726733207702637,-3.103156089782715
1761311802965068800,8.02706884765625,2.1704044342041016,8.623495101928711,-2.8695619106292725
1761311802983682800,8.045682861328125,1.42232084274292,8.507477760314941,-3.0052499771118164
1761311803002295600,8.064295654296876,0.2580227851867676,8.184440612792969,-3.2555413246154785
1761311803020909300,8.082909423828125,-0.4093146324157715,7.053662300109863,-1.5347055196762085
1761311803039522000,8.10152197265625,0.1402287483215332,4.359088897705078,1.1691995859146118
1761311803058136000,8.120135986328124,1.029240608215332,0.8362274169921875,2.960439682006836
1761311803076748500,8.13874853515625,1.1111350059509277,-2.6251420974731445,3.4604685306549072
1761311803095362600,8.157362548828125,0.13560247421264648,-4.678402900695801,2.742889881134033
1761311803113975000,8.17597509765625,-0.7044382095336914,-6.480498313903809,2.5628232955932617
1761311803132589000,8.194589111328124,-0.6349453926086426,-6.828854084014893,1.9756683111190796
1761311803151201500,8.213201416015625,-1.094635009765625,-6.475254535675049,1.07509446144104
1761311803169815600,8.231815673828125,-1.7520651817321777,-5.863595485687256,0.5521829128265381
1761311803188428300,8.25042822265625,-2.3220949172973633,-5.11417293548584,0.6173319816589355
1761311803207042300,8.269042236328126,-3.004194974899292,-4.579133987426758,1.6101306676864624
1761311803225654800,8.28765478515625,-3.6602790355682373,-4.8194966316223145,2.6416499614715576
1761311803244268800,8.306268798828125,-3.971118927001953,-5.406177520751953,2.819396734237671
1761311803262881300,8.32488134765625,-3.6223955154418945,-6.056483268737793,2.5432355403900146
1761311803281495300,8.343495361328126,-3.327420949935913,-6.249788761138916,2.0216543674468994
1761311803300107800,8.362107666015625,-3.540454864501953,-6.828316688537598,2.4001688957214355
1761311803318721800,8.3807216796875,-3.922600269317627,-7.7326226234436035,1.9313995838165283
1761311803337334300,8.399334228515626,-3.900942087173462,-7.453969955444336,1.4265079498291016
1761311803355948300,8.4179482421875,-3.5727412700653076,-4.364024639129639,0.3036305904388428
1761311803374560800,8.436560791015625,-3.4914777278900146,-2.2936911582946777,-0.8720905780792236
1761311803393175000,8.455175048828124,-3.3819029331207275,-0.1945199966430664,-1.6033940315246582
1761311803411787500,8.47378759765625,-2.5231032371520996,2.692028045654297,-2.378749370574951
1761311803430401500,8.492401611328125,-0.45964813232421875,4.477785110473633,-4.857281684875488
1761311803449014000,8.511013916015624,1.430008888244629,5.281068801879883,-6.191634178161621
1761311803467628000,8.5296279296875,2.638340473175049,7.292828559875488,-7.119036674499512
1761311803486240500,8.548240478515625,4.742061614990234,9.952646255493164,-8.331908226013184
1761311803504854500,8.5668544921875,7.928464412689209,10.615596771240234,-7.087187767028809
1761311803523467000,8.585467041015624,9.903972625732422,10.187076568603516,-4.055998802185059
1761311803542081300,8.604081298828126,8.763896942138672,8.855426788330078,-3.0711841583251953
1761311803560693800,8.62269384765625,5.9459333419799805,7.195429801940918,-3.833935022354126
1761311803579307800,8.641307861328125,3.463834285736084,4.996505260467529,-2.946991205215454
1761311803597920300,8.659920166015626,1.030515193939209,2.6415815353393555,-0.27432024478912354
1761311803616534300,8.6785341796875,-1.1488895416259766,0.6784629821777344,2.6659317016601562
1761311803635146800,8.697146728515625,-2.474155902862549,-0.7530169486999512,3.9041805267333984
1761311803653760800,8.7157607421875,-2.983614444732666,-1.8800392150878906,3.540269374847412
1761311803672373200,8.734373291015626,-3.855823516845703,-2.52313232421875,2.636897563934326
1761311803690987300,8.7529873046875,-4.531877517700195,-2.4942402839660645,2.561002492904663
1761311803709599700,8.771599853515625,-4.864291191101074,-2.1961264610290527,2.419520854949951
1761311803728214000,8.790214111328124,-4.778178691864014,-2.1782264709472656,1.8664295673370361
1761311803746826500,8.808826416015625,-4.831921577453613,-2.5930190086364746,1.0497729778289795
1761311803765440500,8.8274404296875,-5.10789680480957,-2.9032628536224365,0.1527034044265747
1761311803784053000,8.846052978515624,-4.7093048095703125,-3.3043501377105713,-0.6611225605010986
1761311803802667000,8.8646669921875,-3.1070990562438965,-3.6842637062072754,-0.6073864698410034
1761311803821279500,8.883279541015625,-1.6995511054992676,-4.059757709503174,0.20992423593997955
1761311803839893500,8.9018935546875,-1.1124587059020996,-4.259798049926758,0.8168965578079224
1761311803858506000,8.920506103515624,-1.30421781539917,-4.082765102386475,0.8649579882621765
1761311803877120000,8.9391201171875,-1.7901043891906738,-3.3860039710998535,0.2576485276222229
1761311803895732700,8.957732666015625,-2.205367088317871,-2.4408445358276367,-0.3462674617767334
1761311803914346500,8.976346435546875,-1.8001937866210938,-1.3086767196655273,-0.36640822887420654
1761311803932959200,8.994959228515626,-0.22180461883544922,0.23434066772460938,-0.023941874504089355
1761311803951573200,9.0135732421875,1.8088393211364746,0.916346549987793,0.3347994089126587
1761311803970185700,9.032185791015625,3.0230588912963867,2.8768868446350098,-0.9454584121704102
1761311803988799700,9.0507998046875,4.535811424255371,6.567980766296387,-4.1143693923950195
1761311804007412200,9.069412109375,7.713743209838867,8.988664627075195,-5.758349418640137
1761311804026026200,9.088026123046875,10.434576034545898,7.574514389038086,-3.1095685958862305
1761311804044638700,9.106638671875,11.846048355102539,6.276800632476807,-1.7015557289123535
1761311804063252700,9.125252685546876,10.163618087768555,5.056755065917969,-2.8336751461029053
1761311804081865500,9.143865478515625,6.216688632965088,5.523464679718018,-5.950689315795898
1761311804100479500,9.1624794921875,2.12410306930542,5.998438835144043,-6.631834030151367
1761311804119092000,9.181092041015624,-0.2615971565246582,5.962777614593506,-4.624859809875488
1761311804137706000,9.1997060546875,-1.994354248046875,4.842128276824951,-2.8682425022125244
1761311804156318500,9.218318359375,-2.7869458198547363,1.789320468902588,-0.3730020523071289
1761311804174932500,9.236932373046875,-2.630873203277588,-1.067305088043213,1.2203048467636108
1761311804193545000,9.255544921875,-2.165822982788086,-2.80708646774292,1.4040906429290771
1761311804212159000,9.274158935546875,-1.4654769897460938,-3.5499513149261475,1.0196263790130615
1761311804230771500,9.292771484375,-0.13303184509277344,-3.2861456871032715,1.9763463735580444
1761311804249385500,9.311385498046874,0.1581401824951172,-2.7102718353271484,3.261793375015259
1761311804267998200,9.329998291015626,-0.4613656997680664,-2.8969013690948486,3.17830491065979
1761311804286612200,9.3486123046875,-1.3099660873413086,-3.1413848400115967,2.3501529693603516
1761311804305224700,9.367224609375,-3.1629586219787598,-3.6628823280334473,1.8204388618469238
1761311804323838700,9.385838623046874,-4.762664318084717,-4.3336286544799805,1.8262091875076294
1761311804342451200,9.404451171875,-5.507166385650635,-4.7906317710876465,1.6885623931884766
1761311804361065200,9.423065185546875,-5.289936542510986,-5.198305130004883,1.662078619003296
1761311804379677700,9.441677734375,-4.877216339111328,-5.677691459655762,1.928689956665039
1761311804398291700,9.460291748046876,-4.338447570800781,-5.909989833831787,2.1183605194091797
1761311804416904400,9.478904541015625,-3.8827500343322754,-5.136874198913574,1.5237261056900024
1761311804435518500,9.4975185546875,-4.083649158477783,-4.469770431518555,1.1150407791137695
1761311804454131000,9.516130859375,-4.148953437805176,-3.953925132751465,1.346073865890503
1761311804472745000,9.534744873046876,-3.1430916786193848,-1.7414641380310059,0.9947243928909302
1761311804491357400,9.553357421875,-1.2923192977905273,2.2502241134643555,0.22167861461639404
1761311804509971500,9.571971435546875,0.5449128150939941,5.856606483459473,-1.0791703462600708
1761311804528584000,9.590583984375,1.3026771545410156,6.383727073669434,-2.766934633255005
1761311804547198000,9.609197998046875,1.608259677886963,5.631913185119629,-3.7937211990356445
1761311804565810400,9.627810546875,2.723813533782959,5.935732364654541,-4.653816223144531
1761311804584424400,9.646424560546874,5.101714611053467,6.620969772338867,-4.437090873718262
1761311804603037000,9.665036865234375,6.291927814483643,6.329803466796875,-3.2869815826416016
1761311804621651200,9.683651123046875,5.668874263763428,6.205694198608398,-2.7897725105285645
1761311804640263700,9.702263671875,3.6838603019714355,6.152210712432861,-2.577890396118164
1761311804658877700,9.720877685546874,1.9952011108398438,5.3887200355529785,-0.8772343397140503
1761311804677490200,9.739490234375,1.1013083457946777,3.729153633117676,2.0111243724823
1761311804696104200,9.758104248046875,0.7678036689758301,1.3266844749450684,3.874667167663574
1761311804714716700,9.776716552734374,0.5576691627502441,-1.0825462341308594,3.140653610229492
1761311804733330700,9.79533056640625,0.2252197265625,-3.835585594177246,2.5103111267089844
1761311804751943200,9.813943115234375,-0.6191229820251465,-5.2200164794921875,1.197624683380127
1761311804770557200,9.83255712890625,-1.7805252075195312,-5.492506980895996,0.02086174488067627
1761311804789170000,9.851169921875,-2.2642078399658203,-4.645700931549072,-0.3853180408477783
1761311804807784000,9.869783935546875,-3.1488428115844727,-4.719973564147949,-0.5651235580444336
1761311804826396400,9.888396484375,-3.7736775875091553,-4.3411078453063965,0.6406756639480591
1761311804845010400,9.907010498046875,-4.106658935546875,-4.193602561950684,1.7917325496673584
1761311804863623000,9.925622802734376,-4.44760799407959,-4.222718238830566,2.278353691101074
1761311804882237000,9.94423681640625,-4.252303123474121,-4.956548690795898,2.886861562728882
1761311804900849400,9.962849365234375,-4.039751052856445,-5.3667707443237305,3.160060405731201
1761311804919463400,9.98146337890625,-3.567767381668091,-5.61217737197876,2.629563331604004
1761311804938076000,10.000075927734375,-2.4428844451904297,-5.087693214416504,1.624890685081482
1761311804956690200,10.018690185546875,-1.6558952331542969,-3.35064435005188,0.5433237552642822
1761311804975302700,10.037302734375,-1.8502378463745117,-2.057617664337158,0.5393160581588745
1761311804993916700,10.055916748046876,-1.494821548461914,0.050461769104003906,-0.09128117561340332
1761311805012529200,10.074529052734375,-0.5489511489868164,2.921572208404541,-1.4251363277435303
1761311805031143200,10.09314306640625,1.2339715957641602,4.549429893493652,-3.152289628982544
1761311805049755600,10.111755615234374,2.165379524230957,4.03969144821167,-3.690025568008423
1761311805068369700,10.13036962890625,2.832139015197754,4.235612392425537,-2.8381550312042236
1761311805086982100,10.148982177734375,2.985450267791748,5.812804698944092,-2.0225462913513184
1761311805105596200,10.16759619140625,2.317824363708496,6.664252281188965,-2.0976009368896484
1761311805124208600,10.186208740234376,2.3769302368164062,6.737082004547119,-2.5991508960723877
1761311805142822700,10.20482275390625,2.1478118896484375,7.367720603942871,-2.779869556427002
1761311805161435400,10.223435302734375,1.732142448425293,7.592988967895508,-3.027292490005493
1761311805180049400,10.24204931640625,1.25946044921875,7.608129501342773,-3.411740303039551
1761311805198662000,10.260661865234376,0.6547384262084961,6.2460713386535645,-3.398010730743408
1761311805217276000,10.27927587890625,-0.7004842758178711,1.782578945159912,-0.23867082595825195
1761311805235888400,10.297888427734375,-1.3400282859802246,-1.3646135330200195,1.7507233619689941
1761311805254502400,10.31650244140625,-0.4499669075012207,-2.7981863021850586,2.3383431434631348
1761311805273115000,10.335114990234375,0.21499300003051758,-3.4791476726531982,2.564478635787964
1761311805291729000,10.35372900390625,-0.16274642944335938,-3.946046829223633,2.382110595703125
1761311805310341600,10.372341552734374,-0.8252100944519043,-4.2749223709106445,1.9392915964126587
1761311805328955600,10.39095556640625,-1.144411563873291,-4.463100433349609,1.5320062637329102
1761311805347568000,10.409568115234375,-1.6712002754211426,-4.518540382385254,1.2640678882598877
1761311805366182100,10.42818212890625,-2.4468798637390137,-4.55764102935791,1.4852218627929688
1761311805384794600,10.446794677734376,-3.5520853996276855,-4.723372459411621,2.1357297897338867
1761311805403408600,10.46540869140625,-4.374373912811279,-4.845172882080078,2.612856388092041
1761311805422021000,10.484021240234375,-4.451089859008789,-4.939750671386719,2.641465663909912
1761311805440635100,10.50263525390625,-4.0566301345825195,-4.883045196533203,2.3941192626953125
1761311805459247600,10.52124755859375,-3.7623209953308105,-4.1435933113098145,1.6169707775115967
1761311805477861600,10.539861572265625,-3.9389255046844482,-2.5307679176330566,0.8609745502471924
1761311805496474000,10.55847412109375,-3.6655187606811523,-0.992133617401123,1.4522943496704102
1761311805515088400,10.57708837890625,-3.422189235687256,0.5107903480529785,-0.32043957710266113
1761311805533700900,10.595700927734375,-2.1656930446624756,2.78956937789917,-3.8600716590881348
1761311805552315000,10.61431494140625,-0.011045455932617188,4.182253360748291,-4.016627788543701
1761311805570927400,10.63292724609375,1.1286201477050781,3.0996103286743164,-1.8987903594970703
1761311805598847200,10.66084716796875,1.4314332008361816,3.183218002319336,-2.9567503929138184
