time,seconds_elapsed,z,y,x
1761311795128876500,0.19087646484375,-0.016492875292897224,-0.026190076023340225,0.3981960713863373
1761311795147489000,0.209489013671875,0.11056335270404816,-0.32672691345214844,0.28702184557914734
1761311795166103000,0.22810302734375,0.12216944992542267,-0.11659546941518784,0.5344150066375732
1761311795184715800,0.2467158203125,0.14171656966209412,0.2865637242794037,0.9339091181755066
1761311795203329800,0.265329833984375,0.13316470384597778,0.5260158181190491,0.8441145420074463
1761311795221942300,0.2839423828125,0.0653606578707695,0.26762744784355164,0.0958266630768776
1761311795240556300,0.302556396484375,-0.08979454636573792,-0.07994463294744492,-0.8840487003326416
1761311795259168800,0.321168701171875,-0.25350162386894226,-0.10071343928575516,-1.72823965549469
1761311795277782800,0.33978271484375,-0.3304683566093445,-0.045737188309431076,-2.4258272647857666
1761311795296395500,0.3583955078125,-0.35856732726097107,-0.0426829531788826,-2.913970470428467
1761311795315009500,0.377009521484375,-0.30908870697021484,-0.16668494045734406,-3.1186044216156006
1761311795333622000,0.3956220703125,-0.23212195932865143,-0.4348468780517578,-3.1186044216156006
1761311795352236000,0.414236083984375,-0.19119518995285034,-0.639480710029602,-2.9652817249298096
1761311795370848500,0.4328486328125,-0.17592400312423706,-0.6077166795730591,-2.647564649581909
1761311795389462500,0.451462646484375,-0.16859383881092072,-0.51425701379776,-2.1820991039276123
1761311795408075300,0.4700751953125,-0.20585553348064423,-0.6199336051940918,-1.5425420999526978
1761311795426689300,0.488689208984375,-0.28404396772384644,-0.6791858077049255,-0.760657548904419
1761311795445301800,0.5073017578125,-0.33474430441856384,-0.7903599739074707,-0.05207473039627075
1761311795463915800,0.525915771484375,-0.29503923654556274,-0.9168053865432739,0.5038726329803467
1761311795482528300,0.5445283203125,-0.1973036676645279,-0.9326874017715454,0.9290223121643066
1761311795501142300,0.563142333984375,-0.04825693368911743,-0.676131546497345,1.262544870376587
1761311795519755000,0.581755126953125,0.12705622613430023,-0.19050799310207367,1.4671787023544312
1761311795538369000,0.600369140625,0.2718270421028137,0.11369394510984421,1.4830608367919922
1761311795556981500,0.6189814453125,0.3939964771270752,0.2321983128786087,1.3749408721923828
1761311795575595500,0.637595458984375,0.5008947253227234,0.35497862100601196,1.2710968255996704
1761311795594208000,0.6562080078125,0.5992411375045776,0.14545799791812897,1.190464973449707
1761311795612822000,0.674822021484375,0.6268056631088257,-0.3670428395271301,1.1721395254135132
1761311795631434800,0.693434814453125,0.4062134325504303,-0.6242095232009888,1.2533822059631348
1761311795650048800,0.712048828125,-0.06352811306715012,-0.5118136405944824,1.394487977027893
1761311795668661200,0.7306611328125,-0.4446968138217926,-0.3969743549823761,1.4048722982406616
1761311795687275300,0.749275146484375,-0.5589252710342407,-0.5167004466056824,0.9803335070610046
1761311795705887700,0.7678876953125,-0.42514967918395996,-0.5783960223197937,0.2674747407436371
1761311795724502000,0.786501953125,-0.13621893525123596,-0.2790808379650116,-0.4014793634414673
1761311795743114500,0.805114501953125,0.17286977171897888,0.04222481697797775,-0.9280297160148621
1761311795761728500,0.823728515625,0.44958359003067017,0.05322006717324257,-1.4246485233306885
1761311795780341000,0.842341064453125,0.6133670210838318,-0.08788564801216125,-1.861404299736023
1761311795798955000,0.860955078125,0.7306496500968933,-0.08727480471134186,-2.010451078414917
1761311795817567700,0.879567626953125,0.8937458992004395,-0.25953373312950134,-1.7887134552001953
1761311795836181800,0.898181640625,0.8418238759040833,-1.2203965187072754,-1.4747380018234253
1761311795854794200,0.916794189453125,0.3805578351020813,-2.418955087661743,-1.7044165134429932
1761311795873407000,0.935406982421875,-0.00916270911693573,-2.6968905925750732,-2.1503350734710693
1761311795892019700,0.954019775390625,-0.22540263831615448,-2.221651554107666,-2.351303815841675
1761311795910633700,0.9726337890625,-0.37383851408958435,-1.0902860164642334,-2.1973702907562256
1761311795929246200,0.99124609375,-0.4691306948661804,0.18699561059474945,-1.844300627708435
1761311795947860200,1.009860107421875,-0.42637139558792114,0.9358943700790405,-1.562089204788208
1761311795966472700,1.02847265625,-0.25533416867256165,1.1722922325134277,-1.381278395652771
1761311795985087000,1.0470869140625,-0.02993151545524597,1.0757783651351929,-1.2010784149169922
1761311796003699500,1.065699462890625,0.2101314514875412,0.8503757119178772,-0.8950439691543579
1761311796022313500,1.0843134765625,0.39888325333595276,0.47287213802337646,-0.435075968503952
1761311796040926000,1.102926025390625,0.5265503525733948,0.05322006717324257,0.18989713490009308
1761311796059540000,1.1215400390625,0.5601469278335571,-0.2131093442440033,0.8716026544570923
1761311796078152700,1.140152587890625,0.47768256068229675,-0.17706935107707977,1.4928343296051025
1761311796096766700,1.1587666015625,0.28221142292022705,-0.22166119515895844,1.9778470993041992
1761311796115379200,1.177379150390625,0.20524467527866364,-0.31206658482551575,2.312591314315796
1761311796133993200,1.1959931640625,0.1575985997915268,-0.29923880100250244,2.4787418842315674
1761311796152605700,1.214605712890625,-0.08490777015686035,-0.061619218438863754,2.547156810760498
1761311796171220000,1.233219970703125,-0.444085955619812,-0.13125580549240112,2.5489892959594727
1761311796189832400,1.25183251953125,-0.7666133046150208,-0.7433247566223145,2.3632917404174805
1761311796208446500,1.270446533203125,-1.129456639289856,-1.4195326566696167,2.014497995376587
1761311796227059000,1.289058837890625,-1.3762388229370117,-1.0127084255218506,1.9271467924118042
1761311796245673000,1.3076728515625,-1.2601778507232666,0.7416449189186096,2.0761935710906982
1761311796264285700,1.32628564453125,-0.864959716796875,1.9518096446990967,1.7506119012832642
1761311796282899700,1.344899658203125,-0.47951510548591614,1.6989189386367798,0.8783220052719116
1761311796301512200,1.36351220703125,-0.2516690790653229,1.17473566532135,0.10987614840269089
1761311796320126200,1.382126220703125,-0.27915719151496887,0.8790855407714844,-0.32817769050598145
1761311796338738700,1.40073876953125,-0.3439069986343384,0.4966951906681061,-0.5462501645088196
1761311796357352700,1.419352783203125,-0.4599680006504059,-0.24731677770614624,-0.7814263701438904
1761311796375965400,1.43796533203125,-0.7605048418045044,-0.8117396235466003,-1.278656005859375
1761311796394579500,1.456579345703125,-1.1361758708953857,-1.0487483739852905,-1.9518096446990967
1761311796413192000,1.47519189453125,-1.3951750993728638,-0.9375742077827454,-2.507680654525757
1761311796431806000,1.493805908203125,-1.4910781383514404,-0.5881695747375488,-2.667722702026367
1761311796450418400,1.51241845703125,-1.595533013343811,-0.16973918676376343,-2.241962194442749
1761311796469032700,1.53103271484375,-1.6828842163085938,-0.04756972938776016,-1.358066201210022
1761311796487645200,1.549645263671875,-1.596754789352417,-0.23265644907951355,-0.4246915578842163
1761311796506259200,1.56825927734375,-1.4251066446304321,-0.5484644770622253,0.1080436110496521
1761311796524871700,1.58687158203125,-1.1667182445526123,-0.6095492243766785,0.24304085969924927
1761311796543486000,1.60548583984375,-0.7739434838294983,-0.43118181824684143,0.2631988227367401
1761311796562098400,1.624098388671875,-0.45263782143592834,-0.026190076023340225,0.2900761067867279
1761311796580712400,1.64271240234375,-0.22784602642059326,0.44599485397338867,0.3206184506416321
1761311796599325000,1.661324951171875,0.007330167107284069,0.5675534605979919,0.31389912962913513
1761311796617939000,1.67993896484375,0.291374146938324,0.5718293786048889,0.3419981002807617
1761311796636551700,1.6985517578125,0.5619794726371765,0.6048151254653931,0.4910448491573334
1761311796655165700,1.717165771484375,0.7734090089797974,0.42217180132865906,0.6223769783973694
1761311796673778200,1.735778076171875,0.8344936966896057,0.2706816792488098,0.79707932472229
1761311796692392200,1.75439208984375,0.8204442262649536,0.1949366331100464,1.139764666557312
1761311796711004700,1.773004638671875,0.7257629036903381,0.5791595578193665,1.5954567193984985
1761311796729618700,1.79161865234375,0.37567105889320374,1.2646065950393677,1.706630825996399
1761311796748231400,1.8102314453125,0.1185043677687645,1.8290294408798218,1.4995536804199219
1761311796766845400,1.828845458984375,0.19913621246814728,1.5730843544006348,1.1086114645004272
1761311796785458000,1.8474580078125,0.47585001587867737,0.22914408147335052,0.48310381174087524
1761311796804072000,1.866072021484375,0.8503757119178772,-0.6284855008125305,-0.4149180054664612
1761311796822684400,1.884684326171875,0.6994964480400085,-1.6645587682724,-1.6182870864868164
1761311796841298700,1.903298583984375,0.258999228477478,-1.4874130487442017,-2.6481754779815674
1761311796859911200,1.9219111328125,0.16248537600040436,-0.23204560577869415,-2.87365460395813
1761311796878525200,1.940525146484375,0.3310792148113251,0.9646041989326477,-1.935316801071167
1761311796897137700,1.9591376953125,0.39949411153793335,0.692777156829834,-0.4668400287628174
1761311796915751700,1.977751708984375,0.1435490995645523,-0.9058101177215576,0.4989858567714691
1761311796934364400,1.996364501953125,-0.2724378705024719,-1.734195351600647,0.5631248354911804
1761311796952978400,2.014978515625,-0.38910970091819763,-1.5332266092300415,-0.2591519355773926
1761311796971591000,2.0335908203125,-0.17775654792785645,-0.9870527982711792,-1.3983820676803589
1761311796990205000,2.052204833984375,0.014660334214568138,-0.4098021686077118,-2.088639497756958
1761311797008817400,2.0708173828125,-0.0018325417768210173,0.1668376624584198,-2.1277337074279785
1761311797027431700,2.089431640625,0.026877280324697495,0.5137988924980164,-1.6494402885437012
1761311797046044200,2.108044189453125,0.1820324808359146,0.15217731893062592,-1.0508099794387817
1761311797064658200,2.126658203125,0.2602209448814392,-0.2778591513633728,-0.5529694557189941
1761311797083270700,2.145270751953125,0.3787252902984619,-0.3719296157360077,-0.03008422814309597
1761311797101884700,2.163884765625,0.6323032975196838,-0.6590278148651123,0.5606814026832581
1761311797120497400,2.182497314453125,0.7972320318222046,-0.7469898462295532,1.1550358533859253
1761311797139111400,2.201111328125,0.8015079498291016,-0.36459946632385254,1.6247773170471191
1761311797157724000,2.219723876953125,0.7043832540512085,0.47287213802337646,1.8568992614746094
1761311797176338000,2.238337890625,0.6677324175834656,0.9945356845855713,1.8422390222549438
1761311797194950400,2.256950439453125,0.5662553906440735,0.7801283001899719,1.4109808206558228
1761311797213564400,2.275564453125,0.3286358118057251,0.7190435528755188,0.7940250635147095
1761311797232177200,2.29417724609375,-0.010995250195264816,0.8198333978652954,0.19356222450733185
1761311797250791200,2.312791259765625,-0.342074453830719,0.2822877764701843,-0.14614520967006683
1761311797269403600,2.331403564453125,-0.527161180973053,-0.597332239151001,-0.2298312783241272
1761311797288017700,2.350017578125,-0.4471401870250702,-0.9155836701393127,-0.4912739098072052
1761311797306630100,2.368630126953125,0.05986303091049194,-0.5631248354911804,-0.35505497455596924
1761311797325244400,2.387244384765625,0.3115321099758148,-0.06406260281801224,0.13125580549240112
1761311797343857000,2.40585693359375,0.16431790590286255,0.4679853618144989,0.6736881732940674
1761311797362471000,2.424470947265625,0.08185353130102158,0.9786536693572998,0.6614712476730347
1761311797381083400,2.44308349609375,0.3158080279827118,0.8277744054794312,0.045737188309431076
1761311797399697400,2.461697509765625,0.6842252612113953,0.458822637796402,-0.7252284288406372
1761311797418310100,2.48031005859375,0.9652150273323059,-0.012751436792314053,-1.1351069211959839
1761311797436924200,2.498924072265625,1.0928821563720703,-0.9143620133399963,-1.0697462558746338
1761311797455536600,2.51753662109375,0.9151255488395691,-1.614469289779663,-0.8608365058898926
1761311797474150700,2.536150634765625,0.5045598149299622,-2.0145742893218994,-1.093569278717041
1761311797492763100,2.55476318359375,-0.10750912129878998,-2.097649574279785,-1.6915887594223022
1761311797511377400,2.57337744140625,-0.7947123050689697,-1.4990191459655762,-2.1704931259155273
1761311797529990000,2.591989990234375,-1.2607887983322144,-0.852055549621582,-2.2957167625427246
1761311797548604000,2.61060400390625,-1.2974395751953125,-1.0438616275787354,-1.9890713691711426
1761311797567216400,2.62921630859375,-1.132510781288147,-1.203292727470398,-1.2016892433166504
1761311797585830400,2.647830322265625,-0.9370396733283997,-0.7512657642364502,-0.27320143580436707
1761311797604443000,2.66644287109375,-0.7159129977226257,-0.2002815455198288,0.2522035539150238
1761311797623057200,2.68505712890625,-0.5296045541763306,0.25052374601364136,0.3071798086166382
1761311797641669600,2.703669677734375,-0.3671191930770874,0.5901548266410828,0.2015032321214676
1761311797660283600,2.72228369140625,-0.2852656841278076,0.5828246474266052,0.11109784245491028
1761311797678896000,2.740896240234375,-0.33474430441856384,0.5449520945549011,0.19722731411457062
1761311797697510100,2.75951025390625,-0.30664533376693726,0.8125032186508179,0.4348468780517578
1761311797716123000,2.778122802734375,-0.08735115826129913,1.0635614395141602,0.648643434047699
1761311797734737000,2.79673681640625,0.31947311758995056,1.3128634691238403,0.7885274291038513
1761311797753349400,2.815349365234375,0.6952205300331116,1.2010021209716797,0.8832087516784668
1761311797771963400,2.83396337890625,0.9365051984786987,0.7349256277084351,1.129380226135254
1761311797790575900,2.852575927734375,1.0507336854934692,0.18577392399311066,1.486725926399231
1761311797809190000,2.87118994140625,0.8748096227645874,-0.1593547761440277,1.7493902444839478
1761311797827802600,2.889802734375,0.7856259346008301,-0.16546325385570526,2.003502607345581
1761311797846416600,2.908416748046875,0.8509865999221802,-0.27175068855285645,1.980290412902832
1761311797865029000,2.927029052734375,0.7886801958084106,-0.1336991935968399,1.43480384349823
1761311797883643100,2.94564306640625,0.6848361492156982,0.35436776280403137,0.4910448491573334
1761311797902255600,2.964255615234375,0.7966212034225464,0.3470376133918762,-0.695907711982727
1761311797920869600,2.98286962890625,1.2596434354782104,-0.24487338960170746,-1.5669759511947632
1761311797939482400,3.001482421875,1.673187017440796,0.11186140775680542,-2.0959696769714355
1761311797958096400,3.020096435546875,1.3738718032836914,1.4057122468948364,-2.5712087154388428
1761311797976708900,3.038708984375,0.08307522535324097,2.768512487411499,-2.612746477127075
1761311797995323000,3.057322998046875,-0.10750912129878998,1.2413944005966187,-2.3989498615264893
1761311798013935400,3.075935302734375,-0.337798535823822,-0.06528430432081223,-2.461867094039917
1761311798032549600,3.094549560546875,-0.3542914092540741,-0.8477796316146851,-2.6910111904144287
1761311798051162000,3.113162109375,0.01038440316915512,-1.3181320428848267,-2.818678379058838
1761311798069776100,3.131776123046875,0.2754921019077301,-1.4293062686920166,-2.735603094100952
1761311798088388600,3.150388671875,0.2718270421028137,-1.532004952430725,-2.7924118041992188
1761311798107002600,3.169002685546875,0.21807247400283813,-1.3285164833068848,-2.667111873626709
1761311798125615400,3.187615478515625,-0.06658235192298889,-0.36398860812187195,-2.2780020236968994
1761311798144229400,3.2062294921875,-0.2895416021347046,0.7062157988548279,-1.821088433265686
1761311798162841900,3.224841796875,-0.3897205591201782,1.2957597970962524,-1.4454172849655151
1761311798181456000,3.243455810546875,-0.2492256760597229,1.1429716348648071,-0.8956547975540161
1761311798200068400,3.262068359375,0.026877280324697495,0.5925981998443604,-0.06368082761764526
1761311798218682400,3.280682373046875,0.3274141252040863,-0.03779617324471474,0.8764894604682922
1761311798237295000,3.299295166015625,0.5393781065940857,-0.6132143139839172,1.6944139003753662
1761311798255909000,3.3179091796875,0.6426876783370972,-0.8661050796508789,2.191643714904785
1761311798274521600,3.336521484375,0.6768951416015625,-0.9668948650360107,2.368178367614746
1761311798293135600,3.355135498046875,0.6585696935653687,-1.046915888786316,2.2741079330444336
1761311798311748000,3.373748046875,0.503948986530304,-1.041418194770813,2.0364882946014404
1761311798330362400,3.3923623046875,0.314586341381073,-1.142818808555603,1.819637656211853
1761311798348974800,3.410974853515625,0.06719319522380829,-1.2161204814910889,1.7463359832763672
1761311798367588900,3.4295888671875,-0.18936264514923096,-1.4445774555206299,1.7017440795898438
1761311798386201300,3.448201416015625,-0.3176405727863312,-1.9046217203140259,1.7115176916122437
1761311798404815400,3.4668154296875,-0.22784602642059326,-2.5087497234344482,1.6357725858688354
1761311798423427800,3.485427734375,-0.11483928561210632,-3.702956199645996,1.4482425451278687
1761311798442042000,3.5040419921875,-0.27915719151496887,-4.837375640869141,1.2405544519424438
1761311798460654600,3.522654541015625,-0.03298575058579445,-3.5661263465881348,0.8392277956008911
1761311798479268600,3.5412685546875,0.49112120270729065,0.08620581775903702,0.01763821393251419
1761311798497881000,3.559881103515625,1.1148725748062134,2.701930046081543,-0.8321266770362854
1761311798516495000,3.5784951171875,1.3158413171768188,2.704373598098755,-1.1693143844604492
1761311798535107800,3.59710791015625,1.4074684381484985,1.6610463857650757,-0.8864920735359192
1761311798553721900,3.615721923828125,1.4398432970046997,0.6115344762802124,-0.6678087711334229
1761311798572334300,3.634334228515625,1.497262954711914,0.3623087704181671,-0.8541171550750732
1761311798590948400,3.6529482421875,1.5229185819625854,0.6512395143508911,-1.552315592765808
1761311798609560800,3.671560791015625,1.334777593612671,0.9682692885398865,-2.5058481693267822
1761311798628174800,3.6901748046875,1.122202754020691,1.2255122661590576,-3.3995940685272217
1761311798646787600,3.70878759765625,1.016526222229004,1.4301460981369019,-3.811305046081543
1761311798665401300,3.7274013671875,0.9334509968757629,1.5999616384506226,-3.4881668090820312
1761311798684014000,3.74601416015625,0.9139038324356079,1.6225630044937134,-2.510735034942627
1761311798702628000,3.764628173828125,0.6909446120262146,1.6231738328933716,-1.2902621030807495
1761311798721240600,3.783240478515625,0.2773246467113495,1.3513468503952026,0.015805672854185104
1761311798739854600,3.8018544921875,-0.016492875292897224,0.7544727325439453,1.2491062879562378
1761311798758467000,3.820467041015625,-0.06841489672660828,0.2987806797027588,2.1140661239624023
1761311798777081000,3.8390810546875,0.12155860662460327,0.2199813723564148,2.7127726078033447
1761311798795693800,3.85769384765625,0.5302154421806335,0.23952847719192505,3.2100024223327637
1761311798814307800,3.876307861328125,0.9218448400497437,0.44904908537864685,3.563682794570923
1761311798832920300,3.89492041015625,1.2156623601913452,0.3103867769241333,3.8031349182128906
1761311798851534300,3.913534423828125,1.1081533432006836,-0.16424155235290527,3.8257362842559814
1761311798870146800,3.932146728515625,0.8002862930297852,-0.48249298334121704,3.6241567134857178
1761311798888761000,3.950760986328125,0.6304707527160645,-0.4769953489303589,3.3278958797454834
1761311798907373600,3.96937353515625,0.48989951610565186,-0.48004958033561707,3.06095552444458
1761311798925987600,3.987987548828125,0.20524467527866364,-0.3163425326347351,2.5923593044281006
1761311798944600000,4.00660009765625,-0.11972606182098389,-0.32306185364723206,2.170874834060669
1761311798963214000,4.025214111328125,-0.4471401870250702,-0.6462000608444214,2.116509437561035
1761311798981826600,4.04382666015625,-0.5442649126052856,-0.643756628036499,1.981512188911438
1761311799000440800,4.06244091796875,-0.5149442553520203,0.7471425533294678,1.463513731956482
1761311799019053300,4.08105322265625,-0.10628741979598999,1.546207070350647,1.2680425643920898
1761311799037667300,4.099667236328125,0.09468132257461548,1.33912992477417,1.0951727628707886
1761311799056279800,4.11827978515625,0.6011500358581543,1.7636687755584717,0.8178481459617615
1761311799074893800,4.136893798828125,1.0690590143203735,2.4136102199554443,0.47088688611984253
1761311799093506300,4.15550634765625,1.266973614692688,2.3794028759002686,0.1587439328432083
1761311799112120600,4.17412060546875,1.224825143814087,1.8791189193725586,-0.20661908388137817
1761311799130733000,4.192733154296875,1.1228135824203491,1.2114628553390503,-0.9219212532043457
1761311799149347000,4.21134716796875,1.0983797311782837,0.6768951416015625,-1.9615832567214966
1761311799167959600,4.22995947265625,1.2364312410354614,0.4795914590358734,-2.902364492416382
1761311799186573600,4.248573486328125,1.3048460483551025,0.7410340905189514,-3.0697364807128906
1761311799205186000,4.26718603515625,0.9810970425605774,1.058674693107605,-2.545553207397461
1761311799223800300,4.28580029296875,0.4282039403915405,1.044625163078308,-1.6708199977874756
1761311799242412800,4.304412841796875,-0.2363978922367096,0.8210550546646118,-0.8266290426254272
1761311799261026800,4.32302685546875,-0.6933116316795349,0.4692070484161377,-0.12171131372451782
1761311799279639300,4.341639404296875,-0.7226322889328003,0.24136102199554443,0.436068594455719
1761311799298253300,4.36025341796875,-0.5436540842056274,0.07093463838100433,0.9430717825889587
1761311799316865800,4.37886572265625,-0.37383851408958435,-0.07872293889522552,1.2979741096496582
1761311799335480000,4.39747998046875,-0.33230090141296387,-0.253425270318985,1.4732872247695923
1761311799354092500,4.416092529296875,-0.3243598937988281,-0.40308284759521484,1.453740119934082
1761311799372706600,4.43470654296875,-0.17286977171897888,-0.5221980214118958,1.315077781677246
1761311799391319000,4.453319091796875,0.2504473626613617,-0.2943520247936249,0.9363524913787842
1761311799409933000,4.47193310546875,0.6231405735015869,-0.0023670331574976444,0.8025769591331482
1761311799428545500,4.490545654296875,0.7233195304870605,0.004963133949786425,0.7304969429969788
1761311799447159800,4.509159912109375,0.6127561330795288,-0.01763821393251419,0.5447993874549866
1761311799465772300,4.527772216796875,0.49173203110694885,0.20837527513504028,0.3291703164577484
1761311799484386300,4.54638623046875,0.33474430441856384,0.6323032975196838,0.33894386887550354
1761311799502998800,4.564998779296875,0.1441599577665329,0.8766421675682068,0.3939201235771179
1761311799521612800,4.58361279296875,-0.13560809195041656,1.0183587074279785,0.3468848764896393
1761311799540225300,4.602225341796875,-0.28037887811660767,1.4014363288879395,0.5790068507194519
1761311799558839300,4.62083935546875,-0.1172826737165451,1.7306829690933228,1.0566893815994263
1761311799577452000,4.6394521484375,0.013438640162348747,1.7202986478805542,1.443355679512024
1761311799596066000,4.658066162109375,0.2583884000778198,1.4619102478027344,1.6253881454467773
1761311799614678500,4.676678466796875,0.5998520255088806,1.1167051792144775,1.6082844734191895
1761311799633292500,4.69529248046875,0.9786536693572998,0.845488965511322,1.393266201019287
1761311799651905000,4.713905029296875,1.4209071397781372,0.5131880640983582,0.9449043273925781
1761311799670519000,4.73251904296875,1.8753774166107178,-0.034131091088056564,0.34932827949523926
1761311799689131500,4.751131591796875,2.1838552951812744,-0.46661093831062317,-0.45767730474472046
1761311799707745800,4.769745849609375,2.2644870281219482,-0.5808393955230713,-1.3311889171600342
1761311799726358300,4.788358154296875,2.0073204040527344,-0.4586699306964874,-1.897444248199463
1761311799744972300,4.80697216796875,1.5864466428756714,-0.18867544829845428,-2.0409934520721436
1761311799763584800,4.825584716796875,1.2596434354782104,0.24197186529636383,-1.8174233436584473
1761311799782198800,4.84419873046875,1.076389193534851,0.6616239547729492,-1.5193297863006592
1761311799800811300,4.862811279296875,1.038516640663147,0.8241093158721924,-1.2218471765518188
1761311799819425500,4.881425537109375,1.0513445138931274,0.93284010887146,-0.9011524319648743
1761311799838038000,4.9000380859375,1.1026556491851807,0.9157363772392273,-0.5004366040229797
1761311799856652000,4.918652099609375,1.0824977159500122,0.8387696146965027,-0.03497100621461868
1761311799875264500,4.937264404296875,1.0177478790283203,0.6616239547729492,0.45378315448760986
1761311799893878500,4.95587841796875,0.9132930040359497,0.49058669805526733,0.8190698027610779
1761311799912491000,4.974490966796875,0.7208760976791382,0.31832778453826904,0.9430717825889587
1761311799931105000,4.99310498046875,0.5051707029342651,0.35925453901290894,0.8581640720367432
1761311799949717800,5.0117177734375,0.33718767762184143,0.6830036044120789,0.6339830756187439
1761311799968331800,5.030331787109375,0.23823043704032898,1.151523470878601,0.41896486282348633
1761311799986944300,5.0489443359375,0.2351761907339096,1.5578131675720215,0.35238251090049744
1761311800005558300,5.067558349609375,0.25289076566696167,1.6793718338012695,0.4757736623287201
1761311800024170800,5.086170654296875,0.19424942135810852,1.3788349628448486,0.7653152346611023
1761311800042784800,5.10478466796875,0.011606098152697086,1.0324082374572754,1.1813021898269653
1761311800061397200,5.123397216796875,-0.22540263831615448,0.33054471015930176,1.3602805137634277
1761311800080011500,5.142011474609375,-0.19119518995285034,-0.769591212272644,0.9656731486320496
1761311800098624000,5.1606240234375,0.17286977171897888,-0.8691592812538147,0.5967214107513428
1761311800117238000,5.179238037109375,0.40193748474121094,0.3378748893737793,0.13186664879322052
1761311800135850500,5.1978505859375,0.5076140761375427,1.8968334197998047,-0.28969430923461914
1761311800154464500,5.216464599609375,0.7789065837860107,2.2236366271972656,-0.35322242975234985
1761311800173077000,5.235076904296875,0.9902597665786743,1.810703992843628,-0.23105297982692719
1761311800191691000,5.25369091796875,0.9432245492935181,1.1289221048355103,-0.02886253222823143
1761311800210303700,5.2723037109375,0.7599703669548035,0.762413740158081,0.19722731411457062
1761311800228917800,5.290917724609375,0.7844042181968689,0.6219188570976257,0.24304085969924927
1761311800247530200,5.3095302734375,0.905351996421814,0.3671955466270447,0.011529741808772087
1761311800266144300,5.328144287109375,0.9303967356681824,0.27740100026130676,-0.441795289516449
1761311800284756700,5.3467568359375,0.9041302800178528,0.3507026731967926,-0.853506326675415
1761311800303370800,5.365370849609375,0.956052303314209,0.5565581917762756,-0.8571714162826538
1761311800321983200,5.383983154296875,1.035462498664856,0.7501968145370483,-0.4161396920681
1761311800340597500,5.402597412109375,0.8357154130935669,0.5608341693878174,0.15141376852989197
1761311800359210000,5.4212099609375,0.5002838969230652,0.18455222249031067,0.5680115818977356
1761311800377824000,5.439823974609375,0.22540263831615448,-0.0811663269996643,0.8209023475646973
1761311800396436500,5.4584365234375,0.07024743407964706,-0.009697199799120426,1.0133192539215088
1761311800415050500,5.477050537109375,-0.02626643143594265,0.20287764072418213,1.1489273309707642
1761311800433663000,5.4956630859375,-0.1050657257437706,0.05932854115962982,1.1507599353790283
1761311800452277000,5.514277099609375,-0.21929416060447693,-0.280913382768631,1.0114866495132446
1761311800470889500,5.532889404296875,-0.30603447556495667,-0.463556706905365,0.8618291020393372
1761311800489503700,5.551503662109375,-0.4416425824165344,-0.4513397812843323,0.7940250635147095
1761311800508116200,5.5701162109375,-0.577861487865448,-0.34993913769721985,0.7897491455078125
1761311800526730200,5.588730224609375,-0.6780404448509216,-0.21860696375370026,0.7304969429969788
1761311800545342700,5.6073427734375,-0.6713211536407471,-0.02435753494501114,0.727442741394043
1761311800563956700,5.625956787109375,-0.6456655263900757,0.17294612526893616,0.8544989824295044
1761311800582569200,5.6445693359375,-0.6004628539085388,-0.019470756873488426,1.0395857095718384
1761311800601183200,5.663183349609375,-0.5253286361694336,-0.5539621114730835,0.9558995962142944
1761311800619796000,5.6817958984375,-0.4868452548980713,-0.9058101177215576,0.5594597458839417
1761311800638410000,5.700409912109375,-0.21868331730365753,-0.5203655362129211,0.2137201875448227
1761311800657022500,5.7190224609375,0.04703523963689804,0.005573981441557407,-0.0032069480512291193
1761311800675636500,5.737636474609375,0.1178935244679451,0.26579490303993225,-0.2151709496974945
1761311800694249000,5.7562490234375,-0.02076880633831024,0.1283542811870575,-0.520594596862793
1761311800712863000,5.774863037109375,-0.2907632887363434,-0.21066594123840332,-0.8168554902076721
1761311800731475500,5.793475341796875,-0.6951441764831543,-0.0017561858985573053,-1.0355387926101685
1761311800750089500,5.81208935546875,-0.7250757217407227,0.3274904787540436,-1.381278395652771
1761311800768702200,5.8307021484375,-0.5839699506759644,-0.37559470534324646,-1.3562335968017578
1761311800787316200,5.849316162109375,-0.13377554714679718,-0.7402704954147339,-0.7429429888725281
1761311800805928700,5.8679287109375,-0.1056765764951706,-1.1049463748931885,-0.5108210444450378
1761311800824542700,5.886542724609375,-0.4984513521194458,-0.9870527982711792,-0.5920637249946594
1761311800843155200,5.9051552734375,-0.4709632396697998,-1.162976861000061,-0.7875348329544067
1761311800861769200,5.923769287109375,0.14965757727622986,-1.4806936979293823,-0.8669449687004089
1761311800880382000,5.9423818359375,0.9029086232185364,-1.1177741289138794,-0.7802046537399292
1761311800898996000,5.960995849609375,1.279801368713379,0.007406522985547781,-0.6293253898620605
1761311800917608400,5.9796083984375,1.507036566734314,0.9957574009895325,-0.43324342370033264
1761311800936222500,5.998222412109375,1.808184266090393,1.4246485233306885,-0.15591876208782196
1761311800954835000,6.0168349609375,1.918136715888977,1.2798776626586914,0.25647950172424316
1761311800973449000,6.035448974609375,1.7037293910980225,0.7465317249298096,0.6608603596687317
1761311800992061400,6.0540615234375,1.362876534461975,0.2065427303314209,0.8722135424613953
1761311801010675500,6.072675537109375,0.8320503234863281,-0.11476293206214905,0.9638406038284302
1761311801029288200,6.0912880859375,0.2993151545524597,-0.12636902928352356,0.9797226190567017
1761311801047902200,6.109902099609375,-0.12400199472904205,0.08192989230155945,0.8783220052719116
1761311801066514700,6.1285146484375,-0.2919849753379822,0.4832565486431122,0.6480326056480408
1761311801085128700,6.147128662109375,-0.17225892841815948,0.7569161057472229,0.4507289230823517
1761311801103741200,6.1657412109375,-0.05741964280605316,0.7367581725120544,0.4739411175251007
1761311801122355200,6.184355224609375,-0.10628741979598999,0.2969481348991394,0.5875586867332458
1761311801140967700,6.2029677734375,-0.20219044387340546,-0.3584909737110138,0.5722874999046326
1761311801159581700,6.221581787109375,-0.1948602795600891,-0.8557206392288208,0.5710658431053162
1761311801178194200,6.240194091796875,-0.24494975805282593,-0.9882745146751404,0.3823140263557434
1761311801196808400,6.258808349609375,-0.1301104724407196,-0.49409908056259155,0.16851748526096344
1761311801215421000,6.2774208984375,-0.38788801431655884,-0.031076854094862938,-0.019088976085186005
1761311801234035000,6.296034912109375,-0.6584933400154114,0.28106608986854553,-0.1785201132297516
1761311801252647400,6.3146474609375,-0.5027272701263428,0.14301460981369019,-0.2835858464241028
1761311801271261400,6.333261474609375,-0.11422843486070633,-0.2906869351863861,-0.5028799772262573
1761311801289874000,6.3518740234375,0.14904673397541046,-0.5136461853981018,-0.7942541241645813
1761311801308488000,6.370488037109375,0.20157960057258606,-0.16546325385570526,-0.6940752267837524
1761311801327100400,6.389100341796875,0.2779355049133301,0.05810684710741043,-0.47111594676971436
1761311801345714400,6.40771435546875,0.5589252710342407,-0.62054443359375,-0.284196674823761
1761311801364327200,6.4263271484375,0.8509865999221802,-1.5717099905014038,-0.18462859094142914
1761311801382941200,6.444941162109375,1.0360733270645142,-1.9687607288360596,-0.2670929729938507
1761311801401553700,6.4635537109375,1.1576318740844727,-1.7800089120864868,-0.5303681492805481
1761311801420167700,6.482167724609375,1.2914074659347534,-2.5618934631347656,-0.9591829180717468
1761311801438780200,6.5007802734375,1.38731050491333,-3.300407648086548,-1.2071869373321533
1761311801457394200,6.519394287109375,1.2443722486495972,-3.2503182888031006,-1.1613733768463135
1761311801476006700,6.538006591796875,0.7721872925758362,-2.21065616607666,-0.9946120381355286
1761311801494620700,6.55662060546875,0.046424392610788345,-0.7610393166542053,-0.8443436026573181
1761311801513233400,6.5752333984375,-0.5839699506759644,0.5418978929519653,-0.6592568755149841
1761311801531847400,6.593847412109375,-0.9846857786178589,1.4185400009155273,-0.41675055027008057
1761311801550460000,6.6124599609375,-1.2461284399032593,2.004342555999756,-0.1247655525803566
1761311801569074000,6.631073974609375,-1.3505833148956299,2.3873438835144043,0.19417306780815125
1761311801587686400,6.649686279296875,-1.3084348440170288,1.81986665725708,0.4000285863876343
1761311801606300400,6.668300537109375,-0.9999569654464722,0.47653722763061523,0.5264739990234375
1761311801624913000,6.686912841796875,-0.7153021693229675,0.6573479771614075,0.9186379313468933
1761311801643527200,6.705527099609375,-0.7336275577545166,1.1277004480361938,1.3346248865127563
1761311801662139600,6.7241396484375,-0.846023440361023,1.54193115234375,1.7848193645477295
1761311801680753700,6.742753662109375,-0.966971218585968,1.8693453073501587,2.246009111404419
1761311801699366100,6.7613662109375,-1.0928057432174683,1.3287454843521118,2.3626809120178223
1761311801717980200,6.779980224609375,-1.23940908908844,-0.3963635265827179,1.8898850679397583
1761311801736592600,6.798592529296875,-1.266897201538086,-1.0493592023849487,1.2020710706710815
1761311801755206700,6.81720654296875,-0.9144383668899536,-0.958342969417572,0.4647783935070038
1761311801773819100,6.835819091796875,-0.3268032968044281,-0.31084489822387695,-0.38254308700561523
1761311801792433200,6.85443310546875,-0.02504473738372326,0.22914408147335052,-1.2505570650100708
1761311801811045600,6.873045654296875,0.11606097966432571,0.8809180855751038,-1.7068599462509155
1761311801829660000,6.891659912109375,0.07024743407964706,1.021412968635559,-1.7826050519943237
1761311801848272400,6.9102724609375,-0.0012216945178806782,0.7288171648979187,-1.543152928352356
1761311801866886400,6.928886474609375,0.3176405727863312,0.15767495334148407,-0.8822161555290222
1761311801885499000,6.947498779296875,0.7520293593406677,-0.2778591513633728,-0.016034740954637527
1761311801904113000,6.96611279296875,0.7526401877403259,-0.41407808661460876,0.40430453419685364
1761311801922725400,6.984725341796875,0.420873761177063,-0.5722874999046326,0.04085041210055351
1761311801941339400,7.00333935546875,0.10262233763933182,-1.0493592023849487,-1.1149489879608154
1761311801959952000,7.021951904296875,0.12155860662460327,-1.4727526903152466,-2.461867094039917
1761311801978566000,7.04056591796875,0.4037700295448303,-1.1025029420852661,-2.9017536640167236
1761311801997178600,7.0591787109375,0.5167768001556396,-0.3328354060649872,-2.239518880844116
1761311802015792600,7.077792724609375,0.29687178134918213,0.1784437596797943,-1.0685245990753174
1761311802034405000,7.096405029296875,-0.16737215220928192,0.5199073553085327,0.010918894782662392
1761311802053019100,7.11501904296875,-0.4727957844734192,0.46432027220726013,0.8880955576896667
1761311802071631600,7.133631591796875,-0.3805578351020813,-0.3193967640399933,1.5166573524475098
1761311802090245600,7.15224560546875,-0.23090025782585144,-0.7476006746292114,1.8098640441894531
1761311802108858000,7.170858154296875,-0.2241809368133545,-0.704230546951294,1.8422390222549438
1761311802127472000,7.18947216796875,-0.33596599102020264,-0.35054996609687805,1.748779296875
1761311802146084900,7.2080849609375,-0.4220954477787018,0.03733803704380989,1.7328972816467285
1761311802164699000,7.226698974609375,-0.4220954477787018,0.23525254428386688,1.8581210374832153
1761311802183311400,7.245311279296875,-0.2901524603366852,0.1949366331100464,2.078026056289673
1761311802201925400,7.26392529296875,-0.10140064358711243,0.18699561059474945,2.1983628273010254
1761311802220537900,7.282537841796875,0.08857285231351852,0.20409934222698212,2.1501059532165527
1761311802239151900,7.30115185546875,0.29565006494522095,-0.13675342500209808,1.9430288076400757
1761311802257764400,7.319764404296875,0.5100574493408203,-0.5112028121948242,1.72251296043396
1761311802276378400,7.33837841796875,0.4349232614040375,-0.5264739990234375,1.4806174039840698
1761311802294990800,7.356990966796875,0.06169557198882103,-0.1752368062734604,1.1654201745986938
1761311802313604900,7.37560498046875,-0.3658975064754486,0.4276694357395172,0.8257891535758972
1761311802332217600,7.394217529296875,-0.3658975064754486,1.0495119094848633,0.5405234694480896
1761311802350831600,7.41283154296875,-0.014660334214568138,1.2676607370376587,-0.05329642444849014
1761311802369444000,7.431444091796875,0.32374903559684753,1.3324105739593506,-0.8357917666435242
1761311802388058000,7.45005810546875,0.3280249834060669,1.196115255355835,-1.5443745851516724
1761311802406670600,7.468670654296875,-0.04581354558467865,1.1893960237503052,-1.9487555027008057
1761311802425284600,7.48728466796875,-0.1441599577665329,0.8515974283218384,-2.050766944885254
1761311802443897000,7.50589697265625,0.07757759839296341,0.18943901360034943,-1.745954155921936
1761311802462511000,7.524510986328125,-0.04214845970273018,-0.5625139474868774,-1.2774343490600586
1761311802481123600,7.54312353515625,-0.420873761177063,-0.8496121764183044,-0.7380561828613281
1761311802499737600,7.561737548828125,-0.5143333673477173,-0.5301390886306763,-0.4289674758911133
1761311802518350300,7.580350341796875,-0.41293275356292725,-0.23204560577869415,-0.6122216582298279
1761311802536964400,7.59896435546875,-0.3432961702346802,0.0293970238417387,-0.9781191945075989
1761311802555576800,7.617576904296875,-0.33596599102020264,0.17172443866729736,-1.154043197631836
1761311802574190800,7.63619091796875,-0.40987852215766907,-0.09704835712909698,-1.1980241537094116
1761311802592803300,7.65480322265625,-0.5051707029342651,-0.8453362584114075,-1.12655508518219
1761311802611417300,7.673417236328125,-0.5008947253227234,-1.371275782585144,-0.8681666851043701
1761311802630029800,7.69202978515625,-0.3793361485004425,-1.01942777633667,-0.32512345910072327
1761311802648643800,7.710643798828125,-0.3011476993560791,-0.24181915819644928,0.28335678577423096
1761311802667256600,7.729256591796875,-0.3255815804004669,0.5980958342552185,0.7543200254440308
1761311802685870600,7.74787060546875,-0.5149442553520203,1.2114628553390503,0.9748358726501465
1761311802704483000,7.766483154296875,-0.7360709309577942,0.5950415730476379,0.9772792458534241
1761311802723097000,7.78509716796875,-0.7666133046150208,0.04283566400408745,1.0279796123504639
1761311802741709600,7.80370947265625,-0.6774296164512634,0.23830679059028625,1.2546038627624512
1761311802760323600,7.822323486328125,-0.5613686442375183,0.325047105550766,1.4128133058547974
1761311802778936000,7.84093603515625,-0.40132665634155273,0.3219928741455078,1.453740119934082
1761311802797550000,7.859550048828125,-0.24678228795528412,0.43561044335365295,1.3834927082061768
1761311802816162600,7.87816259765625,-0.10689827054738998,0.5180748105049133,1.1831347942352295
1761311802834776600,7.896776611328125,-0.07269082218408585,0.141182079911232,0.8300650715827942
1761311802853389000,7.91538916015625,-0.2877090573310852,-0.23632153868675232,0.433625191450119
1761311802872003300,7.93400341796875,-0.41110020875930786,0.007406522985547781,0.24181915819644928
1761311802890615800,7.95261572265625,-0.33352261781692505,0.5828246474266052,0.2686964273452759
1761311802909229800,7.971229736328125,-0.006719320081174374,0.9847621321678162,0.32489439845085144
1761311802927842300,7.98984228515625,0.3695625960826874,1.0501227378845215,0.3328354060649872
1761311802946456300,8.008456298828126,0.550373375415802,0.7807391285896301,0.24243000149726868
1761311802965068800,8.02706884765625,0.550373375415802,0.34459421038627625,0.07444700598716736
1761311802983682800,8.045682861328125,0.5448757410049438,-0.0017561858985573053,-0.13087402284145355
1761311803002295600,8.064295654296876,0.692777156829834,-0.32306185364723206,-0.5077667832374573
1761311803020909300,8.082909423828125,0.6249731183052063,-0.7091172933578491,-1.0465340614318848
1761311803039522000,8.10152197265625,0.20463383197784424,-1.0340880155563354,-1.4674078226089478
1761311803058136000,8.120135986328124,-0.3164188861846924,-1.125104308128357,-1.6237847805023193
1761311803076748500,8.13874853515625,-0.6957550048828125,-0.9161945581436157,-1.6091244220733643
1761311803095362600,8.157362548828125,-0.7666133046150208,-0.10926530510187149,-1.5449854135513306
1761311803113975000,8.17597509765625,-0.7733326554298401,0.3733040392398834,-1.4545800685882568
1761311803132589000,8.194589111328124,-0.6615476012229919,0.4832565486431122,-1.034317135810852
1761311803151201500,8.213201416015625,-0.41354358196258545,0.6115344762802124,-0.4149180054664612
1761311803169815600,8.231815673828125,-0.03237490355968475,0.3238253891468048,0.09216158092021942
1761311803188428300,8.25042822265625,0.30664533376693726,-0.14408360421657562,0.4519506096839905
1761311803207042300,8.269042236328126,0.33718767762184143,-0.3939201235771179,0.7445464730262756
1761311803225654800,8.28765478515625,0.051922015845775604,-0.5588488578796387,0.9064210057258606
1761311803244268800,8.306268798828125,-0.28282228112220764,-0.5759525895118713,0.9235246777534485
1761311803262881300,8.32488134765625,-0.5198310017585754,-0.42934927344322205,0.8679376244544983
1761311803281495300,8.343495361328126,-0.6126797795295715,-0.07872293889522552,0.8636616468429565
1761311803300107800,8.362107666015625,-0.7941014170646667,0.4130091071128845,0.9314656853675842
1761311803318721800,8.3807216796875,-1.0592091083526611,1.081886887550354,1.0487483739852905
1761311803337334300,8.399334228515626,-1.1764918565750122,1.5602566003799438,1.1519815921783447
1761311803355948300,8.4179482421875,-1.0726478099822998,1.7435108423233032,1.1458730697631836
1761311803374560800,8.436560791015625,-1.0121738910675049,1.4961175918579102,0.9650623202323914
1761311803393175000,8.455175048828124,-0.9743013978004456,0.7361472845077515,0.3334462344646454
1761311803411787500,8.47378759765625,-0.8380824327468872,0.09414683282375336,-0.5859552621841431
1761311803430401500,8.492401611328125,-0.5540384650230408,-0.031076854094862938,-1.3427950143814087
1761311803449014000,8.511013916015624,-0.16187451779842377,0.6689541339874268,-1.732515573501587
1761311803467628000,8.5296279296875,0.3029802441596985,0.9334509968757629,-2.16316294670105
1761311803486240500,8.548240478515625,0.9218448400497437,-0.009697199799120426,-2.502183198928833
1761311803504854500,8.5668544921875,1.2633085250854492,-1.079290747642517,-2.384289503097534
1761311803523467000,8.585467041015624,1.1484692096710205,-1.3138561248779297,-1.9579181671142578
1761311803542081300,8.604081298828126,0.9878163933753967,-1.1806913614273071,-1.8607934713363647
1761311803560693800,8.62269384765625,1.2376528978347778,-1.0811232328414917,-2.102689027786255
1761311803579307800,8.641307861328125,1.7031185626983643,-1.0676846504211426,-2.105743169784546
1761311803597920300,8.659920166015626,1.9633394479751587,-1.2863680124282837,-1.7532843351364136
1761311803616534300,8.6785341796875,1.7990214824676514,-1.5674340724945068,-1.3030898571014404
1761311803635146800,8.697146728515625,1.3983057737350464,-1.591257095336914,-0.880994439125061
1761311803653760800,8.7157607421875,1.0275214910507202,-1.3272947072982788,-0.538919985294342
1761311803672373200,8.734373291015626,0.8057838678359985,-0.7121715545654297,-0.35566580295562744
1761311803690987300,8.7529873046875,0.4715740978717804,-0.15324631333351135,-0.24754585325717926
1761311803709599700,8.771599853515625,0.0012216945178806782,0.21020781993865967,-0.07956285774707794
1761311803728214000,8.790214111328124,-0.4703523814678192,0.24197186529636383,0.16546325385570526
1761311803746826500,8.808826416015625,-0.8399149775505066,0.05993938818573952,0.42751672863960266
1761311803765440500,8.8274404296875,-1.0011786222457886,-0.3310028612613678,0.5124244689941406
1761311803784053000,8.846052978515624,-0.9504783153533936,-0.7078956365585327,0.3670428395271301
1761311803802667000,8.8646669921875,-0.846023440361023,-0.6199336051940918,0.3462740480899811
1761311803821279500,8.883279541015625,-0.7464553713798523,-0.009697199799120426,0.5307499170303345
1761311803839893500,8.9018935546875,-0.6969767212867737,0.7428666353225708,0.8465579152107239
1761311803858506000,8.920506103515624,-0.6493306159973145,1.2065759897232056,1.1935192346572876
1761311803877120000,8.9391201171875,-0.5705313682556152,1.177178978919983,1.495277762413025
1761311803895732700,8.957732666015625,-0.47829338908195496,0.7446991801261902,1.6821969747543335
1761311803914346500,8.976346435546875,-0.4428642690181732,0.18333053588867188,1.7738240957260132
1761311803932959200,8.994959228515626,-0.3781144618988037,0.2816769480705261,1.828189492225647
1761311803951573200,9.0135732421875,-0.3927747905254364,0.8424347043037415,1.6931922435760498
1761311803970185700,9.032185791015625,-0.6096255779266357,0.9584956765174866,1.184356451034546
1761311803988799700,9.0507998046875,-0.633448600769043,-0.2503710091114044,0.19172967970371246
1761311804007412200,9.069412109375,-0.42576053738594055,-0.6749098896980286,-0.48272204399108887
1761311804026026200,9.088026123046875,-0.5967977643013,-0.5625139474868774,-0.9255862832069397
1761311804044638700,9.106638671875,-0.763559103012085,0.7220978140830994,-0.987281858921051
1761311804063252700,9.125252685546876,-0.6731536984443665,2.394674062728882,-0.8211314082145691
1761311804081865500,9.143865478515625,-0.06352811306715012,2.7300291061401367,-0.7918107509613037
1761311804100479500,9.1624794921875,0.5754181146621704,1.1631295680999756,-1.0001096725463867
1761311804119092000,9.181092041015624,0.8137248754501343,-0.5985539555549622,-1.1546540260314941
1761311804137706000,9.1997060546875,0.9975899457931519,-1.8429261445999146,-1.5712518692016602
1761311804156318500,9.218318359375,1.1405282020568848,-2.1654534339904785,-2.256622552871704
1761311804174932500,9.236932373046875,1.3695958852767944,-1.320575475692749,-2.868156909942627
1761311804193545000,9.255544921875,1.6841822862625122,-0.173404261469841,-3.1350972652435303
1761311804212159000,9.274158935546875,1.955398440361023,0.5095229744911194,-2.8211216926574707
1761311804230771500,9.292771484375,1.8466676473617554,0.7972320318222046,-1.8864490985870361
1761311804249385500,9.311385498046874,1.3928080797195435,1.209019422531128,-0.6232169270515442
1761311804267998200,9.329998291015626,0.8845831751823425,1.3470709323883057,0.7011762857437134
1761311804286612200,9.3486123046875,0.6164212226867676,0.9994224905967712,1.8532341718673706
1761311804305224700,9.367224609375,0.4691306948661804,0.6658998727798462,2.5630388259887695
1761311804323838700,9.385838623046874,0.26877278089523315,0.2315874695777893,2.734152317047119
1761311804342451200,9.404451171875,0.02748812735080719,-0.27419406175613403,2.479963541030884
1761311804361065200,9.423065185546875,-0.21196399629116058,-0.699954628944397,2.0535922050476074
1761311804379677700,9.441677734375,-0.3390202224254608,-0.643756628036499,1.6870837211608887
1761311804398291700,9.460291748046876,-0.37444937229156494,-0.39025503396987915,1.4170893430709839
1761311804416904400,9.478904541015625,-0.3023693859577179,0.06116108223795891,1.4360255002975464
1761311804435518500,9.4975185546875,-0.3286358118057251,0.39529454708099365,1.6681475639343262
1761311804454131000,9.516130859375,-0.5473191738128662,0.0165692325681448,1.8116966485977173
1761311804472745000,9.534744873046876,-0.9174925684928894,-1.5100144147872925,1.6205013990402222
1761311804491357400,9.553357421875,-1.147171139717102,-2.6913931369781494,1.2002384662628174
1761311804509971500,9.571971435546875,-1.211920976638794,-1.2063469886779785,0.6620820760726929
1761311804528584000,9.590583984375,-0.9119949340820312,0.6481853127479553,0.06345175951719284
1761311804547198000,9.609197998046875,-0.4037700295448303,1.021412968635559,-0.8144121170043945
1761311804565810400,9.627810546875,0.20707722008228302,1.0269105434417725,-1.4839006662368774
1761311804584424400,9.646424560546874,0.7227086424827576,0.9572740197181702,-1.6616572141647339
1761311804603037000,9.665036865234375,0.9322292804718018,0.7324821949005127,-1.372726559638977
1761311804621651200,9.683651123046875,1.0128611326217651,0.3653630316257477,-0.8773293495178223
1761311804640263700,9.702263671875,1.0873844623565674,-0.44523128867149353,-0.6006155610084534
1761311804658877700,9.720877685546874,1.0366841554641724,-1.5338374376296997,-0.6207735538482666
1761311804677490200,9.739490234375,0.6390225887298584,-2.0701613426208496,-0.8852704167366028
1761311804696104200,9.758104248046875,0.1313321590423584,-1.6847167015075684,-1.2670499086380005
1761311804714716700,9.776716552734374,-0.07269082218408585,-0.5362475514411926,-1.547428846359253
1761311804733330700,9.79533056640625,-0.2504473626613617,0.6805602312088013,-1.4386980533599854
1761311804751943200,9.813943115234375,-0.3823903799057007,1.4948959350585938,-0.9665130972862244
1761311804770557200,9.83255712890625,-0.3970507085323334,1.55170476436615,-0.3752129375934601
1761311804789170000,9.851169921875,-0.2858765125274658,0.7178218960762024,0.20455747842788696
1761311804807784000,9.869783935546875,-0.10201149433851242,0.03733803704380989,0.5545729398727417
1761311804826396400,9.888396484375,0.05131116881966591,-0.20272493362426758,0.722555935382843
1761311804845010400,9.907010498046875,0.0006108472589403391,0.045889899134635925,0.7879166007041931
1761311804863623000,9.925622802734376,-0.15332266688346863,0.2706816792488098,0.7237776517868042
1761311804882237000,9.94423681640625,-0.4337015450000763,0.5101338028907776,0.6840725541114807
1761311804900849400,9.962849365234375,-0.6401679515838623,0.9132930040359497,0.6608603596687317
1761311804919463400,9.98146337890625,-0.6096255779266357,1.3360756635665894,0.723166823387146
1761311804938076000,10.000075927734375,-0.4587462842464447,1.5559806823730469,0.9278006553649902
1761311804956690200,10.018690185546875,-0.3384093940258026,1.4185400009155273,1.3010282516479492
1761311804975302700,10.037302734375,-0.5155550837516785,0.46187686920166016,1.453740119934082
1761311804993916700,10.055916748046876,-0.80937260389328,-1.3810492753982544,1.0004914999008179
1761311805012529200,10.074529052734375,-0.8087617754936218,-1.604084849357605,0.32733777165412903
1761311805031143200,10.09314306640625,-0.29381752014160156,-0.6779640913009644,-0.06795676052570343
1761311805049755600,10.111755615234374,0.24311721324920654,0.2615189850330353,-0.2151709496974945
1761311805068369700,10.13036962890625,0.4086568057537079,0.6555154919624329,-0.16752485930919647
1761311805086982100,10.148982177734375,0.2779355049133301,0.7453100085258484,-0.19989976286888123
1761311805105596200,10.16759619140625,0.16248537600040436,0.29145050048828125,-0.4246915578842163
1761311805124208600,10.186208740234376,0.033596597611904144,-0.6852942705154419,-0.6464291214942932
1761311805142822700,10.20482275390625,-0.10384403169155121,-1.2515497207641602,-0.8089144825935364
1761311805161435400,10.223435302734375,-0.09407047927379608,-1.2759835720062256,-0.9787300229072571
1761311805180049400,10.24204931640625,0.0647498071193695,-0.8899281024932861,-1.2621631622314453
1761311805198662000,10.260661865234376,0.2895416021347046,-0.09399411827325821,-1.5437637567520142
1761311805217276000,10.27927587890625,0.2754921019077301,0.03978142887353897,-1.8497982025146484
1761311805235888400,10.297888427734375,0.19058434665203094,-0.020692450925707817,-2.0177812576293945
1761311805254502400,10.31650244140625,0.16676130890846252,-0.1483595222234726,-1.8467439413070679
1761311805273115000,10.335114990234375,0.1423274129629135,-0.014583977870643139,-1.3476817607879639
1761311805291729000,10.35372900390625,0.0910162404179573,0.1405712217092514,-0.7661551833152771
1761311805310341600,10.372341552734374,0.08063183724880219,0.11735902726650238,-0.2011214643716812
1761311805328955600,10.39095556640625,0.11056335270404816,0.005573981441557407,0.3835357129573822
1761311805347568000,10.409568115234375,0.16248537600040436,-0.015194825828075409,0.9736141562461853
1761311805366182100,10.42818212890625,0.18569757044315338,-0.020692450925707817,1.472676396369934
1761311805384794600,10.446794677734376,0.08979454636573792,-0.03596363216638565,1.6742559671401978
1761311805403408600,10.46540869140625,0.02076880633831024,0.10025530308485031,1.582628846168518
1761311805422021000,10.484021240234375,0.023212196305394173,0.4142307937145233,1.4189218282699585
1761311805440635100,10.50263525390625,0.13744063675403595,0.9853729605674744,1.3211863040924072
1761311805459247600,10.52124755859375,0.31031039357185364,1.4332003593444824,1.23200261592865
1761311805477861600,10.539861572265625,0.363454133272171,1.4576343297958374,0.9717816114425659
1761311805496474000,10.55847412109375,-0.14904673397541046,0.7318713665008545,0.9455152153968811
1761311805515088400,10.57708837890625,-0.7892146706581116,-0.9186379313468933,0.6462000608444214
1761311805533700900,10.595700927734375,-0.3555130958557129,-1.2301700115203857,0.07383616268634796
1761311805552315000,10.61431494140625,0.11178504675626755,-0.4776062071323395,-0.5315898060798645
1761311805570927400,10.63292724609375,0.034818295389413834,0.4453839957714081,-0.9561286568641663
1761311805598847200,10.66084716796875,0.11422843486070633,-0.3193967640399933,-1.1894723176956177
