time,seconds_elapsed,z,y,x
1761370116295837400,0.11083740234375,0,0,0
1761370116314448100,0.1294482421875,0.15862226486206055,0.15462207794189453,-0.0914759635925293
1761370116342365000,0.157364990234375,-0.05588579177856445,0.02458012104034424,0.24709868431091309
1761370116360977000,0.175976806640625,0.037400245666503906,-0.00551915168762207,0.09946012496948242
1761370116388893000,0.203892822265625,0.8799839019775391,0.30975914001464844,-0.4992091655731201
1761370116407505200,0.222505126953125,0.9741458892822266,0.3224954605102539,-1.1436488628387451
1761370116426115600,0.241115478515625,1.9850835800170898,0.30525875091552734,-2.1440954208374023
1761370116444727600,0.2597275390625,3.692870616912842,0.5645428895950317,-2.444624185562134
1761370116463338000,0.278337890625,5.1285905838012695,0.8184072971343994,-2.4639573097229004
1761370116481950200,0.2969501953125,6.98338508605957,1.1141538619995117,-3.12876558303833
1761370116500560600,0.315560546875,9.134420394897461,-1.6942620277404785,-0.059926748275756836
1761370116519172600,0.334172607421875,9.949912071228027,-2.5615780353546143,0.47731661796569824
1761370116537783000,0.352782958984375,8.926441192626953,-1.8681610822677612,0.4009068012237549
1761370116556395000,0.37139501953125,7.164109230041504,-1.517758846282959,-0.42789149284362793
1761370116575005700,0.390005615234375,5.328621864318848,-1.368990421295166,-0.9375364780426025
1761370116593617700,0.40861767578125,3.31234073638916,-0.5279151797294617,-0.33022069931030273
1761370116612228000,0.42722802734375,1.3483304977416992,0.5774752497673035,0.5842294692993164
1761370116630840000,0.445840087890625,-0.27845001220703125,1.531602144241333,0.527014970779419
1761370116649450800,0.46445068359375,-2.509568214416504,2.374861240386963,0.1568741798400879
1761370116668062700,0.483062744140625,-4.546941757202148,3.188333749771118,0.4435797929763794
1761370116686673200,0.501673095703125,-5.405792236328125,3.1163597106933594,1.194219946861267
1761370116705285000,0.52028515625,-4.017690658569336,3.5761361122131348,0.4186190366744995
1761370116723895800,0.538895751953125,-4.063577651977539,3.645108222961426,0.14603841304779053
1761370116742507800,0.5575078125,-5.1876420974731445,3.924165725708008,0.6646329164505005
1761370116761118200,0.5761181640625,-5.857741355895996,3.9210305213928223,1.3587520122528076
1761370116779730200,0.594730224609375,-5.163854122161865,3.83542537689209,3.354227304458618
1761370116798340900,0.6133408203125,-3.9854469299316406,5.602451324462891,1.581356406211853
1761370116816952800,0.631952880859375,-5.274126052856445,4.905716419219971,0.09747564792633057
1761370116835563300,0.650563232421875,-6.85057258605957,4.027353763580322,-0.12985897064208984
1761370116854175200,0.66917529296875,-6.809206008911133,3.9365463256835938,-0.3396940231323242
1761370116872786000,0.687785888671875,-5.900882720947266,4.717392921447754,-1.838560700416565
1761370116891398000,0.70639794921875,-3.222975254058838,5.591228008270264,-1.7191261053085327
1761370116910008300,0.72500830078125,-1.8210253715515137,4.86509895324707,0.2060227394104004
1761370116928620500,0.74362060546875,-1.9939069747924805,3.7078487873077393,1.5831780433654785
1761370116947231000,0.76223095703125,-3.645500659942627,1.9073976278305054,3.1213624477386475
1761370116965843000,0.780843017578125,-4.689878463745117,1.00753915309906,3.163473129272461
1761370116984453400,0.799453369140625,-4.509762287139893,0.5882468819618225,2.3486528396606445
1761370117003065600,0.818065673828125,-3.8807668685913086,0.2866777777671814,0.5559647679328918
1761370117021676000,0.836676025390625,-3.841846466064453,-0.7483292818069458,0.1989278942346573
1761370117040288000,0.8552880859375,-2.271845817565918,-0.8854489922523499,0.8285405039787292
1761370117058898400,0.8738984375,-1.5055770874023438,-1.2514011859893799,-0.3941405713558197
1761370117077510700,0.8925107421875,-1.9105987548828125,-2.1667661666870117,-1.8494049310684204
1761370117096121000,0.91112109375,1.2501201629638672,-2.7074410915374756,-2.7884583473205566
1761370117114733000,0.929733154296875,6.124442100524902,-4.3839430809021,-1.5795011520385742
1761370117133343500,0.948343505859375,11.391960144042969,-6.142628192901611,-0.8601336479187012
1761370117151955700,0.966955810546875,13.552567481994629,-6.000355243682861,-0.19024556875228882
1761370117170566100,0.985566162109375,12.241854667663574,-3.736082077026367,2.5735607147216797
1761370117189178000,1.00417822265625,10.623573303222656,-1.261048436164856,4.707540988922119
1761370117207788500,1.02278857421875,7.885866165161133,0.6718411445617676,2.2153539657592773
1761370117226400800,1.04140087890625,0.9750280380249023,0.9452410936355591,1.2626724243164062
1761370117245011200,1.06001123046875,-2.9566259384155273,0.24802303314208984,1.7643647193908691
1761370117263623200,1.078623046875,-0.9580068588256836,-0.24925994873046875,-0.15919756889343262
1761370117282233900,1.09723388671875,1.1555824279785156,0.08516287803649902,-0.34426212310791016
1761370117300845800,1.115845703125,1.8220252990722656,0.9722107648849487,-1.9910826683044434
1761370117319456300,1.134456298828125,-0.5537204742431641,1.2622289657592773,-3.3047711849212646
1761370117338068500,1.153068359375,-3.414510726928711,1.8687503337860107,-3.7670888900756836
1761370117356679000,1.171678955078125,-4.266083717346191,2.4307045936584473,-4.423367023468018
1761370117375291000,1.190290771484375,-4.3761372566223145,2.7651519775390625,-4.829547882080078
1761370117393901300,1.2089013671875,-4.363775730133057,3.0022246837615967,-4.049004077911377
1761370117412513500,1.227513427734375,-4.46323299407959,2.8393850326538086,-3.0150392055511475
1761370117431124000,1.2461240234375,-4.543668270111084,2.4598052501678467,-2.118520498275757
1761370117449736000,1.26473583984375,-4.278435230255127,1.9067606925964355,-2.3496735095977783
1761370117468346600,1.2833466796875,-4.2637152671813965,1.6076045036315918,-2.6576554775238037
1761370117486958600,1.30195849609375,-5.497875213623047,1.3083261251449585,-1.9941014051437378
1761370117505569000,1.320569091796875,-6.334551811218262,1.1111959218978882,-1.1589560508728027
1761370117524181000,1.339180908203125,-6.648290157318115,0.8539769649505615,-0.6414011716842651
1761370117542791700,1.357791748046875,-5.059774398803711,0.5389288663864136,-1.0167802572250366
1761370117561403600,1.376403564453125,-2.3476409912109375,-0.13837052881717682,-1.1003007888793945
1761370117580014000,1.39501416015625,0.19588088989257812,-0.4786671996116638,-0.14617252349853516
1761370117598626300,1.413626220703125,2.8111534118652344,-0.5212754607200623,1.1907093524932861
1761370117617236700,1.43223681640625,5.546335220336914,-0.5063115358352661,2.7957980632781982
1761370117635848700,1.4508486328125,6.39649772644043,-1.2439525127410889,4.119126319885254
1761370117654459400,1.46945947265625,5.782432556152344,-0.7023581266403198,4.534593105316162
1761370117673071400,1.4880712890625,5.734458923339844,-0.22694635391235352,5.475616455078125
1761370117691681800,1.506681884765625,7.677400588989258,-0.32071518898010254,6.921022415161133
1761370117710293800,1.525293701171875,7.638343811035156,-0.4920191764831543,8.113846778869629
1761370117728904400,1.543904541015625,6.464053153991699,-0.0753171443939209,5.754411697387695
1761370117747516400,1.562516357421875,5.209053039550781,0.7856642007827759,4.0243330001831055
1761370117766126800,1.581126953125,2.3792619705200195,1.2593690156936646,5.873234748840332
1761370117784739000,1.599739013671875,-0.16600322723388672,0.5078758001327515,7.7424516677856445
1761370117803349500,1.618349609375,0.18711566925048828,-0.7954524755477905,4.816951274871826
1761370117821961500,1.63696142578125,2.8685989379882812,-1.8450373411178589,-0.41623902320861816
1761370117840572200,1.655572265625,5.732770919799805,-1.7292156219482422,-4.502522945404053
1761370117859184000,1.67418408203125,5.493614196777344,-0.5085768699645996,-4.98856258392334
1761370117877794600,1.692794677734375,2.4506587982177734,0.5646869540214539,-2.8571956157684326
1761370117896406500,1.711406494140625,-1.0714521408081055,1.570218563079834,-3.5205845832824707
1761370117915017200,1.730017333984375,-4.243936061859131,2.3519797325134277,-5.050483703613281
1761370117933629200,1.748629150390625,-6.367485046386719,2.7852909564971924,-4.694461822509766
1761370117952239900,1.767239990234375,-7.085902690887451,2.9791781902313232,-3.450565814971924
1761370117970851800,1.785851806640625,-6.986475944519043,2.870201587677002,-2.649602174758911
1761370117989462300,1.804462158203125,-6.67537784576416,2.4306867122650146,-2.5171360969543457
1761370118008074200,1.82307421875,-6.199152946472168,1.758082389831543,-2.7146928310394287
1761370118026685000,1.841684814453125,-5.3773980140686035,1.159217119216919,-3.065150260925293
1761370118045297000,1.860296875,-4.7347331047058105,0.5843572616577148,-2.661573886871338
1761370118063907300,1.8789072265625,-4.810628414154053,0.15656507015228271,-1.3389995098114014
1761370118082519600,1.89751953125,-4.8214802742004395,-0.1300002932548523,-0.5532493591308594
1761370118101130000,1.9161298828125,-4.225699424743652,-0.38371390104293823,-1.1444119215011597
1761370118119742000,1.934741943359375,-3.996002197265625,-0.4290224313735962,-1.4116873741149902
1761370118138352600,1.9533525390625,-2.971719741821289,-0.3878668546676636,-1.0315214395523071
1761370118156964600,1.971964599609375,-0.5826234817504883,-0.2595179080963135,0.16332507133483887
1761370118175575000,1.990574951171875,2.180556297302246,-0.049202680587768555,1.1839404106140137
1761370118194187300,2.009187255859375,4.628623008728027,-0.3852052688598633,2.0058183670043945
1761370118212797700,2.027797607421875,7.050615310668945,-0.3004016876220703,0.670651912689209
1761370118231409700,2.04640966796875,7.633126258850098,0.08432865142822266,-0.5132095813751221
1761370118250020400,2.065020263671875,6.803108215332031,0.03027510643005371,0.6727359294891357
1761370118268632300,2.08363232421875,4.3565568923950195,-0.20942282676696777,1.8173737525939941
1761370118287242800,2.10224267578125,3.565972328186035,-0.9680961966514587,0.7801581621170044
1761370118305855000,2.12085498046875,5.258827209472656,-1.9064868688583374,2.158992052078247
1761370118324465400,2.13946533203125,7.070701599121094,-2.0526208877563477,4.966424465179443
1761370118343077400,2.158077392578125,4.751869201660156,-1.7431063652038574,6.150045394897461
1761370118361688000,2.17668798828125,1.6642827987670898,-1.1810340881347656,6.055460453033447
1761370118380300000,2.195300048828125,0.19973468780517578,-0.7660962343215942,4.285207748413086
1761370118398910500,2.213910400390625,0.3647909164428711,0.3300631046295166,0.5890190601348877
1761370118417522700,2.232522705078125,0.076202392578125,1.6417182683944702,-1.4952526092529297
1761370118436133000,2.251133056640625,-0.18889713287353516,2.378469705581665,-1.5939863920211792
1761370118454745000,2.2697451171875,0.30211448669433594,3.407674789428711,-2.513420581817627
1761370118473355500,2.28835546875,-0.09225940704345703,4.0309553146362305,-3.5118658542633057
1761370118491967700,2.3069677734375,-1.455348014831543,3.7201597690582275,-3.883833169937134
1761370118510578200,2.325578125,-2.8617334365844727,3.875447988510132,-3.509650945663452
1761370118529190100,2.344190185546875,-4.3451361656188965,3.54038667678833,-1.962866187095642
1761370118547800800,2.36280078125,-4.683957576751709,3.16986083984375,-0.8456695079803467
1761370118566412800,2.381412841796875,-4.357005596160889,2.7937026023864746,-0.8720377087593079
1761370118585023200,2.400023193359375,-4.622282981872559,1.946838617324829,-1.32637619972229
1761370118603635500,2.418635498046875,-4.91035795211792,1.50687575340271,-1.6080924272537231
1761370118622246000,2.437245849609375,-4.1288862228393555,0.9013596177101135,-0.8222334384918213
1761370118640857900,2.45585791015625,-2.903130531311035,0.6492296457290649,-0.012439250946044922
1761370118659468500,2.474468505859375,-2.583055019378662,0.3444879651069641,1.280242919921875
1761370118678080500,2.49308056640625,-2.4457974433898926,-0.36969536542892456,2.289750576019287
1761370118696691000,2.51169091796875,-0.7024049758911133,-0.4047442078590393,1.9618905782699585
1761370118715303200,2.53030322265625,0.7475776672363281,-0.830768346786499,1.9874485731124878
1761370118733913600,2.54891357421875,1.1268959045410156,-1.0481221675872803,1.8109441995620728
1761370118752525800,2.56752587890625,2.5512142181396484,-1.1320981979370117,1.7703258991241455
1761370118771136300,2.58613623046875,5.674039840698242,-1.5754518508911133,1.5988008975982666
1761370118789748200,2.604748291015625,7.565983772277832,-1.7580721378326416,0.31964725255966187
1761370118808358700,2.623358642578125,8.307846069335938,-2.0481367111206055,-0.4554092288017273
1761370118826971000,2.641970947265625,10.165349006652832,-2.4402542114257812,-0.7281195521354675
1761370118845581300,2.660581298828125,11.435707092285156,-2.5670340061187744,-0.1374269723892212
1761370118864193300,2.679193359375,11.22726821899414,-2.2789371013641357,0.5354472398757935
1761370118882804000,2.697803955078125,9.190767288208008,-1.8368120193481445,0.22994659841060638
1761370118901416000,2.716416015625,5.730120658874512,-0.9774881601333618,-0.5776960253715515
1761370118920026400,2.7350263671875,2.321507453918457,-0.01844048500061035,-0.8298935890197754
1761370118938638600,2.753638671875,-0.4561023712158203,0.014129400253295898,1.3099597692489624
1761370118957249000,2.7722490234375,-1.759486198425293,0.18153119087219238,2.3651633262634277
1761370118975861000,2.790861083984375,-3.456357479095459,0.12648892402648926,0.821384072303772
1761370118994471700,2.8094716796875,-4.508205890655518,0.15715157985687256,-1.6508681774139404
1761370119013083600,2.828083740234375,-4.681002140045166,0.6847434043884277,-3.322381019592285
1761370119031694000,2.846694091796875,-4.335832118988037,1.1457375288009644,-2.6042580604553223
1761370119050306300,2.865306396484375,-3.59814453125,1.6353596448898315,-1.1202549934387207
1761370119068916700,2.883916748046875,-3.12831449508667,2.0169897079467773,-0.3004080355167389
1761370119087528700,2.90252880859375,-4.513183116912842,2.043952226638794,-0.04743760824203491
1761370119106139400,2.921139404296875,-7.124795913696289,1.7751773595809937,-0.22863245010375977
1761370119124751400,2.93975146484375,-9.040064811706543,1.358872890472412,-0.38843995332717896
1761370119143361800,2.95836181640625,-9.64163589477539,0.9244744777679443,-0.5349193811416626
1761370119161974000,2.97697412109375,-8.308625221252441,0.13683032989501953,-0.5065255165100098
1761370119180584400,2.99558447265625,-6.365321159362793,-0.24394607543945312,-0.7852007150650024
1761370119199196400,3.014196533203125,-4.949392318725586,-1.2429512739181519,-0.02297210693359375
1761370119217807000,3.03280712890625,-4.268336296081543,-1.3319854736328125,0.2437828779220581
1761370119236419000,3.051419189453125,-4.539615631103516,-0.7949624061584473,0.33869731426239014
1761370119255029800,3.07002978515625,-4.7325568199157715,-0.3845207691192627,0.6759839057922363
1761370119273641700,3.088641845703125,-3.320481300354004,-0.04158592224121094,1.71895170211792
1761370119292252200,3.107252197265625,-1.024017333984375,-0.10528373718261719,2.554844617843628
1761370119310864100,3.125864013671875,1.515167236328125,-0.0011017322540283203,1.6518690586090088
1761370119329474800,3.144474853515625,3.7040023803710938,0.04455852508544922,-0.36609095335006714
1761370119348086800,3.163086669921875,5.67378044128418,0.34882450103759766,-0.8018255233764648
1761370119366697500,3.181697509765625,7.008525848388672,0.18886899948120117,-1.4503884315490723
1761370119385309400,3.200309326171875,7.558237075805664,0.03635597229003906,-1.7329792976379395
1761370119403920000,3.218919921875,7.900426864624023,1.8712453842163086,-2.877737522125244
1761370119422531800,3.23753173828125,8.241286277770996,2.1379494667053223,-1.5009570121765137
1761370119441142500,3.256142578125,9.088762283325195,2.762845039367676,-0.46331244707107544
1761370119459754500,3.27475439453125,8.971027374267578,2.6811602115631104,1.0596798658370972
1761370119478365200,3.293365234375,6.78366756439209,1.9328277111053467,0.019609391689300537
1761370119496977200,3.31197705078125,3.1312828063964844,0.1572716236114502,-1.0526314973831177
1761370119515587600,3.330587646484375,1.1758365631103516,0.3940858840942383,-1.440611720085144
1761370119534199800,3.34919970703125,1.0000247955322266,0.8201596736907959,0.5243249535560608
1761370119552810200,3.367810302734375,1.1487607955932617,1.7652182579040527,0.8879858255386353
1761370119571422200,3.386422119140625,-0.5995101928710938,0.3999018669128418,1.3065584897994995
1761370119590033000,3.405032958984375,-3.4659743309020996,-1.1954219341278076,0.2193656712770462
1761370119608644900,3.423644775390625,-5.252737522125244,-0.6830801963806152,-1.9130442142486572
1761370119627255300,3.44225537109375,-5.5842156410217285,-0.6587605476379395,-1.7053369283676147
1761370119645867500,3.460867431640625,-5.334524154663086,-0.1588287353515625,-1.8513212203979492
1761370119664478000,3.47947802734375,-5.261423587799072,-0.07566475868225098,-1.073573350906372
1761370119683090000,3.49808984375,-5.176260471343994,-0.2102220058441162,-0.7662357091903687
1761370119701700600,3.51670068359375,-4.792144775390625,-0.7505542039871216,-0.8359226584434509
1761370119720312600,3.5353125,-4.78480339050293,-2.087442636489868,0.19330447912216187
1761370119738923000,3.553923095703125,-4.806629657745361,-2.4716618061065674,0.3624359369277954
1761370119757535200,3.57253515625,-5.163918495178223,-2.1598691940307617,-0.11505410075187683
1761370119776145700,3.591145751953125,-5.39084529876709,-2.017106771469116,0.4293898046016693
1761370119794757600,3.609757568359375,-5.220651149749756,-1.653397798538208,0.7982036471366882
1761370119813368300,3.628368408203125,-4.193434238433838,-1.0448050498962402,0.8401522636413574
1761370119831980300,3.646980224609375,-1.6717138290405273,-0.2974367141723633,0.646740198135376
1761370119850590700,3.6655908203125,1.3688116073608398,0.7806434631347656,0.6938705444335938
1761370119869203000,3.684202880859375,2.5979747772216797,0.9393124580383301,1.3528410196304321
1761370119887813400,3.7028134765625,3.681412696838379,1.7959814071655273,0.7509219646453857
1761370119906425300,3.72142529296875,5.52338981628418,2.794160842895508,-0.42402446269989014
1761370119925036000,3.7400361328125,7.512940406799316,3.557682514190674,-1.0258389711380005
1761370119943648000,3.75864794921875,8.372719764709473,5.087313652038574,-1.22353994846344
1761370119962258400,3.777258544921875,8.792803764343262,5.44553804397583,0.07013408839702606
1761370119980870700,3.79587060546875,9.418708801269531,5.280850410461426,1.0129573345184326
1761370119999481000,3.814481201171875,9.031806945800781,4.136975288391113,2.7446541786193848
1761370120018093000,3.833093017578125,7.256130218505859,1.9737372398376465,3.3201403617858887
1761370120036703700,3.851703857421875,4.227836608886719,0.6227068901062012,1.137216567993164
1761370120055315700,3.870315673828125,2.1881322860717773,0.23232078552246094,-0.4152085781097412
1761370120073926100,3.888926025390625,2.4806137084960938,1.2150113582611084,0.3647599220275879
1761370120092538400,3.907538330078125,1.5669260025024414,1.4299054145812988,1.8540338277816772
1761370120111148800,3.926148681640625,-1.5229387283325195,0.3644709587097168,0.8442143797874451
1761370120129760800,3.9447607421875,-5.004774570465088,-0.10785055160522461,-1.8019198179244995
1761370120148371500,3.963371337890625,-7.695959568023682,-0.5705485343933105,-3.7089338302612305
1761370120166983400,3.9819833984375,-8.430486679077148,-1.0462093353271484,-3.6199004650115967
1761370120185593900,4.00059375,-7.621725559234619,-0.6818511486053467,-2.4927446842193604
1761370120204206000,4.0192060546875,-6.093538284301758,-0.976804256439209,-0.4012051820755005
1761370120222816500,4.03781640625,-4.8891520500183105,-1.2933006286621094,0.29217982292175293
1761370120241428500,4.056428466796875,-4.77581262588501,-2.143437385559082,0.025028318166732788
1761370120260039200,4.0750390625,-5.373561859130859,-3.4403293132781982,0.3569284677505493
1761370120278651100,4.093651123046875,-6.09958553314209,-3.6498208045959473,0.2317858636379242
1761370120297261600,4.112261474609375,-6.673154830932617,-3.9408798217773438,0.4326862692832947
1761370120315873800,4.130873779296875,-6.8854827880859375,-3.799745559692383,0.45794177055358887
1761370120334484200,4.149484130859375,-6.568428993225098,-3.4521572589874268,0.6349395513534546
1761370120353096200,4.16809619140625,-5.990521430969238,-2.906172752380371,0.8473546504974365
1761370120371707000,4.186706787109375,-5.074075698852539,-1.9810035228729248,0.8901748657226562
1761370120390318800,4.20531884765625,-3.5605626106262207,-1.2720155715942383,0.7091045379638672
1761370120408929300,4.22392919921875,-0.6752686500549316,0.06031179428100586,0.10055184364318848
1761370120427541500,4.24254150390625,2.1136813163757324,0.5569705963134766,0.15788030624389648
1761370120446152000,4.26115185546875,3.4207253456115723,0.7164983749389648,0.7258636355400085
1761370120464764000,4.279763916015625,4.007791996002197,2.203911781311035,-1.5433146953582764
1761370120483374600,4.29837451171875,4.746216773986816,3.7841544151306152,-3.4896116256713867
1761370120501986600,4.316986572265625,6.769160270690918,4.430294990539551,-2.076683282852173
1761370120520597000,4.335596923828125,10.273521423339844,4.766869068145752,-0.3827483654022217
1761370120539209200,4.354209228515625,11.084144592285156,3.3334388732910156,1.4106839895248413
1761370120557819600,4.372819580078125,9.575148582458496,1.6165342330932617,2.3146445751190186
1761370120576431600,4.391431640625,6.005282402038574,0.25588440895080566,1.1187721490859985
1761370120595042300,4.410042236328125,2.997561454772949,-0.18984675407409668,-0.6020888686180115
1761370120613654300,4.428654296875,3.105666160583496,0.05382704734802246,0.6716095805168152
1761370120632264700,4.4472646484375,3.5230979919433594,0.8982346057891846,2.572598695755005
1761370120650877000,4.465876953125,1.5666007995605469,0.5547943115234375,2.2505390644073486
1761370120669487400,4.4844873046875,-1.539499282836914,0.7038819789886475,-0.7381391525268555
1761370120688099300,4.503099365234375,-3.689944267272949,0.5193300247192383,-2.506589889526367
1761370120706710000,4.5217099609375,-4.089756488800049,0.7759153842926025,-2.651416778564453
1761370120725322000,4.540322021484375,-4.106433868408203,1.0243010520935059,-1.8345739841461182
1761370120743932400,4.558932373046875,-4.074356555938721,1.2397868633270264,-0.4692380428314209
1761370120762544600,4.577544677734375,-4.482178211212158,1.4961066246032715,0.20670509338378906
1761370120781155000,4.596155029296875,-5.4519124031066895,1.1986572742462158,0.24066579341888428
1761370120799767000,4.61476708984375,-6.2604217529296875,0.6541218757629395,0.35195910930633545
1761370120818377700,4.633377685546875,-6.6559834480285645,0.12613415718078613,0.4243992567062378
1761370120836989700,4.65198974609375,-6.223156929016113,-0.5901978015899658,0.7463245391845703
1761370120855600000,4.67060009765625,-5.1178107261657715,-1.1996686458587646,0.6431574821472168
1761370120874212400,4.68921240234375,-4.705625057220459,-1.6036968231201172,0.3695424795150757
1761370120892822800,4.70782275390625,-4.804801940917969,-1.5116944313049316,0.35857725143432617
1761370120911434800,4.726434814453125,-3.9361047744750977,-1.2418155670166016,0.3261374235153198
1761370120930045400,4.74504541015625,-1.6323843002319336,-0.8763320446014404,0.09714317321777344
1761370120948657400,4.763657470703125,0.4538402557373047,-0.32941150665283203,-0.44292736053466797
1761370120967267800,4.782267822265625,2.6643848419189453,-0.5119128227233887,-0.1400977373123169
1761370120985880000,4.800880126953125,5.935168266296387,-0.6523542404174805,-0.4756007194519043
1761370121004490500,4.819490478515625,7.7619171142578125,-0.6662659645080566,-3.4791665077209473
1761370121023102500,4.8381025390625,7.911250114440918,1.352649211883545,-6.512538433074951
1761370121041713200,4.856713134765625,8.387882232666016,3.2564492225646973,-3.2230734825134277
1761370121060325000,4.8753251953125,11.008062362670898,4.4748454093933105,3.716611385345459
1761370121078935600,4.893935546875,12.499970436096191,4.245570182800293,6.940065860748291
1761370121097547800,4.9125478515625,10.051841735839844,3.0545806884765625,4.735136032104492
1761370121116158200,4.931158203125,5.072755813598633,1.8801047801971436,2.1016135215759277
1761370121134770200,4.949770263671875,1.5896682739257812,0.9174726009368896,1.5056016445159912
1761370121153380900,4.968380859375,1.203181266784668,0.4172983169555664,1.7052581310272217
1761370121171992800,4.986992919921875,1.440739631652832,0.5073094367980957,1.0355722904205322
1761370121190603300,5.005603271484375,0.23840999603271484,0.658886194229126,-0.4671124219894409
1761370121209215500,5.024215576171875,-2.1449737548828125,0.6224853992462158,-1.3292758464813232
1761370121227826000,5.042825927734375,-4.091591835021973,1.7936347723007202,-1.554302453994751
1761370121246438000,5.06143798828125,-5.838655471801758,2.0357465744018555,-0.24004268646240234
1761370121265048600,5.080048583984375,-7.156180381774902,2.275343894958496,-0.3462267816066742
1761370121283660500,5.09866064453125,-7.181581497192383,1.888782262802124,-0.23364460468292236
1761370121302271000,5.11727099609375,-6.293521881103516,1.1691656112670898,0.4229467511177063
1761370121320883200,5.13588330078125,-6.059274196624756,0.28683018684387207,0.6586720943450928
1761370121339493600,5.15449365234375,-6.8037214279174805,-0.5588107109069824,0.07745999097824097
1761370121358105600,5.173105712890625,-7.565361022949219,-1.1462613344192505,-0.538657009601593
1761370121376716300,5.19171630859375,-7.549755573272705,-1.496713399887085,-0.4858555495738983
1761370121395328300,5.210328369140625,-6.523860931396484,-1.5539076328277588,0.35136568546295166
1761370121413938700,5.228938720703125,-5.2522783279418945,-1.4348742961883545,1.1266024112701416
1761370121432551000,5.247551025390625,-3.936513900756836,-1.2616345882415771,0.9076687097549438
1761370121451161300,5.266161376953125,-2.296206474304199,-1.346235990524292,0.2965277135372162
1761370121469773300,5.284773193359375,-0.14534664154052734,-1.1823549270629883,0.9376672506332397
1761370121488384000,5.303384033203125,2.136812210083008,-0.8702735900878906,1.0891082286834717
1761370121506996000,5.321995849609375,4.102804183959961,-0.33893585205078125,0.9728943705558777
1761370121525606400,5.3406064453125,5.656003952026367,0.4268984794616699,0.08742247521877289
1761370121544218400,5.35921826171875,6.989510536193848,1.478736400604248,-2.8225226402282715
1761370121562829000,5.3778291015625,7.963094711303711,1.8759074211120605,-3.2387757301330566
1761370121581441000,5.39644091796875,8.024093627929688,2.0243892669677734,0.09250551462173462
1761370121600051500,5.415051513671875,6.907214164733887,1.8935461044311523,3.2666311264038086
1761370121618663700,5.43366357421875,5.319879531860352,0.543973445892334,2.3223628997802734
1761370121637274000,5.452274169921875,3.6319618225097656,0.020328283309936523,-1.1680240631103516
1761370121655886000,5.470885986328125,3.3746070861816406,1.3359408378601074,-1.6570425033569336
1761370121674496800,5.489496826171875,3.4332923889160156,2.870225191116333,0.7342430353164673
1761370121693108700,5.508108642578125,2.335883140563965,3.389723777770996,2.739173412322998
1761370121711719200,5.52671923828125,-1.1177845001220703,3.9163596630096436,1.8380186557769775
1761370121730331400,5.545331298828125,-5.902678489685059,3.3485913276672363,0.31834912300109863
1761370121748941800,5.56394189453125,-9.111248016357422,2.8903861045837402,-0.3678154945373535
1761370121767553800,5.5825537109375,-8.507235527038574,2.4515299797058105,0.017341256141662598
1761370121786164500,5.60116455078125,-4.669029712677002,1.607132911682129,-0.36421287059783936
1761370121804776400,5.6197763671875,-1.1634807586669922,0.735549807548523,-0.6357676982879639
1761370121823387000,5.638386962890625,-0.2377471923828125,-0.1959397792816162,-0.2307652235031128
1761370121841999000,5.6569990234375,-1.1438312530517578,-1.0504865646362305,-0.13142633438110352
1761370121860609500,5.675609619140625,-1.8853254318237305,-2.0841641426086426,-0.9394925236701965
1761370121879221500,5.694221435546875,-1.1600418090820312,-3.127490282058716,-1.2901991605758667
1761370121897832000,5.71283203125,0.5693845748901367,-3.4599595069885254,-0.6590782403945923
1761370121916444200,5.731444091796875,1.193568229675293,-3.778679609298706,0.6437234878540039
1761370121935054600,5.7500546875,1.4164304733276367,-3.9270100593566895,0.7460842132568359
1761370121953666600,5.76866650390625,2.3402156829833984,-3.5509488582611084,1.3439096212387085
1761370121972277200,5.78727734375,4.184896469116211,-3.113642454147339,1.9946415424346924
1761370121990889200,5.80588916015625,7.322218894958496,-2.921621084213257,1.5267493724822998
1761370122009499600,5.824499755859375,9.360186576843262,-3.112699031829834,0.9225858449935913
1761370122028112000,5.84311181640625,9.640240669250488,-1.312821388244629,0.03313767910003662
1761370122046722300,5.861722412109375,6.086064338684082,0.6719794273376465,-0.1093100905418396
1761370122065334300,5.880334228515625,1.6572723388671875,2.714704990386963,0.17117536067962646
1761370122083945000,5.898945068359375,-0.4659891128540039,2.8396496772766113,0.8326700925827026
1761370122102557000,5.917556884765625,-1.1204237937927246,1.4135494232177734,0.399308443069458
1761370122121167400,5.93616748046875,-1.735908031463623,-0.13534998893737793,-0.20294952392578125
1761370122139779300,5.954779296875,0.9357976913452148,0.41066813468933105,-0.2401343584060669
1761370122158390000,5.97339013671875,3.1094789505004883,2.4132132530212402,-0.6545619964599609
1761370122177002000,5.992001953125,2.26314640045166,3.373020887374878,0.09835565090179443
1761370122195612400,6.0106123046875,-1.2064085006713867,3.2444913387298584,1.3809467554092407
1761370122214224600,6.029224609375,-4.448802471160889,2.770474672317505,1.8199572563171387
1761370122232835000,6.0478349609375,-5.627407073974609,2.318241834640503,0.5969665050506592
1761370122251447000,6.066447021484375,-5.220688343048096,1.5447392463684082,-0.5772607326507568
1761370122270057700,6.0850576171875,-4.611063003540039,0.8988995552062988,-0.7401412725448608
1761370122288669700,6.103669677734375,-4.249231815338135,0.48914551734924316,-0.27540671825408936
1761370122307280100,6.122280029296875,-4.102949142456055,-0.12740612030029297,0.5862860679626465
1761370122325892400,6.140892333984375,-4.236544132232666,-1.0456748008728027,1.303842306137085
1761370122344502800,6.159502685546875,-4.905073642730713,-1.8955708742141724,1.2547461986541748
1761370122363114800,6.17811474609375,-6.012944221496582,-2.499778985977173,0.9502240419387817
1761370122381725400,6.196725341796875,-6.254650115966797,-2.6607115268707275,0.6622158885002136
1761370122400337400,6.21533740234375,-4.484742641448975,-2.841191291809082,1.6684807538986206
1761370122418947800,6.23394775390625,-2.338451385498047,-3.3490543365478516,2.8670670986175537
1761370122437559800,6.252559814453125,-1.3555593490600586,-3.4818544387817383,2.220796585083008
1761370122456170500,6.27117041015625,-0.8114008903503418,-2.874497890472412,0.6408253908157349
1761370122474782500,6.289782470703125,0.5001230239868164,-1.914905309677124,-0.2056230902671814
1761370122493393000,6.308392822265625,2.1523733139038086,0.21561050415039062,-1.6936445236206055
1761370122512005000,6.327005126953125,2.8857011795043945,1.5389795303344727,-1.86119544506073
1761370122530615600,6.345615478515625,4.613641738891602,1.622711181640625,-0.47620850801467896
1761370122549227500,6.3642275390625,6.825004577636719,2.019592761993408,0.23740053176879883
1761370122567838200,6.382838134765625,6.620126724243164,1.7240076065063477,2.526834011077881
1761370122586450200,6.4014501953125,5.032353401184082,1.0186901092529297,3.9964208602905273
1761370122605060600,6.420060546875,2.9423179626464844,-0.45186281204223633,2.9430441856384277
1761370122623672600,6.438672607421875,0.25921154022216797,-1.3169867992401123,0.5430893898010254
1761370122642283300,6.457283203125,-2.008430004119873,-1.0067005157470703,0.10022640228271484
1761370122660895200,6.475895263671875,-1.1553783416748047,-0.25969552993774414,0.33988356590270996
1761370122679505700,6.494505615234375,3.7672386169433594,-0.20391571521759033,2.0330255031585693
1761370122698118000,6.513117919921875,7.3810319900512695,-0.7949468493461609,3.5587925910949707
1761370122716728300,6.531728271484375,7.293539047241211,-0.0970427393913269,2.401195526123047
1761370122735340300,6.55034033203125,5.397554397583008,0.45111265778541565,-0.13084793090820312
1761370122753951000,6.568950927734375,2.8782520294189453,1.1279184818267822,-1.7791093587875366
1761370122772563000,6.58756298828125,0.18276405334472656,1.1467771530151367,-1.852250337600708
1761370122791173400,6.60617333984375,-2.428025245666504,1.3787620067596436,-1.4044206142425537
1761370122809785300,6.624785400390625,-5.029275894165039,1.4777971506118774,-0.478580117225647
1761370122828396000,6.64339599609375,-6.42022180557251,1.1170158386230469,0.9719151854515076
1761370122847008000,6.662008056640625,-6.217918395996094,0.37221813201904297,1.619347333908081
1761370122865618400,6.680618408203125,-6.738494396209717,-0.5361784100532532,1.286300539970398
1761370122884230700,6.699230712890625,-6.969033241271973,-1.103703498840332,0.5837059020996094
1761370122902841000,6.717841064453125,-6.759524822235107,-1.3397605419158936,0.011887207627296448
1761370122921453000,6.736453125,-5.24326229095459,-1.397106409072876,-0.17338302731513977
1761370122940063500,6.7550634765625,-2.7986721992492676,-1.977081298828125,0.4183206856250763
1761370122958675700,6.77367578125,-0.7033452987670898,-2.167865037918091,1.4021433591842651
1761370122977286100,6.7922861328125,1.0956134796142578,-1.8028151988983154,2.0860061645507812
1761370122995898000,6.810898193359375,4.117351531982422,-1.8676148653030396,1.420611023902893
1761370123014508800,6.8295087890625,7.2065935134887695,-0.11070561408996582,-1.6529457569122314
1761370123033120800,6.848120849609375,6.417411804199219,-0.286745548248291,-2.2593724727630615
1761370123051731200,6.866731201171875,6.342185974121094,1.7166762351989746,-4.930924415588379
1761370123070343400,6.885343505859375,5.812110900878906,3.188882350921631,-5.156057834625244
1761370123088953900,6.903953857421875,4.509757995605469,3.2977685928344727,-2.0308327674865723
1761370123107565800,6.92256591796875,3.8560590744018555,2.617344379425049,1.9491982460021973
1761370123126176300,6.94117626953125,3.814019203186035,0.625225305557251,2.8271961212158203
1761370123144788500,6.95978857421875,3.310445785522461,-0.44742798805236816,0.6512611508369446
1761370123163399000,6.97839892578125,3.5662527084350586,0.14438343048095703,-0.18504954874515533
1761370123182011000,6.997010986328125,3.5471458435058594,1.0723628997802734,1.5444095134735107
1761370123200621600,7.01562158203125,1.3186416625976562,1.6169989109039307,2.117866039276123
1761370123219233500,7.034233642578125,-1.6034183502197266,1.505754828453064,1.654319405555725
1761370123237844000,7.052843994140625,-3.9447970390319824,1.2208809852600098,0.9151818752288818
1761370123256456200,7.071456298828125,-5.1570611000061035,1.0233922004699707,0.5351412296295166
1761370123275066600,7.090066650390625,-5.207541465759277,1.3832097053527832,0.42313122749328613
1761370123293678600,7.1086787109375,-4.345905780792236,1.7752587795257568,0.9390261173248291
1761370123312289300,7.127289306640625,-3.4889068603515625,1.4933903217315674,1.727896809577942
1761370123330901200,7.1459013671875,-3.623802661895752,0.8752880096435547,1.7058496475219727
1761370123349511700,7.16451171875,-4.060566425323486,-0.16893458366394043,1.1814935207366943
1761370123377428700,7.1924287109375,-4.667376518249512,-1.7123839855194092,1.161864161491394
1761370123396040700,7.211040771484375,-4.447062969207764,-1.7110874652862549,0.8483455181121826
1761370123414651100,7.229651123046875,-3.780494213104248,-2.5542798042297363,1.3954038619995117
1761370123433263400,7.248263427734375,-3.4727039337158203,-3.774400234222412,1.8365161418914795
1761370123451873800,7.266873779296875,-3.4209351539611816,-3.8635201454162598,1.9467294216156006
1761370123470485800,7.28548583984375,-2.5095391273498535,-2.1269102096557617,2.2952828407287598
1761370123489096400,7.304096435546875,-0.8289794921875,-0.07958126068115234,2.753342866897583
1761370123507708400,7.32270849609375,1.3302345275878906,1.101850986480713,-0.27384626865386963
1761370123526318800,7.34131884765625,3.6598167419433594,1.65789794921875,-2.1662240028381348
1761370123544931000,7.35993115234375,5.24151086807251,1.8107638359069824,-1.9536505937576294
1761370123563541500,7.37854150390625,6.064106464385986,2.436652660369873,-2.1498661041259766
1761370123582153500,7.397153564453125,7.377009391784668,2.9247937202453613,-2.764284610748291
1761370123600764000,7.415763916015625,8.309844970703125,2.633263111114502,-4.001336097717285
1761370123619376000,7.434376220703125,8.433605194091797,2.2472734451293945,-2.960421085357666
1761370123637986600,7.452986572265625,7.271637916564941,1.0716757774353027,-0.18919920921325684
1761370123656598500,7.4715986328125,4.256113052368164,-0.5333032608032227,0.40907520055770874
1761370123675209000,7.490208984375,2.074962615966797,-0.06499052047729492,-1.2189933061599731
1761370123693821200,7.5088212890625,1.65802001953125,1.2166862487792969,-0.770172119140625
1761370123712431600,7.527431640625,1.106062889099121,1.1600160598754883,1.685981273651123
1761370123731043800,7.5460439453125,-0.43145179748535156,0.5725078582763672,2.35823392868042
1761370123749654300,7.564654296875,-1.6616644859313965,-0.4121403694152832,1.0867902040481567
1761370123768266200,7.583266357421875,-3.103707790374756,-0.8944559097290039,-1.6901233196258545
1761370123786876700,7.601876708984375,-4.726844787597656,-1.2205650806427002,-2.7999472618103027
1761370123805489000,7.620489013671875,-4.923242568969727,-1.029665470123291,-3.1097309589385986
1761370123824099300,7.639099365234375,-4.426738739013672,-1.4576799869537354,-2.6708450317382812
1761370123842711300,7.657711181640625,-3.7156505584716797,-2.7472245693206787,-0.6123508214950562
1761370123861321700,7.67632177734375,-3.230053424835205,-3.411963701248169,0.3654654324054718
1761370123879934000,7.694933837890625,-3.3151798248291016,-4.460163116455078,0.32776474952697754
1761370123898544400,7.71354443359375,-3.573904514312744,-5.112179756164551,0.018491283059120178
1761370123917156400,7.73215625,-3.651829719543457,-5.136035919189453,0.46394824981689453
1761370123935767000,7.75076708984375,-3.0186119079589844,-4.550241947174072,1.2310361862182617
1761370123954379000,7.76937890625,-0.9952497482299805,-3.3642377853393555,1.917505145072937
1761370123972989400,7.787989501953125,0.08197975158691406,-2.6808786392211914,1.227250337600708
1761370123991601700,7.8066015625,-0.22671937942504883,-1.2543067932128906,0.36839401721954346
1761370124010212000,7.825212158203125,1.230039119720459,1.2489476203918457,0.09906256198883057
1761370124028824000,7.843823974609375,4.5382914543151855,3.4277257919311523,-0.4954769015312195
1761370124047434500,7.8624345703125,5.888458251953125,3.2539443969726562,0.44238942861557007
1761370124066046700,7.881046630859375,5.320067882537842,4.656079292297363,-0.49932968616485596
1761370124084657200,7.8996572265625,3.316213607788086,6.372886657714844,-1.2138478755950928
1761370124103269000,7.91826904296875,0.3660407066345215,8.528609275817871,-1.5052134990692139
1761370124121879800,7.9368798828125,-2.0462419986724854,10.018509864807129,-2.4396862983703613
1761370124140491800,7.95549169921875,-3.632023572921753,6.797446250915527,-1.8468043804168701
1761370124159102200,7.974102294921875,-3.764514446258545,0.5485978126525879,0.24259081482887268
1761370124177714400,7.99271435546875,-1.0127849578857422,-1.849024772644043,-0.2828722596168518
1761370124196324900,8.011324951171876,2.9522953033447266,-0.8176565170288086,-0.36913806200027466
1761370124214936800,8.029936767578125,4.072875022888184,-0.17358875274658203,1.5860328674316406
1761370124233547300,8.04854736328125,1.5675458908081055,-0.21379375457763672,2.8228976726531982
1761370124252159500,8.067159423828125,-2.378396511077881,-1.242708683013916,3.3350231647491455
1761370124270770000,8.08577001953125,-4.524141788482666,-2.695064067840576,2.977414608001709
1761370124289382100,8.104382080078125,-4.5630950927734375,-2.7386891841888428,1.0179351568222046
1761370124307992600,8.12299267578125,-4.132437705993652,-2.547442674636841,-0.4033271074295044
1761370124326604500,8.1416044921875,-3.858161449432373,-2.9986019134521484,-0.83925461769104
1761370124345215000,8.160215087890625,-3.4333009719848633,-3.552022695541382,-0.6508592367172241
1761370124363827200,8.1788271484375,-2.553861618041992,-3.6213152408599854,-0.26827049255371094
1761370124382437600,8.197437744140625,-2.171083927154541,-3.8449182510375977,0.6767675876617432
1761370124401049600,8.216049560546875,-2.506748676300049,-4.061827182769775,1.5560415983200073
1761370124419660300,8.234660400390625,-3.2777957916259766,-4.365170478820801,2.0221078395843506
1761370124438272300,8.253272216796875,-3.9045186042785645,-4.435571193695068,2.3005504608154297
1761370124456882700,8.271882568359375,-3.778611660003662,-3.507699728012085,1.6383239030838013
1761370124475495000,8.290494873046875,-2.776549816131592,-2.4151432514190674,0.712152361869812
1761370124494105300,8.309105224609375,-1.4100451469421387,-1.2602953910827637,1.044860601425171
1761370124512717300,8.32771728515625,0.997319221496582,1.5837316513061523,0.6447510719299316
1761370124531327700,8.34632763671875,4.698869705200195,4.219552040100098,-1.3774372339248657
1761370124549940000,8.36493994140625,6.612640857696533,4.464385986328125,-3.2302396297454834
1761370124568550400,8.38355029296875,6.690694808959961,4.071010589599609,-3.964540481567383
1761370124587162400,8.402162353515624,6.196994781494141,5.804067134857178,-4.757113456726074
1761370124605773000,8.42077294921875,4.603484630584717,8.669584274291992,-5.013304233551025
1761370124624385000,8.439385009765624,3.5441150665283203,10.147307395935059,-4.4612956047058105
1761370124642995500,8.457995361328125,1.8155908584594727,4.77034330368042,1.769445538520813
1761370124661607700,8.476607666015624,1.3661518096923828,1.293872356414795,4.241669654846191
1761370124680218000,8.495218017578125,3.3139400482177734,-0.5249471664428711,3.8211734294891357
1761370124698830000,8.513830078125,5.232425689697266,0.0915994644165039,2.560264825820923
1761370124717440500,8.5324404296875,3.6906919479370117,0.4656026363372803,2.304502487182617
1761370124736052700,8.551052734375,1.936488151550293,0.8956270217895508,1.318450689315796
1761370124754663200,8.5696630859375,1.1053266525268555,0.27863287925720215,-0.3607511520385742
1761370124773275100,8.588275146484374,0.20188426971435547,-0.4433410167694092,-1.8346920013427734
1761370124791885600,8.606885498046875,-1.5497779846191406,-1.0991296768188477,-1.7019965648651123
1761370124810497800,8.625497802734374,-3.7426934242248535,-1.5001869201660156,-0.6598301529884338
1761370124829108200,8.644108154296875,-5.7905755043029785,-1.922363042831421,0.3986295759677887
1761370124847720400,8.662720458984374,-6.993187427520752,-2.438541889190674,1.12760329246521
1761370124866330600,8.68133056640625,-6.680967330932617,-3.25107479095459,1.1412909030914307
1761370124884942800,8.69994287109375,-5.661409378051758,-4.4691972732543945,0.7428470849990845
1761370124903553300,8.71855322265625,-4.8093719482421875,-5.366786956787109,0.028565317392349243
1761370124922165500,8.73716552734375,-4.356557846069336,-5.556329727172852,-0.5823577642440796
1761370124940776000,8.75577587890625,-4.3122968673706055,-5.306019306182861,0.23417723178863525
1761370124959388000,8.774387939453124,-3.9515531063079834,-4.113668441772461,0.9773798584938049
1761370124977998300,8.792998291015625,-4.234849452972412,-1.5401983261108398,0.7998877167701721
1761370124996610600,8.811610595703126,-4.805606842041016,0.6937046051025391,1.33572518825531
1761370125015221000,8.830220947265625,-3.05472993850708,0.6213159561157227,2.7611021995544434
1761370125033833000,8.8488330078125,2.4477438926696777,0.9348211288452148,1.2639305591583252
1761370125052443400,8.867443359375,6.470043659210205,0.39791297912597656,-0.6478066444396973
1761370125071055600,8.8860556640625,7.601736068725586,0.3932795524597168,-2.7179243564605713
1761370125089666000,8.904666015625,5.7380805015563965,2.733773708343506,-3.719104290008545
1761370125108278300,8.9232783203125,1.6595520973205566,5.192702770233154,-1.9630340337753296
1761370125126888700,8.941888671875,-2.4135866165161133,8.031875610351562,-0.9982870221138
1761370125145500700,8.960500732421876,-5.420157432556152,5.8248982429504395,-0.7891162037849426
1761370125164111000,8.979111083984375,-4.651812553405762,0.2638082504272461,-2.2764482498168945
1761370125182723300,8.997723388671876,0.21873760223388672,-0.6942906379699707,-3.309563159942627
1761370125201333800,9.016333740234375,6.281591415405273,0.9402766227722168,-0.7860758304595947
1761370125219945700,9.03494580078125,9.435473442077637,-0.35907483100891113,3.673804521560669
1761370125238556200,9.05355615234375,8.14137077331543,-0.060521841049194336,5.425404071807861
1761370125257168400,9.07216845703125,4.110964775085449,0.13611435890197754,2.8297390937805176
1761370125275778800,9.09077880859375,-0.34542179107666016,-0.16863298416137695,-0.650619626045227
1761370125294390800,9.109390869140626,-3.721435546875,-1.029653787612915,-3.1994709968566895
1761370125313001500,9.12800146484375,-5.582002639770508,-1.987116813659668,-3.597641706466675
1761370125331613400,9.146613525390626,-5.588350296020508,-1.4036781787872314,-3.488469362258911
1761370125350224000,9.165223876953124,-3.4614028930664062,-0.7752981185913086,-3.5628695487976074
1761370125368836000,9.183836181640626,-0.8907337188720703,-2.194326400756836,-3.0433506965637207
1761370125387446500,9.202446533203124,-0.22313690185546875,-4.062129020690918,-0.9391741752624512
1761370125406058500,9.22105859375,-0.36090755462646484,-3.7127954959869385,-0.7011880874633789
1761370125424669000,9.2396689453125,-0.9976596832275391,-3.802830457687378,-0.056736111640930176
1761370125443281200,9.25828125,-1.3676023483276367,-3.88623309135437,1.3624104261398315
1761370125461891600,9.2768916015625,-1.1476407051086426,-2.916388511657715,2.106527805328369
1761370125480503600,9.295503662109375,-0.8739805221557617,0.2552189826965332,0.6269652843475342
1761370125499114200,9.3141142578125,-2.369727611541748,1.7433819770812988,1.3847236633300781
1761370125517726200,9.332726318359375,-2.246492862701416,2.665783405303955,0.5048361420631409
1761370125536336600,9.351336669921874,1.7836718559265137,1.9501533508300781,-2.1185946464538574
1761370125554948900,9.369948974609375,5.4645256996154785,1.9175982475280762,-2.431978702545166
1761370125573559300,9.388559326171874,5.594676971435547,3.8283228874206543,0.7954204082489014
1761370125592171300,9.407171142578125,1.3430166244506836,3.3498644828796387,4.095096588134766
1761370125610781700,9.42578173828125,-2.8038511276245117,-0.020714282989501953,3.1844370365142822
1761370125629394000,9.444393798828125,-2.8333306312561035,-1.0785889625549316,-1.4408907890319824
1761370125648004400,9.46300439453125,1.3331184387207031,2.1646714210510254,-2.1843514442443848
1761370125666616300,9.4816162109375,3.7393765449523926,1.5250921249389648,2.626723527908325
1761370125685227000,9.50022705078125,3.8332977294921875,-0.36379003524780273,3.2381703853607178
1761370125703839000,9.5188388671875,1.5471467971801758,-0.8050203323364258,-0.8462023138999939
1761370125722449400,9.537449462890624,-1.0051145553588867,-0.7955479621887207,-3.3414249420166016
1761370125741061600,9.5560615234375,-1.6100668907165527,-0.6694951057434082,-3.847583055496216
1761370125759672000,9.574672119140626,-0.9131979942321777,-1.0069575309753418,-1.4758765697479248
1761370125778284000,9.593283935546875,-0.010684013366699219,-1.9292995929718018,1.1078202724456787
1761370125796894500,9.61189453125,-1.4669508934020996,-3.057424306869507,1.8536936044692993
1761370125815506700,9.630506591796875,-2.4000697135925293,-2.7598674297332764,0.9322629570960999
1761370125834117000,9.6491171875,-1.7232637405395508,-1.8781237602233887,0.7502583265304565
1761370125852729300,9.667729248046875,-1.0600876808166504,-2.1746017932891846,2.2318005561828613
1761370125871339800,9.68633984375,-0.46310901641845703,-2.2924294471740723,2.5468928813934326
1761370125889951700,9.70495166015625,1.053792953491211,-1.3650736808776855,-0.009908854961395264
1761370125908562200,9.723562255859376,2.9185242652893066,-0.0901651382446289,-3.013873815536499
1761370125927174400,9.74217431640625,4.2674946784973145,1.6013007164001465,-3.2753968238830566
1761370125945784800,9.760784912109376,4.219215393066406,3.0676417350769043,-0.9412527084350586
1761370125964396800,9.779396728515625,3.2279152870178223,4.317482948303223,0.3714131712913513
1761370125983007200,9.79800732421875,1.440645694732666,5.023380756378174,-0.09061158448457718
1761370126001619500,9.816619384765625,-0.39911556243896484,4.076106548309326,0.7697951197624207
1761370126020230000,9.83522998046875,-1.8124971389770508,2.160524368286133,2.5241451263427734
1761370126038842000,9.853842041015625,-1.365626335144043,1.513596534729004,1.4794355630874634
1761370126057452500,9.87245263671875,2.2674007415771484,4.279897212982178,1.3038861751556396
1761370126076064500,9.891064453125,3.8783674240112305,4.503124713897705,5.751032829284668
1761370126094675000,9.909675048828126,2.0677804946899414,3.465503215789795,5.8841552734375
1761370126113287200,9.928287109375,-2.0274085998535156,0.5088448524475098,3.808117389678955
1761370126131897600,9.946897705078126,-4.199413776397705,-2.52347469329834,1.9553085565567017
1761370126150509600,9.965509521484375,-3.215951442718506,-5.322229862213135,1.0171657800674438
1761370126169120000,9.9841201171875,-0.7838239669799805,-4.277388095855713,-2.319830894470215
1761370126187732200,10.002732177734375,0.8188896179199219,-1.4074177742004395,-4.104684352874756
1761370126206342700,10.0213427734375,0.6499814987182617,-1.8677575588226318,-0.8913103938102722
1761370126224955000,10.039954833984375,-0.5009756088256836,-1.8348987102508545,1.3376786708831787
1761370126243565300,10.0585654296875,-2.307979106903076,-1.6714437007904053,1.8923503160476685
1761370126262177300,10.07717724609375,-4.09478759765625,-2.5639219284057617,1.4889216423034668
1761370126280787700,10.09578759765625,-4.488302230834961,-3.042438268661499,0.3768162727355957
1761370126299400000,10.11439990234375,-4.138910293579102,-3.3961496353149414,-0.28561726212501526
1761370126318010400,10.13301025390625,-2.561858654022217,-3.285299301147461,-0.7007181644439697
1761370126336622300,10.151622314453125,-0.9855465888977051,-3.031142234802246,-0.5515249967575073
1761370126355232800,10.170232666015625,-0.6768288612365723,-1.9153165817260742,0.6234387159347534
1761370126373845000,10.188844970703125,-1.8417081832885742,0.26469993591308594,0.8943253755569458
1761370126392455400,10.207455322265625,-2.6936898231506348,2.707490921020508,0.6519494652748108
1761370126411067400,10.2260673828125,-2.126542568206787,4.298008918762207,0.6525020599365234
1761370126429678000,10.244677978515625,0.5505414009094238,3.6967692375183105,0.6943460702896118
