time,seconds_elapsed,z,y,x
1761370796537403000,0.19440283203125,-0.4072399139404297,0.7523512840270996,0.006867498159408569
1761370796556013800,0.213013916015625,0.0010290145874023438,0.927556037902832,0.3480391204357147
1761370796574626000,0.2316259765625,-0.2659120559692383,0.743257999420166,0.48058268427848816
1761370796593237000,0.250237060546875,-0.26421356201171875,0.2209935188293457,0.4009023606777191
1761370796611849500,0.268849365234375,-0.43024253845214844,0.09600591659545898,0.29604846239089966
1761370796630460400,0.28746044921875,-0.5239124298095703,0.24523401260375977,0.13640335202217102
1761370796649072600,0.30607275390625,-0.3638267517089844,0.41964054107666016,0.029002368450164795
1761370796667683600,0.32468359375,0.028331756591796875,0.5666913986206055,-0.01096564531326294
1761370796686296000,0.343296142578125,0.4552803039550781,0.8516626358032227,-0.023006796836853027
1761370796704907000,0.361906982421875,0.6713809967041016,0.9707670211791992,0.33076393604278564
1761370796723519200,0.380519287109375,0.392791748046875,0.9680891036987305,0.7690876722335815
1761370796742130200,0.399130126953125,0.2388925552368164,1.3359742164611816,0.8644048571586609
1761370796760742700,0.41774267578125,0.4224691390991211,1.378209114074707,0.9676602482795715
1761370796779353600,0.436353515625,0.6319065093994141,0.9249930381774902,1.0039657354354858
1761370796797965800,0.4549658203125,1.1474027633666992,0.3461766242980957,1.015890121459961
1761370796816576800,0.47357666015625,0.9306192398071289,-0.3865489959716797,0.9836696982383728
1761370796835189200,0.492189208984375,-0.017388343811035156,-0.9403369426727295,0.6365074515342712
1761370796853800200,0.51080029296875,-0.7026739120483398,-1.0328361988067627,0.28964483737945557
1761370796872412400,0.529412353515625,-0.8242073059082031,-0.9445717334747314,0.09261035919189453
1761370796891023400,0.5480234375,-0.7342128753662109,-0.8259520530700684,-0.20019006729125977
1761370796909635800,0.5666357421875,-0.33179569244384766,-0.5601460933685303,-0.5093376636505127
1761370796928246800,0.585246826171875,0.37369346618652344,-0.4042980670928955,-0.5200214385986328
1761370796946859000,0.60385888671875,1.3175878524780273,-0.3391404151916504,-0.4227757453918457
1761370796965470000,0.622469970703125,1.8233757019042969,-0.4690842628479004,-0.2626819610595703
1761370796984082400,0.64108251953125,1.811457633972168,-0.5639069080352783,-0.07051205635070801
1761370797002693400,0.659693359375,1.3871889114379883,-0.4093172550201416,-0.04298567771911621
1761370797021305900,0.678305908203125,0.8796405792236328,-0.2621796131134033,0.015568256378173828
1761370797039916500,0.69691650390625,0.49070072174072266,-0.13502788543701172,0.026026487350463867
1761370797058529000,0.715529052734375,0.1168975830078125,-0.14039278030395508,0.14416992664337158
1761370797077140000,0.734139892578125,-0.1632823944091797,-0.1730332374572754,0.29021358489990234
1761370797095752400,0.75275244140625,-0.2613658905029297,-0.17488384246826172,0.4419233798980713
1761370797114363400,0.77136328125,-0.6629934310913086,-0.1231837272644043,0.2901623249053955
1761370797132975600,0.7899755859375,-1.0944018363952637,0.13821172714233398,0.14128971099853516
1761370797151586600,0.808586669921875,-1.3202829360961914,0.37275171279907227,0.12071108818054199
1761370797170199000,0.827198974609375,-1.2131519317626953,0.44297027587890625,0.1994861364364624
1761370797188810000,0.84581005859375,-1.010096549987793,0.3794260025024414,0.2625635862350464
1761370797207422200,0.864422119140625,-0.9377565383911133,0.3601694107055664,0.2689610719680786
1761370797226033200,0.883033203125,-0.9635467529296875,0.39576244354248047,0.32944226264953613
1761370797244645600,0.901645751953125,-1.0548062324523926,0.3796195983886719,0.455937922000885
1761370797263256600,0.920256591796875,-1.1465034484863281,0.42510461807250977,0.4386438727378845
1761370797281869000,0.938869140625,-1.2538433074951172,0.5430135726928711,0.30748939514160156
1761370797300479700,0.957479736328125,-1.2435388565063477,0.6550173759460449,0.21493053436279297
1761370797319092200,0.97609228515625,-0.9779195785522461,0.6983304023742676,0.18092143535614014
1761370797337703200,0.994703125,-0.7194252014160156,0.776827335357666,0.2799241542816162
1761370797356315600,1.013315673828125,-0.2832622528076172,0.6079559326171875,0.36514484882354736
1761370797374926300,1.03192626953125,-0.012326240539550781,0.6049013137817383,0.33105194568634033
1761370797393538800,1.050538818359375,0.18558216094970703,0.49257946014404297,0.36246323585510254
1761370797412149800,1.069149658203125,0.24524879455566406,0.45983362197875977,0.2312692403793335
1761370797430762200,1.08776220703125,0.3235921859741211,0.4506797790527344,0.05574595928192139
1761370797449373200,1.106373291015625,0.2974882125854492,0.43110084533691406,0.014110803604125977
1761370797467985400,1.1249853515625,0.2813577651977539,0.38629817962646484,0.003049015998840332
1761370797486596400,1.143596435546875,0.29932689666748047,0.30989646911621094,-0.14443159103393555
1761370797505208800,1.162208740234375,0.19714927673339844,0.25778627395629883,-0.31991052627563477
1761370797523819800,1.18081982421875,0.0987091064453125,0.33506202697753906,-0.5683034658432007
1761370797542432300,1.199432373046875,0.12801170349121094,0.5543913841247559,-0.739313006401062
1761370797561043200,1.218043212890625,0.2155599594116211,0.685671329498291,-0.642006516456604
1761370797579655400,1.236655517578125,0.7702474594116211,0.448819637298584,-0.2932547330856323
1761370797598266400,1.255266357421875,1.4300146102905273,-0.21387577056884766,0.24615973234176636
1761370797616878800,1.27387890625,1.6332874298095703,-0.9504604339599609,0.5940920114517212
1761370797635489800,1.29248974609375,1.3942041397094727,-1.5155622959136963,0.5921662449836731
1761370797654102000,1.31110205078125,0.6966180801391602,-1.7276320457458496,0.25483620166778564
1761370797672713000,1.329712890625,-0.054859161376953125,-1.7674691677093506,-0.010833263397216797
1761370797691325400,1.348325439453125,0.04795646667480469,-1.6188008785247803,-0.1280817985534668
1761370797709936400,1.366936279296875,0.10359764099121094,-1.6109867095947266,0.13181471824645996
1761370797728548900,1.385548828125,-0.5281581878662109,-1.5413060188293457,0.6665829420089722
1761370797747159600,1.40415966796875,-1.6126303672790527,-1.1929116249084473,0.9046728610992432
1761370797765772000,1.42277197265625,-2.6739044189453125,-0.6404223442077637,0.8318746089935303
1761370797784383000,1.441383056640625,-2.995382308959961,-0.04155445098876953,0.01916337013244629
1761370797802995500,1.459995361328125,-2.648557186126709,0.3988194465637207,-0.8041731119155884
1761370797821606400,1.4786064453125,-1.7894997596740723,0.4379463195800781,-0.8453747034072876
1761370797840218600,1.497218505859375,-0.5537862777709961,0.4647665023803711,-0.8451197147369385
1761370797858829600,1.51582958984375,0.6493139266967773,0.2968635559082031,-0.8927209377288818
1761370797877442000,1.534442138671875,1.472620964050293,0.3594188690185547,-1.1688909530639648
1761370797896053000,1.553052978515625,2.0653562545776367,0.2185676097869873,-1.0154685974121094
1761370797914665200,1.571665283203125,1.9615058898925781,0.11491179466247559,-0.9621268510818481
1761370797933276200,1.590276123046875,1.3895235061645508,0.0912623405456543,-1.0149205923080444
1761370797951888600,1.608888671875,0.8381967544555664,0.14802765846252441,-1.0592178106307983
1761370797970499600,1.62749951171875,0.5823211669921875,-0.005613088607788086,-0.8222466707229614
1761370797989112000,1.646112060546875,0.26741886138916016,-0.27127790451049805,-0.5835185050964355
1761370798007722800,1.66472265625,-0.26222991943359375,-0.4487485885620117,-0.4012840986251831
1761370798026335200,1.683335205078125,-0.9650030136108398,-0.5015738010406494,-0.2670316696166992
1761370798044946200,1.7019462890625,-1.5506391525268555,-0.4368577003479004,-0.2825329303741455
1761370798063558700,1.72055859375,-1.330883502960205,-0.2139890193939209,-0.4165482521057129
1761370798082169600,1.739169677734375,-0.7477941513061523,-0.1104283332824707,-0.29206109046936035
1761370798100781800,1.75778173828125,-0.2808656692504883,0.13566017150878906,0.1407771110534668
1761370798119392800,1.776392822265625,0.1694049835205078,0.45796680450439453,0.5793943405151367
1761370798138005200,1.795005126953125,0.2591562271118164,0.7028987407684326,0.8690208196640015
1761370798156616200,1.8136162109375,0.1417827606201172,0.8957891464233398,0.8484163284301758
1761370798175228700,1.832228759765625,-0.04944324493408203,0.919248104095459,0.8817751407623291
1761370798193839400,1.85083935546875,-0.013202667236328125,0.9157390594482422,0.866568386554718
1761370798212451800,1.869451904296875,0.45874977111816406,0.8364806175231934,0.8026137948036194
1761370798231062800,1.888062744140625,1.1559123992919922,0.7658991813659668,0.8649441003799438
1761370798249675300,1.90667529296875,1.6797542572021484,0.6207666397094727,1.170575499534607
1761370798268286200,1.9252861328125,1.7978525161743164,0.3865623474121094,1.4401371479034424
1761370798286898400,1.9438984375,1.7833871841430664,0.17162132263183594,1.2694816589355469
1761370798305509400,1.96250927734375,1.6646919250488281,-0.27083873748779297,0.9548169374465942
1761370798324121900,1.981121826171875,1.3085966110229492,-0.7225241661071777,0.6355195045471191
1761370798342732800,1.99973291015625,0.6583757400512695,-1.0004701614379883,0.3032684326171875
1761370798361345000,2.018344970703125,0.19549083709716797,-1.0769293308258057,0.16862130165100098
1761370798379956000,2.0369560546875,0.2834148406982422,-1.0504612922668457,0.009401202201843262
1761370798398568400,2.055568359375,0.7545232772827148,-1.208024501800537,-0.03022623062133789
1761370798417179400,2.074179443359375,1.140833854675293,-1.4809601306915283,0.09904694557189941
1761370798435792000,2.0927919921875,1.073465347290039,-1.573840856552124,0.30649107694625854
1761370798454402600,2.111402587890625,0.7181787490844727,-1.3950459957122803,0.5497922301292419
1761370798473015000,2.13001513671875,0.20220279693603516,-1.0026392936706543,0.6515202522277832
1761370798491626000,2.1486259765625,-0.2883272171020508,-0.6200289726257324,0.7316915392875671
1761370798510238500,2.167238525390625,-0.4967927932739258,-0.3079204559326172,0.9888850450515747
1761370798528849200,2.18584912109375,-0.2631368637084961,-0.2224874496459961,1.326013445854187
1761370798547461600,2.204461669921875,-0.05954170227050781,-0.4399733543395996,1.5369822978973389
1761370798566072600,2.223072509765625,0.08521842956542969,-0.7249646186828613,1.5327168703079224
1761370798584685000,2.24168505859375,-0.11863517761230469,-0.9211938381195068,0.9832772016525269
1761370798603296000,2.2602958984375,-0.7537899017333984,-1.003075361251831,0.5006750226020813
1761370798621908200,2.278908203125,-1.2601113319396973,-0.7712368965148926,0.25448352098464966
1761370798640519200,2.297519287109375,-1.4819011688232422,-0.6092772483825684,0.03211259841918945
1761370798659131600,2.316131591796875,-1.24064302444458,-0.2705411911010742,-0.20678305625915527
1761370798677742600,2.33474267578125,-0.8721637725830078,-0.0696420669555664,-0.15695524215698242
1761370798696355000,2.35335498046875,-0.6041784286499023,0.13854598999023438,-0.027318596839904785
1761370798714965800,2.3719658203125,-0.48326683044433594,0.3650393486022949,0.028910517692565918
1761370798733578200,2.390578125,-0.2888002395629883,0.6794767379760742,-0.05537056922912598
1761370798752189200,2.409189208984375,0.0783529281616211,1.0368165969848633,-0.07750999927520752
1761370798770801700,2.4278017578125,0.581512451171875,1.2494750022888184,0.04910755157470703
1761370798789412400,2.446412353515625,0.9355621337890625,1.2712745666503906,0.1890057921409607
1761370798808024800,2.46502490234375,1.1836967468261719,1.1550312042236328,0.29894113540649414
1761370798826635800,2.4836357421875,1.3273067474365234,0.9054303169250488,0.3978457450866699
1761370798845248300,2.502248291015625,1.228860855102539,0.6579546928405762,0.33006078004837036
1761370798863859000,2.52085888671875,0.7689752578735352,0.5913577079772949,0.18225115537643433
1761370798882471400,2.539471435546875,0.17469406127929688,0.6452231407165527,-0.0778048038482666
1761370798901082400,2.558082275390625,-0.25937652587890625,0.593137264251709,-0.2107234001159668
1761370798919694800,2.57669482421875,-0.3844003677368164,0.48468971252441406,-0.21783912181854248
1761370798938305800,2.595305908203125,-0.44301509857177734,0.2741384506225586,-0.29970085620880127
1761370798956918000,2.61391796875,-0.42585182189941406,-0.02487659454345703,-0.44675958156585693
1761370798975529000,2.632529052734375,-0.5182390213012695,-0.1340627670288086,-0.7190040349960327
1761370798994141400,2.651141357421875,-0.7251186370849609,-0.07021522521972656,-0.8826175928115845
1761370799012752400,2.66975244140625,-0.9159460067749023,0.01697826385498047,-0.823725700378418
1761370799031364600,2.688364501953125,-0.9435267448425293,-0.018898963928222656,-0.5821380615234375
1761370799049975600,2.7069755859375,-0.6291055679321289,-0.14323663711547852,-0.3136255741119385
1761370799068588000,2.725588134765625,-0.09089183807373047,-0.3239607810974121,-0.14335954189300537
1761370799087199000,2.744198974609375,0.6100025177001953,-0.5267925262451172,-0.1312311887741089
1761370799105811200,2.762811279296875,1.3083791732788086,-0.7870798110961914,-0.12721681594848633
1761370799124422100,2.781422119140625,1.7867956161499023,-0.9689569473266602,-0.0740281343460083
1761370799143034600,2.80003466796875,1.9274749755859375,-1.1228394508361816,0.13094115257263184
1761370799161645600,2.8186455078125,1.7321758270263672,-1.2431230545043945,0.3484690189361572
1761370799180258000,2.837258056640625,1.2176990509033203,-1.367638349533081,0.7149840593338013
1761370799198868700,2.85586865234375,0.36934375762939453,-1.434553623199463,1.0896313190460205
1761370799217481200,2.874481201171875,-0.5236830711364746,-1.2710771560668945,1.2284743785858154
1761370799236092200,2.893092041015625,-1.2602691650390625,-0.9939756393432617,1.2415885925292969
1761370799254704600,2.91170458984375,-1.741865634918213,-0.6678886413574219,1.0638171434402466
1761370799273315300,2.9303154296875,-1.8018407821655273,-0.40654754638671875,0.8774895668029785
1761370799291927800,2.948927734375,-1.4538321495056152,-0.39963865280151367,0.8770942091941833
1761370799310538800,2.967538818359375,-0.6571226119995117,-0.6524481773376465,0.8180451989173889
1761370799329151200,2.986151123046875,0.18152809143066406,-0.9120898246765137,0.5882095098495483
1761370799347762000,3.004761962890625,0.7752799987792969,-0.9996137619018555,0.2030797004699707
1761370799366374400,3.02337451171875,1.0591564178466797,-0.916776180267334,-0.21920692920684814
1761370799384985300,3.0419853515625,1.116098403930664,-0.7115941047668457,-0.5495700836181641
1761370799403597800,3.060597900390625,1.1593055725097656,-0.5355081558227539,-0.6795271635055542
1761370799422208800,3.079208740234375,1.1463994979858398,-0.4467015266418457,-0.7014672756195068
1761370799440821000,3.097821044921875,1.0866165161132812,-0.4629640579223633,-0.5755378007888794
1761370799459432000,3.116431884765625,0.8942108154296875,-0.4848208427429199,-0.3630741834640503
1761370799478044400,3.13504443359375,0.4326210021972656,-0.4630303382873535,-0.17904281616210938
1761370799496655400,3.1536552734375,-0.20733928680419922,-0.29929256439208984,-0.08631432056427002
1761370799515267600,3.172267578125,-0.7442045211791992,-0.043651580810546875,0.11889195442199707
1761370799533878500,3.19087841796875,-0.9946861267089844,0.2736372947692871,0.27848172187805176
1761370799552491000,3.209490966796875,-0.9001684188842773,0.5910677909851074,0.45490312576293945
1761370799571102000,3.22810205078125,-0.5489597320556641,0.731757640838623,0.7355093955993652
1761370799589714200,3.246714111328125,-0.07817745208740234,0.7623119354248047,0.8530169725418091
1761370799608325000,3.2653251953125,0.3033876419067383,0.711677074432373,0.8809798359870911
1761370799626937600,3.2839375,0.48633384704589844,0.6107568740844727,0.7539941072463989
1761370799645548500,3.302548583984375,0.5056753158569336,0.5232653617858887,0.5961920022964478
1761370799664160800,3.321160888671875,0.5989522933959961,0.48287439346313477,0.5060038566589355
1761370799682771700,3.339771728515625,0.7411956787109375,0.5387058258056641,0.3956780433654785
1761370799701384200,3.35838427734375,1.0554399490356445,0.6128711700439453,0.3522230386734009
1761370799719995000,3.376994873046875,1.5826873779296875,0.47345781326293945,0.579035758972168
1761370799738607400,3.395607421875,1.993544578552246,0.04840517044067383,0.8857927322387695
1761370799757218300,3.41421826171875,1.8974285125732422,-0.4961390495300293,0.9801808595657349
1761370799775830800,3.432830810546875,1.2038688659667969,-0.9257102012634277,0.847404956817627
1761370799794441700,3.451441650390625,0.20082950592041016,-1.0871233940124512,0.6336947083473206
1761370799813054000,3.470053955078125,-0.47911548614501953,-1.0331785678863525,0.3309115171432495
1761370799831665000,3.488664794921875,-0.6033039093017578,-1.0864534378051758,0.1955326795578003
1761370799850277400,3.50727734375,-0.31076812744140625,-1.1949293613433838,0.2861102819442749
1761370799868888300,3.525888427734375,0.19437122344970703,-1.3010680675506592,0.4978522062301636
1761370799887500500,3.54450048828125,0.7044239044189453,-1.4129037857055664,0.6788694262504578
1761370799906111500,3.563111572265625,0.9942827224731445,-1.530806541442871,0.8110316395759583
1761370799924724000,3.581723876953125,0.8887615203857422,-1.616523265838623,1.050247073173523
1761370799943335000,3.6003349609375,0.44178104400634766,-1.6215684413909912,1.4142396450042725
1761370799961947100,3.618947021484375,-0.23778724670410156,-1.5488030910491943,1.6156773567199707
1761370799980558000,3.63755810546875,-0.9715976715087891,-1.3705999851226807,1.592055320739746
1761370799999170600,3.656170654296875,-1.4728126525878906,-1.1178796291351318,1.4098657369613647
1761370800017781200,3.67478125,-1.3241777420043945,-0.8053278923034668,0.9963364005088806
1761370800036393700,3.693393798828125,-0.646085262298584,-0.5210990905761719,0.7084453105926514
1761370800055004700,3.712004638671875,0.09517860412597656,-0.2750363349914551,0.7502217292785645
1761370800073617200,3.7306171875,0.6332063674926758,-0.11185455322265625,0.8619101643562317
1761370800092228000,3.74922802734375,1.0943241119384766,-0.02651834487915039,0.7813558578491211
1761370800110840300,3.76784033203125,1.2542486190795898,-0.010033130645751953,0.5714540481567383
1761370800129451300,3.786451171875,1.1070146560668945,0.07783317565917969,0.24878692626953125
1761370800148063700,3.805063720703125,0.7167367935180664,0.27977752685546875,-0.015086531639099121
1761370800166674400,3.82367431640625,0.3312253952026367,0.4819035530090332,-0.019937992095947266
1761370800185287000,3.842286865234375,0.17847442626953125,0.6657066345214844,0.04213225841522217
1761370800203897900,3.86089794921875,0.2455615997314453,0.6880888938903809,-0.023418068885803223
1761370800222510300,3.87951025390625,0.2512826919555664,0.6374063491821289,-0.1312549114227295
1761370800241121000,3.89812109375,0.14212703704833984,0.669036865234375,-0.09833943843841553
1761370800259733500,3.9167333984375,0.04606437683105469,0.7267603874206543,0.11564922332763672
1761370800278344400,3.935344482421875,0.061882972717285156,0.8076987266540527,0.3683260679244995
1761370800296957000,3.95395703125,0.17061328887939453,0.7936663627624512,0.4872201681137085
1761370800315567600,3.972567626953125,0.23824310302734375,0.7498235702514648,0.46314430236816406
1761370800334180000,3.99118017578125,0.2849111557006836,0.7376799583435059,0.44828224182128906
1761370800352791000,4.009791015625,0.27074623107910156,0.7177128791809082,0.4678809642791748
1761370800371403300,4.0284033203125,0.13675403594970703,0.6799831390380859,0.48825156688690186
1761370800390014200,4.04701416015625,0.0026531219482421875,0.6197504997253418,0.5294833183288574
1761370800408626700,4.065626708984375,0.0552520751953125,0.4916253089904785,0.5154788494110107
1761370800427237600,4.084237548828125,0.2474193572998047,0.3324127197265625,0.47229743003845215
1761370800445849900,4.102849853515625,0.39194202423095703,0.23598670959472656,0.28402185440063477
1761370800464460800,4.121460693359375,0.5845937728881836,0.1360921859741211,0.13769245147705078
1761370800483073300,4.1400732421875,0.8221235275268555,-0.13640403747558594,0.14596796035766602
1761370800501684200,4.158684326171875,0.8026676177978516,-0.5448665618896484,0.10591864585876465
1761370800520296400,4.17729638671875,0.4455118179321289,-1.0807790756225586,-0.04327678680419922
1761370800538907400,4.195907470703125,-0.16347980499267578,-1.485107421875,-0.29035353660583496
1761370800557520000,4.214519775390625,-0.820500373840332,-1.6843938827514648,-0.5074450969696045
1761370800576130600,4.233130615234375,-1.3843379020690918,-1.609569787979126,-0.6499507427215576
1761370800594743000,4.251742919921875,-1.5856070518493652,-1.4222643375396729,-0.7116303443908691
1761370800613354000,4.27035400390625,-1.1040759086608887,-1.166825294494629,-0.6701991558074951
1761370800631966500,4.288966552734375,-0.10357666015625,-1.046191692352295,-0.533191442489624
1761370800650577200,4.3075771484375,0.674992561340332,-1.0256948471069336,-0.31896770000457764
1761370800669189600,4.326189697265625,1.0494260787963867,-0.9492616653442383,-0.2169361114501953
1761370800687800600,4.344800537109375,1.0636253356933594,-0.736290454864502,-0.07692182064056396
1761370800706412800,4.363412841796875,0.6439170837402344,-0.4236631393432617,0.07967352867126465
1761370800725023700,4.382023681640625,0.04538249969482422,-0.11152076721191406,0.2552419900894165
1761370800743636200,4.40063623046875,-0.44854021072387695,0.08890342712402344,0.3842540979385376
1761370800762247200,4.4192470703125,-0.6531162261962891,0.09937858581542969,0.3678644895553589
1761370800780859400,4.437859375,-0.6362204551696777,-0.08639049530029297,0.24265515804290771
1761370800799470300,4.45647021484375,-0.507296085357666,-0.2681393623352051,-0.08682370185852051
1761370800818082800,4.475082763671875,-0.2740039825439453,-0.39333248138427734,-0.4207116365432739
1761370800836693800,4.49369384765625,-0.017592430114746094,-0.4886660575866699,-0.5533238649368286
1761370800855306000,4.512305908203125,0.12174415588378906,-0.4983348846435547,-0.5892947912216187
1761370800873917000,4.5309169921875,0.11413002014160156,-0.44663333892822266,-0.7340505123138428
1761370800892529400,4.549529296875,0.08278656005859375,-0.2968173027038574,-0.9160089492797852
1761370800911140000,4.56814013671875,0.004523277282714844,-0.17461299896240234,-1.0047744512557983
1761370800929752600,4.586752685546875,-0.14746379852294922,-0.11626195907592773,-1.0570240020751953
1761370800948363500,4.605363525390625,-0.2684621810913086,-0.1192169189453125,-1.0576916933059692
1761370800966976000,4.62397607421875,-0.1934976577758789,-0.15451860427856445,-1.041032314300537
1761370800985586700,4.642586669921875,-0.07227230072021484,-0.1853160858154297,-1.0187090635299683
1761370801004199200,4.66119921875,-0.13532161712646484,-0.09870529174804688,-0.9716024398803711
1761370801022810000,4.67981005859375,-0.3695211410522461,0.09046077728271484,-0.8717451095581055
1761370801041422300,4.69842236328125,-0.4145021438598633,0.3514070510864258,-0.650959849357605
1761370801060033300,4.717033203125,-0.11008167266845703,0.572878360748291,-0.32535505294799805
1761370801078645800,4.735645751953125,0.3444986343383789,0.6359376907348633,-0.00750577449798584
1761370801097256700,4.754256591796875,0.5250186920166016,0.5887632369995117,0.21003735065460205
1761370801115869000,4.772868896484375,0.4069385528564453,0.5673503875732422,0.2383584976196289
1761370801134480000,4.79147998046875,0.32145118713378906,0.588475227355957,0.21170711517333984
1761370801153092400,4.81009228515625,0.569279670715332,0.6354255676269531,0.24616801738739014
1761370801171703000,4.828703125,1.0031089782714844,0.649233341217041,0.31515979766845703
1761370801190315500,4.8473154296875,1.2964229583740234,0.6261353492736816,0.41920793056488037
1761370801208926500,4.865926513671875,1.3246288299560547,0.5300350189208984,0.6508530974388123
1761370801227538700,4.88453857421875,1.2107715606689453,0.35671567916870117,1.027681827545166
1761370801246149600,4.903149658203125,0.8837299346923828,0.035649776458740234,1.3213337659835815
1761370801264762000,4.92176220703125,0.46972179412841797,-0.2884516716003418,1.284985065460205
1761370801283373000,4.940373046875,-0.045241355895996094,-0.6374683380126953,1.0579771995544434
1761370801301985300,4.9589853515625,-0.4737091064453125,-0.8743205070495605,0.7956850528717041
1761370801320596200,4.97759619140625,-0.6305437088012695,-1.0335123538970947,0.7469406723976135
1761370801339208700,4.996208740234375,-0.4242362976074219,-1.1879634857177734,0.7372432947158813
1761370801357819600,5.014819580078125,0.047661781311035156,-1.3580536842346191,0.6770714521408081
1761370801376431900,5.033431884765625,0.4328756332397461,-1.4694488048553467,0.6935187578201294
1761370801395042800,5.052042724609375,0.46030426025390625,-1.4605658054351807,0.8564802408218384
1761370801413655300,5.0706552734375,0.1749715805053711,-1.2799899578094482,0.889754056930542
1761370801432266000,5.089265869140625,-0.13036441802978516,-0.9288966655731201,0.8268932104110718
1761370801450878500,5.10787841796875,-0.13480567932128906,-0.5460505485534668,0.8375067710876465
1761370801469489400,5.126489501953125,0.05416584014892578,-0.2996082305908203,1.0129368305206299
1761370801488102000,5.145101806640625,0.2521982192993164,-0.12490415573120117,1.1912906169891357
1761370801506712600,5.163712646484375,0.6457319259643555,-0.027447223663330078,1.2609786987304688
1761370801525325000,5.182324951171875,0.9830436706542969,-0.05301809310913086,1.2671222686767578
1761370801543936000,5.20093603515625,0.8774480819702148,-0.11531209945678711,1.0404804944992065
1761370801562548200,5.21954833984375,0.43829917907714844,-0.09840774536132812,0.5740736722946167
1761370801581159200,5.2381591796875,-0.06131172180175781,0.01014852523803711,0.27130556106567383
1761370801599771600,5.256771728515625,-0.36307716369628906,0.1577134132385254,0.07435810565948486
1761370801618382600,5.275382568359375,-0.3941183090209961,0.2965736389160156,-0.05439639091491699
1761370801636994800,5.293994873046875,-0.34181785583496094,0.3834047317504883,-0.014297246932983398
1761370801655605800,5.312605712890625,-0.3175020217895508,0.4347109794616699,0.05693376064300537
1761370801674218200,5.33121826171875,-0.38176918029785156,0.4380006790161133,0.10360753536224365
1761370801692829200,5.3498291015625,-0.4642372131347656,0.4120049476623535,0.15716183185577393
1761370801711441400,5.36844140625,-0.48265647888183594,0.37238025665283203,0.14288341999053955
1761370801730052400,5.38705224609375,-0.3520488739013672,0.39620304107666016,0.1556333303451538
1761370801748664800,5.405664794921875,-0.1978435516357422,0.45444726943969727,0.30578601360321045
1761370801767275500,5.424275634765625,-0.05687713623046875,0.4707193374633789,0.354902982711792
1761370801785888000,5.442887939453125,0.10711956024169922,0.48917722702026367,0.1981872320175171
1761370801804499000,5.4614990234375,0.09917449951171875,0.5710501670837402,-0.04989957809448242
1761370801823111400,5.480111328125,-0.08969688415527344,0.7738080024719238,-0.2563595771789551
1761370801841722000,5.49872216796875,-0.19729042053222656,1.050692081451416,-0.2595123052597046
1761370801860334600,5.51733447265625,-0.13386249542236328,1.3061199188232422,0.03436112403869629
1761370801878945500,5.535945556640625,-0.013295173645019531,1.4694581031799316,0.25552916526794434
1761370801897557800,5.554557861328125,0.052628517150878906,1.517667293548584,0.3444480895996094
1761370801916168700,5.573168701171875,0.2101430892944336,1.2911381721496582,0.37584006786346436
1761370801934781200,5.59178125,0.5105676651000977,0.8911781311035156,0.42041516304016113
1761370801953392000,5.61039208984375,0.7523736953735352,0.32071876525878906,0.47246646881103516
1761370801972004400,5.62900439453125,0.845123291015625,-0.315427303314209,0.4265967607498169
1761370801990615300,5.647615234375,0.6662082672119141,-0.8330259323120117,0.37114059925079346
1761370802009227800,5.666227783203125,0.133087158203125,-1.1363158226013184,0.10060155391693115
1761370802027838700,5.684838623046875,-0.399843692779541,-1.1929726600646973,-0.26872849464416504
1761370802046451000,5.703450927734375,-0.8729434013366699,-1.157792091369629,-0.5385936498641968
1761370802065062000,5.722061767578125,-1.1425180435180664,-1.0032987594604492,-0.7575078010559082
1761370802083674400,5.74067431640625,-0.986027717590332,-0.8521103858947754,-0.7516050338745117
1761370802102285000,5.75928515625,-0.4039449691772461,-0.814723014831543,-0.6134551763534546
1761370802120897500,5.7778974609375,0.21347713470458984,-0.8936305046081543,-0.39378225803375244
1761370802139508500,5.796508544921875,0.6522970199584961,-0.9407238960266113,-0.14584028720855713
1761370802158121000,5.815120849609375,0.813751220703125,-1.0231256484985352,0.027095675468444824
1761370802176731600,5.833731689453125,0.5976467132568359,-1.0108461380004883,-0.06254184246063232
1761370802195344100,5.85234423828125,0.1867351531982422,-0.8924612998962402,-0.34586799144744873
1761370802213955000,5.870955078125,-0.2275524139404297,-0.8236756324768066,-0.5813772678375244
1761370802232567600,5.889567626953125,-0.2559623718261719,-0.7688655853271484,-0.7890987396240234
1761370802251178200,5.90817822265625,0.06566143035888672,-0.8243255615234375,-0.820157527923584
1761370802269790700,5.926790771484375,0.47512340545654297,-0.9198756217956543,-0.6693730354309082
1761370802288401700,5.945401611328125,0.5200481414794922,-0.9153304100036621,-0.5469244718551636
1761370802307014000,5.964013916015625,0.2406015396118164,-0.8110756874084473,-0.5817701816558838
1761370802325624800,5.982624755859375,-0.14515399932861328,-0.6408772468566895,-0.7489911317825317
1761370802344237300,6.0012373046875,-0.33510398864746094,-0.3976287841796875,-0.8729920387268066
1761370802362848300,6.01984814453125,-0.30439090728759766,-0.15938472747802734,-0.8386819362640381
1761370802381460500,6.03846044921875,-0.26465892791748047,0.053388118743896484,-0.7773996591567993
1761370802400071400,6.057071533203125,-0.29560279846191406,0.1736922264099121,-0.692750096321106
1761370802418684000,6.075683837890625,-0.2958250045776367,0.23024797439575195,-0.4850236177444458
1761370802437294800,6.094294921875,-0.2384662628173828,0.2493596076965332,-0.17933833599090576
1761370802455907000,6.112906982421875,-0.07231521606445312,0.24989986419677734,0.09879899024963379
1761370802474518000,6.13151806640625,0.11026191711425781,0.2967057228088379,0.3328200578689575
1761370802493130500,6.150130615234375,0.2717247009277344,0.37736988067626953,0.47550714015960693
1761370802511741400,6.168741455078125,0.25322628021240234,0.4166569709777832,0.5609122514724731
1761370802530353700,6.187353759765625,-0.0018768310546875,0.5038652420043945,0.4453953504562378
1761370802548964600,6.205964599609375,0.009120941162109375,0.605865478515625,0.23729026317596436
1761370802567577000,6.2245771484375,0.37786197662353516,0.6771249771118164,0.2596099376678467
1761370802586188000,6.24318798828125,0.7758913040161133,0.7403545379638672,0.37056148052215576
1761370802604800300,6.26180029296875,0.9050750732421875,0.7640118598937988,0.5357738137245178
1761370802623411200,6.2804111328125,0.7420072555541992,0.7549562454223633,0.5379936099052429
1761370802642023700,6.299023681640625,0.6440067291259766,0.7271308898925781,0.5458316802978516
1761370802660634600,6.317634521484375,0.8648920059204102,0.5444045066833496,0.7816365361213684
1761370802679246800,6.336246826171875,0.9027633666992188,0.19115686416625977,0.9731903672218323
1761370802697857800,6.35485791015625,0.5955724716186523,-0.15021228790283203,0.9299514889717102
1761370802716470300,6.37347021484375,0.1333303451538086,-0.40247583389282227,0.8029389381408691
1761370802735081200,6.392081298828125,-0.28859996795654297,-0.5185160636901855,0.5889574289321899
1761370802753693400,6.410693359375,-0.4815545082092285,-0.5196099281311035,0.25566422939300537
1761370802772304400,6.429304443359375,-0.2937803268432617,-0.5344648361206055,0.045140743255615234
1761370802790916900,6.447916748046875,0.24599361419677734,-0.6643753051757812,0.08198845386505127
1761370802809527800,6.46652783203125,0.8448019027709961,-0.8828606605529785,0.3410443067550659
1761370802828140000,6.48514013671875,1.30950927734375,-1.1293435096740723,0.7713912725448608
1761370802846751000,6.5037509765625,1.1415081024169922,-1.3719205856323242,1.0918996334075928
1761370802865363500,6.522363525390625,0.3329324722290039,-1.5549392700195312,1.3329832553863525
1761370802883974400,6.540974365234375,-0.7666120529174805,-1.3544535636901855,1.0429519414901733
1761370802902586600,6.559586669921875,-1.9140782356262207,-1.1742267608642578,0.8741298913955688
1761370802921197600,6.578197509765625,-2.4881930351257324,-0.8415474891662598,0.6964942216873169
1761370802939810000,6.59681005859375,-1.972459316253662,-0.47965145111083984,0.5985192060470581
1761370802958421000,6.6154208984375,-1.0106158256530762,-0.44876623153686523,0.8359085917472839
1761370802977033200,6.634033203125,0.08057498931884766,-0.29529333114624023,0.871651291847229
1761370802995644200,6.65264404296875,0.7456426620483398,-0.29636526107788086,1.0169601440429688
1761370803014256600,6.671256591796875,0.8892002105712891,-0.3079209327697754,0.8296900987625122
1761370803032867600,6.68986767578125,0.9298152923583984,-0.20831966400146484,0.4644942879676819
1761370803051479800,6.708479736328125,1.090794563293457,-0.18696308135986328,0.4248323440551758
1761370803070090800,6.7270908203125,1.2372074127197266,-0.13001680374145508,0.5533182621002197
1761370803088703200,6.745703125,1.1578359603881836,-0.12321710586547852,0.6483138799667358
1761370803107314200,6.764314208984375,0.737339973449707,-0.04201173782348633,0.552092432975769
1761370803125926400,6.782926513671875,0.09767818450927734,0.05443859100341797,0.37201011180877686
1761370803144537300,6.801537353515625,-0.4373197555541992,0.15602350234985352,0.2754441499710083
1761370803163149800,6.82014990234375,-0.7147130966186523,0.24456262588500977,0.3206576108932495
1761370803181760800,6.8387607421875,-0.7930374145507812,0.3442230224609375,0.43919306993484497
1761370803200373200,6.857373291015625,-0.712397575378418,0.4483480453491211,0.4652706980705261
1761370803218984000,6.87598388671875,-0.47748661041259766,0.5453190803527832,0.51021808385849
1761370803237596400,6.894596435546875,-0.15404701232910156,0.5690503120422363,0.5800544619560242
1761370803256207400,6.913207275390625,0.25614166259765625,0.6323237419128418,0.5975322127342224
1761370803274819600,6.931819580078125,0.5751361846923828,0.7117223739624023,0.45860469341278076
1761370803293430500,6.950430419921875,0.6285591125488281,0.7951502799987793,0.1528344750404358
1761370803312043000,6.96904296875,0.8253993988037109,0.9246587753295898,-0.15818405151367188
1761370803330654000,6.987654052734375,1.4905052185058594,0.8730249404907227,-0.029965996742248535
1761370803349266400,7.006266357421875,2.2041797637939453,0.4949307441711426,0.3132031559944153
1761370803367877000,7.024877197265625,2.4085912704467773,-0.1755971908569336,0.5143835544586182
1761370803386489600,7.043489501953125,1.8508968353271484,-0.7432432174682617,0.4212534427642822
1761370803405100500,7.0621005859375,0.7636499404907227,-0.9776906967163086,0.21928542852401733
1761370803423713000,7.080713134765625,-0.43040943145751953,-1.1244874000549316,0.1276766061782837
1761370803442323700,7.09932373046875,-1.329549789428711,-1.2128570079803467,0.07246410846710205
1761370803460936200,7.117936279296875,-1.764699935913086,-1.2025432586669922,-0.0602797269821167
1761370803479547100,7.136547119140625,-1.8313779830932617,-1.212672472000122,-0.10721564292907715
1761370803498159400,7.155159423828125,-1.7784647941589355,-1.168184757232666,-0.2225278615951538
1761370803516770300,7.173770263671875,-1.7134017944335938,-1.088474988937378,-0.3854001760482788
1761370803535382800,7.1923828125,-1.6708259582519531,-1.0702898502349854,-0.4469534158706665
1761370803553993700,7.21099365234375,-1.4640603065490723,-0.9724216461181641,-0.3516273498535156
1761370803572606200,7.229606201171875,-0.9523077011108398,-0.8078351020812988,-0.24519169330596924
1761370803591217200,7.248217041015625,0.1187429428100586,-0.7020587921142578,-0.15508437156677246
1761370803609829400,7.266829345703125,1.3825044631958008,-0.7273063659667969,0.055521249771118164
1761370803628440300,7.2854404296875,2.225431442260742,-1.054119348526001,0.16050326824188232
1761370803647052800,7.304052734375,2.4561967849731445,-1.1728594303131104,-0.04803800582885742
1761370803665663500,7.32266357421875,2.1971521377563477,-1.0076189041137695,-0.32954561710357666
1761370803684276000,7.34127587890625,1.8448095321655273,-0.8066260814666748,-0.37987232208251953
1761370803702887000,7.359886962890625,1.6571102142333984,-0.7605869770050049,-0.18649256229400635
1761370803721499400,7.37849951171875,1.4825067520141602,-0.7862758636474609,-0.0063457489013671875
1761370803740110300,7.3971103515625,1.0252437591552734,-0.7842185497283936,0.12969791889190674
1761370803758722600,7.41572265625,0.30795764923095703,-0.6991004943847656,0.15742218494415283
1761370803777333500,7.43433349609375,-0.40733909606933594,-0.5813632011413574,0.18780839443206787
1761370803795946000,7.452946044921875,-0.8924770355224609,-0.4300704002380371,0.3098655343055725
1761370803814557000,7.471556884765625,-1.1515979766845703,-0.2312450408935547,0.45589303970336914
1761370803833169200,7.490169189453125,-1.146683692932129,-0.1079568862915039,0.4713873267173767
1761370803851780000,7.508780029296875,-0.8780002593994141,-0.0766596794128418,0.4919329881668091
1761370803870392600,7.527392578125,-0.5049467086791992,-0.15596818923950195,0.631319522857666
1761370803889003300,7.546003173828125,-0.2040576934814453,-0.17699003219604492,0.6225581169128418
1761370803907615700,7.56461572265625,-0.06592941284179688,-0.20124101638793945,0.491558313369751
1761370803926226700,7.583226806640625,0.12996387481689453,-0.2010798454284668,0.37986689805984497
1761370803944839200,7.601839111328125,0.7336654663085938,-0.24916481971740723,0.30712199211120605
1761370803963450000,7.6204501953125,1.606867790222168,-0.3981480598449707,0.255739688873291
1761370803982062300,7.639062255859375,2.369339942932129,-0.6505980491638184,0.16356909275054932
1761370804000673300,7.65767333984375,2.5540943145751953,-0.8909118175506592,0.03878188133239746
1761370804019285800,7.67628564453125,2.10701847076416,-0.9185776710510254,-0.10778796672821045
1761370804037896700,7.694896728515625,1.5853710174560547,-0.8738067150115967,-0.11668330430984497
1761370804056509000,7.713509033203125,1.3601303100585938,-0.9640545845031738,0.15113049745559692
1761370804075119900,7.732119873046875,1.1164827346801758,-1.1896939277648926,0.48470252752304077
1761370804093732400,7.750732421875,0.6466560363769531,-1.355414867401123,0.6042950749397278
1761370804112343300,7.76934326171875,0.06327342987060547,-1.4357471466064453,0.6330095529556274
1761370804130955500,7.78795556640625,-0.40352821350097656,-1.4296140670776367,0.6670033931732178
1761370804149566500,7.80656640625,-0.5663118362426758,-1.4011313915252686,0.7804035544395447
1761370804168179000,7.825178955078125,-0.4615669250488281,-1.4475252628326416,0.9669737815856934
1761370804186790000,7.843789794921875,-0.3642702102661133,-1.5252537727355957,1.2521272897720337
1761370804205402000,7.862402099609375,-0.4812135696411133,-1.4561114311218262,1.7209020853042603
1761370804224013000,7.881012939453125,-0.9737873077392578,-1.3431396484375,2.232618808746338
1761370804242625500,7.89962548828125,-1.41925048828125,-1.091731071472168,2.5134975910186768
1761370804261236500,7.918236572265625,-1.2933039665222168,-0.8086457252502441,2.456167221069336
1761370804279848700,7.9368486328125,-0.620875358581543,-0.693267822265625,2.1601314544677734
1761370804298459600,7.955459716796875,0.29939842224121094,-0.7886890172958374,1.8630146980285645
1761370804317072100,7.974072021484375,1.2296743392944336,-0.959566593170166,1.5406107902526855
1761370804335683000,7.99268310546875,2.234539031982422,-1.1672369241714478,1.1212167739868164
1761370804354295300,8.01129541015625,2.9861907958984375,-1.2525030374526978,0.6441177129745483
1761370804372906200,8.02990625,3.1490421295166016,-1.3655537366867065,0.35328078269958496
1761370804391518700,8.048518798828125,2.740311622619629,-1.00409996509552,-0.192795991897583
1761370804410129400,8.06712939453125,1.8750391006469727,-0.5582942962646484,-0.4612889289855957
1761370804428742000,8.085741943359375,0.997161865234375,-0.3137017488479614,-0.46439051628112793
1761370804447352800,8.104352783203124,0.31231021881103516,-0.07458114624023438,-0.5588686466217041
1761370804465965300,8.12296533203125,-0.170501708984375,0.21761608123779297,-0.73390793800354
1761370804484576000,8.141575927734374,-0.4424400329589844,0.39559340476989746,-0.8052353858947754
1761370804503188500,8.1601884765625,-0.5276975631713867,0.46656346321105957,-0.6377959251403809
1761370804521799400,8.17879931640625,-0.43961524963378906,0.3803093433380127,-0.4508845806121826
1761370804540412000,8.197411865234375,-0.2807025909423828,0.20630788803100586,-0.5223443508148193
1761370804559022600,8.216022705078124,-0.12212276458740234,-0.006169795989990234,-0.7969005107879639
1761370804577635000,8.234635009765626,-0.07483291625976562,-0.10253095626831055,-1.1401305198669434
1761370804596246000,8.25324609375,-0.3060617446899414,0.048009634017944336,-1.4981815814971924
1761370804614858500,8.2718583984375,-0.42380237579345703,0.08641719818115234,-1.5124695301055908
1761370804633469200,8.29046923828125,0.10858440399169922,-0.07294058799743652,-1.1971595287322998
1761370804652081700,8.30908154296875,1.1914358139038086,-0.3979463577270508,-0.9662322998046875
1761370804670692600,8.327692626953125,2.0771923065185547,-0.8126420974731445,-0.7767319679260254
1761370804689304800,8.346304931640624,2.2026891708374023,-1.115984320640564,-0.6008336544036865
1761370804707915800,8.364915771484375,1.5981159210205078,-1.0905396938323975,-0.5481400489807129
1761370804726528300,8.3835283203125,0.7702255249023438,-0.8860735893249512,-0.441434383392334
1761370804745139200,8.40213916015625,0.5436830520629883,-0.8206517696380615,-0.10451579093933105
1761370804763751400,8.42075146484375,0.589324951171875,-0.9223728179931641,0.207136869430542
1761370804782362400,8.4393623046875,0.201263427734375,-1.0280084609985352,0.3798708915710449
1761370804800974800,8.457974853515625,-0.5891542434692383,-1.0294909477233887,0.44705355167388916
1761370804819585800,8.476585693359375,-1.5037822723388672,-0.955712080001831,0.37187087535858154
1761370804838198000,8.495197998046875,-2.2306933403015137,-0.8520374298095703,0.020047545433044434
1761370804856809000,8.51380908203125,-2.6066770553588867,-0.7944037914276123,-0.49204349517822266
1761370804875421400,8.53242138671875,-2.2682089805603027,-0.6987452507019043,-0.8498432636260986
1761370804894032400,8.551032470703126,-1.1709942817687988,-0.6098909378051758,-0.6365165710449219
1761370804912644600,8.56964453125,-0.29274559020996094,-0.6167759895324707,-0.39468681812286377
1761370804931255600,8.588255615234376,0.1641988754272461,-0.7924308776855469,-0.3766418695449829
1761370804949868000,8.606867919921875,0.29099559783935547,-0.8618576526641846,-0.7967994213104248
1761370804968479000,8.62547900390625,0.2555866241455078,-0.7949788570404053,-1.2383517026901245
1761370804987091200,8.64409130859375,0.21855545043945312,-0.6388273239135742,-1.3711439371109009
1761370805005702100,8.6627021484375,0.1990489959716797,-0.4405641555786133,-1.2295421361923218
1761370805024314600,8.681314697265625,0.1759319305419922,-0.2626662254333496,-1.021568775177002
1761370805042925300,8.69992529296875,0.16826534271240234,-0.1506948471069336,-0.9644832611083984
1761370805061537800,8.718537841796875,0.1415576934814453,-0.07006311416625977,-0.9004913568496704
1761370805080148700,8.737148681640624,0.08429908752441406,0.015533447265625,-0.6379168033599854
1761370805098761200,8.75576123046875,0.09631729125976562,0.14631223678588867,-0.2464674711227417
1761370805117372000,8.774371826171874,0.20237445831298828,0.27649784088134766,0.12011921405792236
1761370805135984400,8.792984375,0.3010988235473633,0.2704625129699707,0.35919374227523804
1761370805154595300,8.81159521484375,0.20864486694335938,0.18207073211669922,0.39843517541885376
1761370805173207600,8.83020751953125,0.016051292419433594,0.24234437942504883,0.4861658215522766
1761370805191818500,8.848818603515625,-0.43413448333740234,0.30429601669311523,0.8696027398109436
1761370805210431000,8.867430908203126,-1.0257234573364258,0.4413490295410156,1.2159934043884277
1761370805229042000,8.8860419921875,-1.233412742614746,0.5908830165863037,1.2835118770599365
1761370805247654100,8.904654052734376,-0.8966350555419922,0.8113095760345459,0.6925076246261597
1761370805266265000,8.92326513671875,-0.4231452941894531,0.7254507541656494,0.40676236152648926
1761370805284877600,8.941877685546874,-0.14394378662109375,0.7107589244842529,0.3093816041946411
1761370805303488500,8.960488525390625,-0.07303619384765625,0.8616335391998291,0.2781108617782593
1761370805322100700,8.979100830078124,-0.2066335678100586,1.093238115310669,0.13708555698394775
1761370805340711700,8.997711669921875,-0.3650798797607422,1.2441811561584473,-0.09315431118011475
1761370805359324200,9.01632421875,-0.3655738830566406,1.3292062282562256,-0.20883607864379883
1761370805377934800,9.034934814453125,-0.2107992172241211,1.4088175296783447,-0.12142884731292725
1761370805396547300,9.05354736328125,0.029694557189941406,1.495725154876709,0.06786954402923584
1761370805415158300,9.072158203125,0.22923851013183594,1.5535821914672852,0.06573045253753662
1761370805433770500,9.0907705078125,0.4367551803588867,1.5583927631378174,-0.07660627365112305
1761370805452381400,9.10938134765625,0.7302312850952148,1.450202226638794,0.05097675323486328
1761370805470994000,9.127993896484375,1.1364660263061523,1.1745352745056152,0.46348822116851807
1761370805489604900,9.14660498046875,1.3436622619628906,0.7934873104095459,0.7535685300827026
1761370805508217000,9.165217041015625,1.407607078552246,0.3816566467285156,0.7975847125053406
1761370805526828000,9.183828125,1.365778923034668,-0.03786039352416992,0.7672123908996582
1761370805545440500,9.2024404296875,1.1210784912109375,-0.5073428153991699,0.7876333594322205
1761370805564051200,9.22105126953125,0.6070461273193359,-0.9006459712982178,0.8153486251831055
1761370805582663700,9.23966357421875,-0.13691043853759766,-1.1095139980316162,0.7599688768386841
1761370805601274600,9.258274658203124,-0.9531421661376953,-1.1998751163482666,0.6508685350418091
1761370805619887000,9.27688720703125,-1.6630420684814453,-1.1305389404296875,0.4751070737838745
1761370805638497800,9.295497802734374,-2.0168023109436035,-0.919440746307373,0.21181607246398926
1761370805657110300,9.3141103515625,-1.8284811973571777,-0.5941033363342285,-0.0012810230255126953
1761370805675721200,9.33272119140625,-1.19049072265625,-0.3995203971862793,-0.10058474540710449
1761370805694333400,9.35133349609375,-0.3598060607910156,-0.41705799102783203,0.12304389476776123
1761370805712944400,9.3699443359375,0.2462921142578125,-0.5787925720214844,0.40512096881866455
1761370805731556900,9.388556884765626,0.49210262298583984,-0.6895403861999512,0.5985873937606812
1761370805750167600,9.40716748046875,0.4812736511230469,-0.7536273002624512,0.7138499021530151
1761370805768780000,9.425780029296876,0.41033458709716797,-0.8994550704956055,0.5773548483848572
1761370805787391000,9.444390869140625,0.5007877349853516,-1.007652759552002,0.16982364654541016
1761370805806003500,9.46300341796875,0.6183681488037109,-1.1085538864135742,-0.14406335353851318
1761370805824614100,9.4816142578125,0.5218267440795898,-1.0558443069458008,-0.2655428647994995
1761370805843226600,9.5002265625,0.20936298370361328,-0.951554536819458,-0.2467665672302246
1761370805861837600,9.518837646484375,-0.1860790252685547,-0.7860708236694336,-0.22558331489562988
1761370805880449800,9.53744970703125,-0.44183826446533203,-0.571967363357544,-0.16225624084472656
1761370805899060700,9.556060791015625,-0.6117038726806641,-0.34851980209350586,0.0425417423248291
1761370805917673200,9.574673095703124,-0.6785907745361328,-0.1690835952758789,0.24408674240112305
1761370805936284000,9.593283935546875,-0.45294761657714844,-0.09602212905883789,0.34870612621307373
1761370805954896400,9.611896484375,-0.12568378448486328,-0.13595199584960938,0.39012646675109863
1761370805973507300,9.63050732421875,-0.031899452209472656,-0.0781402587890625,0.24057674407958984
1761370805992119800,9.649119873046875,-0.07912826538085938,0.05242490768432617,0.1026315689086914
1761370806010730500,9.66773046875,0.01815509796142578,0.23178768157958984,0.08917200565338135
1761370806029343000,9.686343017578125,0.32123756408691406,0.33895349502563477,0.18890142440795898
1761370806047954000,9.704953857421875,0.7031536102294922,0.32323122024536133,0.20811033248901367
1761370806066566100,9.723566162109375,1.122054100036621,0.2481231689453125,0.14533066749572754
1761370806085177000,9.742177001953126,1.5768661499023438,0.06741976737976074,0.04067206382751465
1761370806103789600,9.76078955078125,1.878371238708496,-0.1042640209197998,-0.08994889259338379
1761370806122400300,9.779400146484376,1.8190889358520508,-0.1947939395904541,-0.07842516899108887
1761370806141012700,9.7980126953125,1.4427194595336914,-0.10324430465698242,-0.0015473365783691406
1761370806159623700,9.816623779296876,1.1893844604492188,-0.12331366539001465,0.3571298122406006
1761370806178236200,9.835236083984375,1.3230886459350586,-0.3021817207336426,0.7845618724822998
1761370806196846800,9.853846923828126,1.2985506057739258,-0.6092278957366943,0.8830045461654663
1761370806215459300,9.872459228515625,0.8449563980102539,-0.9346048831939697,0.8154463768005371
1761370806234070300,9.8910703125,0.10488605499267578,-1.0085155963897705,0.6788384914398193
1761370806252682500,9.9096826171875,-0.48969078063964844,-0.9707484245300293,0.8042173385620117
1761370806271293400,9.92829345703125,-0.8410711288452148,-0.9485132694244385,0.7367922067642212
1761370806289906000,9.946906005859375,-0.9712405204772949,-0.8348586559295654,0.5538356304168701
1761370806308516600,9.9655166015625,-0.8500223159790039,-0.7256932258605957,0.5206155776977539
1761370806327129000,9.984129150390626,-0.5276870727539062,-0.6451418399810791,0.5600013732910156
1761370806345740000,10.002739990234375,-0.2364368438720703,-0.5689570903778076,0.6729621887207031
1761370806364352500,10.0213525390625,-0.076416015625,-0.4536747932434082,0.6849133968353271
1761370806382963200,10.039963134765625,0.0007543563842773438,-0.2672581672668457,0.8068797588348389
1761370806401575700,10.05857568359375,0.19965648651123047,-0.10924339294433594,1.1029949188232422
1761370806420186600,10.0771865234375,0.4309368133544922,-0.07696008682250977,1.2655726671218872
1761370806438798800,10.095798828125,0.3927297592163086,-0.13166451454162598,1.1744152307510376
1761370806457409800,10.114409912109375,0.26424217224121094,-0.11304068565368652,0.7542880773544312
1761370806476022300,10.133022216796874,0.1767139434814453,0.07587194442749023,0.18368768692016602
1761370806494633200,10.15163330078125,0.06220436096191406,0.1934514045715332,0.04601860046386719
1761370806513245400,10.170245361328124,-0.1016998291015625,0.4198732376098633,0.12028884887695312
1761370806531856400,10.1888564453125,-0.09210491180419922,0.7181315422058105,0.1994931697845459
1761370806550468900,10.20746875,0.27225494384765625,0.8407862186431885,0.31386637687683105
1761370806569079600,10.22607958984375,0.6866979598999023,0.7030954360961914,0.412428617477417
1761370806587692000,10.244692138671875,0.7739038467407227,0.5933153629302979,0.34392309188842773
1761370806606303000,10.263302978515625,0.5677175521850586,0.5153820514678955,0.19298338890075684
1761370806624915200,10.281915283203125,0.3302602767944336,0.5293407440185547,0.15195608139038086
1761370806643526100,10.300526123046875,0.16730499267578125,0.5351471900939941,0.3779323101043701
1761370806662138600,10.319138671875,0.028661727905273438,0.6273667812347412,0.57655930519104
1761370806680749600,10.33774951171875,-0.05512428283691406,0.6628828048706055,0.5925465822219849
1761370806699361800,10.35636181640625,0.06809043884277344,0.6591455936431885,0.7125320434570312
1761370806717972700,10.37497265625,0.4097881317138672,0.5508246421813965,0.8929119110107422
1761370806736585200,10.393585205078125,0.5153274536132812,0.3846111297607422,1.0005115270614624
1761370806755196200,10.412196044921876,0.24246978759765625,0.2358865737915039,0.9523117542266846
1761370806773808400,10.430808349609375,-0.11161994934082031,0.2426609992980957,0.7570022344589233
1761370806792419300,10.44941943359375,-0.5463085174560547,0.2362222671508789,0.5829386711120605
1761370806811031800,10.46803173828125,-0.7694568634033203,0.3053169250488281,0.3444669246673584
1761370806829642500,10.486642578125,-0.5549964904785156,0.3727102279663086,0.15870094299316406
1761370806848255000,10.5052548828125,-0.1084890365600586,0.334658145904541,0.07377099990844727
1761370806866866000,10.523865966796874,0.17350387573242188,0.19013452529907227,0.17177653312683105
1761370806885478400,10.542478515625,0.20015335083007812,0.07003545761108398,0.125868558883667
1761370806904089300,10.56108935546875,0.013852119445800781,0.0699772834777832,-0.014751911163330078
1761370806922701600,10.57970166015625,-0.08305931091308594,0.08722782135009766,-0.16319799423217773
1761370806941312500,10.5983125,-0.04510498046875,0.07154369354248047,-0.1360929012298584
1761370806959925000,10.616925048828126,0.24456405639648438,0.0007257461547851562,0.06258726119995117
1761370806978535700,10.63553564453125,0.6121053695678711,-0.21312904357910156,0.271437406539917
1761370806997148200,10.654148193359376,0.7262439727783203,-0.49295902252197266,0.392594575881958
1761370807015759000,10.672759033203125,0.5131082534790039,-0.7898130416870117,0.4059317111968994
1761370807034371600,10.69137158203125,0.2001638412475586,-1.033886432647705,0.3359227180480957
1761370807052982300,10.709982177734375,-0.1279888153076172,-1.1407833099365234,0.10070681571960449
1761370807071594800,10.7285947265625,-0.5088562965393066,-1.0480918884277344,-0.19414567947387695
1761370807090205700,10.747205810546875,-0.8719429969787598,-0.8183245658874512,-0.27386903762817383
1761370807108818200,10.765818115234374,-0.8943643569946289,-0.595130443572998,-0.26055169105529785
1761370807127428900,10.784428955078125,-0.6200308799743652,-0.5661497116088867,-0.18581461906433105
1761370807146041300,10.803041259765624,-0.36020612716674805,-0.5617823600769043,-0.22536993026733398
1761370807164652300,10.82165234375,-0.2549114227294922,-0.5434627532958984,-0.3155791759490967
1761370807183264800,10.8402646484375,-0.31061363220214844,-0.4126710891723633,-0.5362637042999268
1761370807201875500,10.85887548828125,-0.07091045379638672,-0.3422088623046875,-0.7743079662322998
1761370807220488000,10.877488037109375,0.4381732940673828,-0.34480857849121094,-1.08573317527771
1761370807239099000,10.896098876953126,1.2029380798339844,-0.3846135139465332,-0.6569678783416748
1761370807257711400,10.91471142578125,1.6252641677856445,-0.5707364082336426,0.22166824340820312
1761370807276322300,10.933322265625,1.2767562866210938,-0.8739759922027588,0.6908508539199829
