time,seconds_elapsed,z,y,x
1761370857878972400,0.205972412109375,-0.9072284698486328,-0.803433895111084,-0.11905479431152344
1761370857897583000,0.2245830078125,-1.0083160400390625,-0.637779951095581,-0.1531229019165039
1761370857916195600,0.243195556640625,-0.9731168746948242,-0.6915416717529297,-0.10372018814086914
1761370857934806300,0.26180615234375,-0.5776329040527344,-0.9565334320068359,-0.13623046875
1761370857953418800,0.280418701171875,0.14693355560302734,-1.042067289352417,-0.39643192291259766
1761370857972029400,0.299029541015625,-0.38539695739746094,-0.7250595092773438,0.11732697486877441
1761370857990642000,0.317641845703125,-0.9339075088500977,-0.05878472328186035,0.2254023551940918
1761370858009252600,0.336252685546875,-0.9864559173583984,0.7414662837982178,-0.016178131103515625
1761370858027864800,0.35486474609375,-0.5974254608154297,0.9472362995147705,-0.25790631771087646
1761370858046475800,0.373475830078125,-0.010560035705566406,1.1257274150848389,-0.08520090579986572
1761370858065088000,0.392087890625,0.31764888763427734,1.1074273586273193,0.14090240001678467
1761370858083699000,0.410698974609375,0.8869533538818359,1.1604993343353271,0.37148940563201904
1761370858102311200,0.429311279296875,1.4340333938598633,1.3070915937423706,0.7989625334739685
1761370858120922000,0.447922119140625,1.632711410522461,1.0526856184005737,1.5689111948013306
1761370858139534300,0.466534423828125,1.3068923950195312,0.4284430742263794,1.8321082592010498
1761370858158145300,0.485145263671875,0.7578058242797852,-0.2643550634384155,1.022905707359314
1761370858176757500,0.503757568359375,0.1640920639038086,-0.6164779663085938,-0.16086673736572266
1761370858195368400,0.522368408203125,-0.4407367706298828,-0.6984103918075562,-0.6942706108093262
1761370858213980700,0.540980712890625,-0.891754150390625,-0.6250900030136108,-0.6721541881561279
1761370858232591600,0.559591552734375,-0.9295797348022461,-0.3812617063522339,-0.3907812833786011
1761370858251203800,0.578203857421875,-0.09676837921142578,-0.15105128288269043,0.29208874702453613
1761370858269814800,0.596814697265625,0.49030494689941406,-0.15064799785614014,0.778127908706665
1761370858288427000,0.615427001953125,0.6126585006713867,-0.18180298805236816,0.717880129814148
1761370858307038000,0.634037841796875,0.36310768127441406,-0.39978641271591187,0.6184930801391602
1761370858325650200,0.652650146484375,-0.13760089874267578,-0.6247485876083374,0.23413455486297607
1761370858344261000,0.67126123046875,-0.7213382720947266,-0.5404669642448425,-0.1627209186553955
1761370858362873300,0.689873291015625,-1.1499013900756836,-0.2235075831413269,-0.38216543197631836
1761370858381484000,0.708484130859375,-1.0043535232543945,0.22829926013946533,-0.3564431667327881
1761370858400096500,0.727096435546875,-0.6048545837402344,0.58315509557724,0.017653703689575195
1761370858418707200,0.745707275390625,-0.30062294006347656,0.8803103566169739,0.3411698341369629
1761370858437319700,0.764319580078125,-0.12845993041992188,0.9717094302177429,0.6614019870758057
1761370858455930600,0.7829306640625,0.0002689361572265625,0.9540739059448242,0.6680500507354736
1761370858474542800,0.80154296875,0.018614768981933594,0.777143120765686,0.4601907730102539
1761370858493153500,0.820153564453125,0.27379322052001953,0.485880970954895,0.3019559383392334
1761370858511766000,0.83876611328125,0.6485261917114258,0.04635390639305115,0.10944247245788574
1761370858530376700,0.857376708984375,1.0203800201416016,-0.2832019031047821,-0.15960216522216797
1761370858548989200,0.8759892578125,1.3167972564697266,-0.4213031530380249,-0.2821047306060791
1761370858567599900,0.894599853515625,1.187408447265625,-0.3467889726161957,-0.19081592559814453
1761370858586212400,0.91321240234375,0.82305908203125,-0.2865796685218811,0.07687234878540039
1761370858604823000,0.931822998046875,0.48799705505371094,-0.2876773476600647,0.25159645080566406
1761370858623435500,0.950435546875,0.34291934967041016,-0.39317429065704346,0.5547077655792236
1761370858642046200,0.969046142578125,0.5170869827270508,-0.4530387222766876,0.8763420581817627
1761370858660658700,0.98765869140625,0.6029949188232422,-0.5571029186248779,1.1235861778259277
1761370858679269400,1.006269287109375,0.3482952117919922,-0.6470028162002563,0.9988248348236084
1761370858697881900,1.0248818359375,0.05687141418457031,-0.6154982447624207,0.7732043266296387
1761370858716492500,1.043492431640625,-0.17100906372070312,-0.558184027671814,0.7853546142578125
1761370858735105000,1.06210498046875,-0.2696418762207031,-0.38767772912979126,0.7909591197967529
1761370858753715700,1.0807158203125,-0.33968448638916016,-0.1157749742269516,0.8698770999908447
1761370858772328200,1.099328125,-0.634765625,0.19293755292892456,0.8294129371643066
1761370858790939000,1.11793896484375,-0.9779806137084961,0.6001981496810913,0.6066932678222656
1761370858809551400,1.13655126953125,-1.1611413955688477,0.975466251373291,0.3325068950653076
1761370858828162000,1.155162109375,-0.943079948425293,1.2741367816925049,0.18565106391906738
1761370858846774500,1.1737744140625,-0.6292934417724609,1.4822359085083008,0.2138664722442627
1761370858865385500,1.192385498046875,-0.18657493591308594,1.5909218788146973,0.22414064407348633
1761370858883997700,1.210997802734375,0.26722145080566406,1.5221216678619385,0.1897141933441162
1761370858902608600,1.229608642578125,0.7916107177734375,1.2543842792510986,0.15570950508117676
1761370858921220900,1.248220947265625,1.0600652694702148,1.0072907209396362,0.021787405014038086
1761370858939831800,1.266831787109375,0.876795768737793,0.8654646873474121,-0.13590407371520996
1761370858958444000,1.285444091796875,0.5914096832275391,0.8013657927513123,-0.2477273941040039
1761370858977054700,1.3040546875,0.5485439300537109,0.7056323289871216,-0.2088773250579834
1761370858995667200,1.322667236328125,0.4606142044067383,0.5951491594314575,-0.12713956832885742
1761370859014278000,1.34127783203125,0.32487010955810547,0.4478940963745117,-0.11592268943786621
1761370859032890400,1.359890380859375,0.20967864990234375,0.265968918800354,-0.0844416618347168
1761370859051501000,1.3785009765625,0.1465768814086914,0.0774989128112793,-0.21888303756713867
1761370859070113500,1.397113525390625,0.23464488983154297,-0.11205577850341797,-0.3642313480377197
1761370859088724500,1.415724365234375,0.24315643310546875,-0.1730060577392578,-0.3730795383453369
1761370859107336700,1.434336669921875,0.09830856323242188,-0.013577461242675781,-0.4285314083099365
1761370859125947600,1.45294775390625,0.041838645935058594,0.19686436653137207,-0.5162308216094971
1761370859144559900,1.471559814453125,0.29601287841796875,0.24759650230407715,-0.277620792388916
1761370859163170800,1.4901708984375,0.7874279022216797,-0.17591214179992676,0.16977953910827637
1761370859181783000,1.508782958984375,1.1223344802856445,-0.8384420871734619,0.3958587646484375
1761370859200394000,1.52739404296875,0.8330984115600586,-1.4722163677215576,0.1221323013305664
1761370859219006200,1.546006103515625,0.09672737121582031,-1.9414702653884888,-0.041982412338256836
1761370859237617200,1.5646171875,-0.5668354034423828,-2.132874011993408,-0.22202563285827637
1761370859256229400,1.5832294921875,-0.830531120300293,-1.9337387084960938,-0.32237696647644043
1761370859274840300,1.60184033203125,-1.0872068405151367,-1.815251111984253,-0.03803825378417969
1761370859293452500,1.62045263671875,-0.9650044441223145,-1.432551383972168,0.17025542259216309
1761370859312063500,1.6390634765625,-0.617523193359375,-1.4102874994277954,0.7022802829742432
1761370859330675700,1.65767578125,-0.5758485794067383,-1.2155661582946777,0.9226944446563721
1761370859349286700,1.67628662109375,-1.124748706817627,-1.0906472206115723,0.7560200691223145
1761370859367899000,1.69489892578125,-1.5566377639770508,-0.8403453826904297,0.3179495334625244
1761370859386509800,1.713509765625,-1.8803071975708008,-0.7258329391479492,0.20970797538757324
1761370859405122000,1.7321220703125,-1.857529640197754,-0.5199458599090576,-0.0022313594818115234
1761370859423733000,1.75073291015625,-1.2656030654907227,-0.12119460105895996,-0.3280801773071289
1761370859442345200,1.76934521484375,-0.5920515060424805,-0.32247400283813477,-0.28142809867858887
1761370859460956200,1.7879560546875,-0.10587215423583984,-0.882880687713623,0.10167288780212402
1761370859479568400,1.806568359375,0.3634176254272461,-1.0478692054748535,-0.08427762985229492
1761370859498179300,1.825179443359375,0.7269392013549805,-1.2658376693725586,-0.11386489868164062
1761370859516791600,1.84379150390625,0.954646110534668,-1.511181354522705,-0.16388320922851562
1761370859535402500,1.862402587890625,1.043910026550293,-1.6564518213272095,-0.3630363941192627
1761370859554014700,1.8810146484375,0.9013853073120117,-1.7805527448654175,-0.4299798011779785
1761370859572625700,1.899625732421875,0.42105960845947266,-1.7732855081558228,-0.4460489749908447
1761370859591238000,1.91823779296875,-0.10496997833251953,-1.638426423072815,-0.6819498538970947
1761370859609848800,1.936848876953125,-0.41440391540527344,-1.3429020643234253,-0.715259313583374
1761370859628461000,1.9554609375,-0.5181283950805664,-0.8929107189178467,-0.6407821178436279
1761370859647072000,1.974072021484375,-0.3331584930419922,-0.5696301460266113,-0.5409073829650879
1761370859665684200,1.992684326171875,0.44191455841064453,-0.20622587203979492,-0.17112421989440918
1761370859684295200,2.011295166015625,0.645172119140625,0.07344889640808105,-0.2778966426849365
1761370859702907400,2.029907470703125,0.5273370742797852,0.2342512607574463,-0.18059706687927246
1761370859721518300,2.048518310546875,0.32451915740966797,0.43012022972106934,-0.26625657081604004
1761370859740130800,2.067130859375,0.21067047119140625,0.5834684371948242,-0.5038371086120605
1761370859758741500,2.085741455078125,0.3004779815673828,0.6662273406982422,-0.6628960371017456
1761370859777354000,2.10435400390625,0.5919685363769531,0.6394999027252197,-0.7211697101593018
1761370859795964700,2.122964599609375,0.7990217208862305,0.5669193267822266,-0.7290968894958496
1761370859814577200,2.1415771484375,0.9542474746704102,0.5890772342681885,-0.7974340915679932
1761370859833187800,2.160187744140625,1.028611183166504,0.686821460723877,-0.7468254566192627
1761370859851800300,2.17880029296875,0.9476728439331055,0.7488260269165039,-0.5401109457015991
1761370859870411000,2.197410888671875,0.8571901321411133,0.8238461017608643,-0.3036731481552124
1761370859889023500,2.2160234375,0.8380126953125,0.6904432773590088,0.206689715385437
1761370859907634200,2.23463427734375,0.9248151779174805,0.40378642082214355,0.8215669393539429
1761370859926246700,2.25324658203125,0.8471450805664062,0.0788578987121582,1.185435175895691
1761370859944857300,2.271857421875,0.3592338562011719,-0.2568652629852295,1.2358007431030273
1761370859963469800,2.2904697265625,-0.48205089569091797,-0.37935328483581543,0.9591041803359985
1761370859982080500,2.30908056640625,-1.316411018371582,-0.2886502742767334,0.5113457441329956
1761370860000693000,2.32769287109375,-1.5683822631835938,-0.021619558334350586,0.13502120971679688
1761370860019303700,2.3463037109375,-0.9872760772705078,0.13260412216186523,-0.023487567901611328
1761370860037916200,2.364916259765625,-0.01936626434326172,0.08647394180297852,0.17006909847259521
1761370860056526800,2.38352685546875,0.8939990997314453,-0.042806386947631836,0.5368034839630127
1761370860075139300,2.402139404296875,1.427952766418457,-0.1955432891845703,0.825562596321106
1761370860093750300,2.420750244140625,1.4945287704467773,-0.35686206817626953,0.7999973297119141
1761370860112362500,2.439362548828125,1.1500091552734375,-0.45335888862609863,0.6851364374160767
1761370860130973400,2.457973388671875,0.6341238021850586,-0.49904680252075195,0.6126796007156372
1761370860149585700,2.476585693359375,0.21248245239257812,-0.5838742256164551,0.7041682004928589
1761370860168196600,2.495196533203125,-0.10428333282470703,-0.697786808013916,0.904263973236084
1761370860186808800,2.513808837890625,-0.4390525817871094,-0.7468883991241455,1.0347034931182861
1761370860205419800,2.532419677734375,-0.7401447296142578,-0.7048251628875732,1.0149277448654175
1761370860224032000,2.551031982421875,-1.083653450012207,-0.6264538764953613,0.8664308786392212
1761370860242643000,2.569642822265625,-1.4694361686706543,-0.4115719795227051,0.716835618019104
1761370860261255200,2.588255126953125,-1.6708688735961914,-0.2017507553100586,0.545802116394043
1761370860279866000,2.6068662109375,-1.3384175300598145,0.22174477577209473,0.5445013046264648
1761370860298478600,2.625478515625,-0.931849479675293,0.13657569885253906,0.8253705501556396
1761370860317089300,2.64408935546875,-0.2929706573486328,0.22012829780578613,0.8035507202148438
1761370860335701800,2.66270166015625,0.03528881072998047,0.1600346565246582,0.7021245956420898
1761370860354312400,2.6813125,0.03860759735107422,0.20082616806030273,0.7765092849731445
1761370860372925000,2.699925048828125,-0.009622573852539062,0.15785956382751465,0.4497532844543457
1761370860391535600,2.71853564453125,-0.06277179718017578,0.1113729476928711,0.18554234504699707
1761370860410148000,2.737148193359375,-0.0127716064453125,0.020216941833496094,-0.029597759246826172
1761370860428758800,2.7557587890625,0.24619770050048828,0.01630997657775879,-0.23560261726379395
1761370860447371300,2.774371337890625,0.7948894500732422,0.019805192947387695,-0.2868833541870117
1761370860465982000,2.79298193359375,1.6540231704711914,0.04301953315734863,-0.24420595169067383
1761370860484594400,2.811594482421875,2.5553970336914062,0.033010005950927734,-0.29886817932128906
1761370860503205000,2.830205078125,2.9702558517456055,0.1564466953277588,-0.4687321186065674
1761370860521817600,2.848817626953125,2.661770820617676,0.3470144271850586,-0.4049811363220215
1761370860540428500,2.867428466796875,1.7872600555419922,0.4463367462158203,-0.19936132431030273
1761370860559040800,2.886040771484375,0.6250524520874023,0.32755160331726074,-0.1878366470336914
1761370860577651700,2.904651611328125,-0.21045970916748047,-0.01689887046813965,-0.1848766803741455
1761370860596264000,2.923263916015625,-0.3684806823730469,-0.4397118091583252,0.158197283744812
1761370860614875000,2.941875,-0.44906139373779297,-0.9713654518127441,0.28457891941070557
1761370860633487000,2.960487060546875,-0.4431734085083008,-1.0596272945404053,0.1281116008758545
1761370860652098000,2.97909814453125,-0.833134651184082,-1.3467822074890137,-0.10466396808624268
1761370860670710300,2.997710205078125,-1.3685927391052246,-1.200706958770752,-0.8003095984458923
1761370860689321200,3.0163212890625,-1.9311747550964355,-0.8852651119232178,-1.2626628875732422
1761370860707933700,3.03493359375,-2.03664493560791,-0.552955150604248,-1.4445428848266602
1761370860726544400,3.05354443359375,-1.533163070678711,-0.22742986679077148,-1.1141276359558105
1761370860745156900,3.072156982421875,-0.7815957069396973,-0.24067354202270508,-0.46801918745040894
1761370860763767600,3.090767578125,0.012812614440917969,-0.3187994956970215,-0.04151228070259094
1761370860782380000,3.109380126953125,0.4159393310546875,-0.30599260330200195,-0.09503057599067688
1761370860800990700,3.12799072265625,0.2395029067993164,-0.3152174949645996,-0.5497358441352844
1761370860819603200,3.146603271484375,-0.009604454040527344,-0.1936473846435547,-0.9843305945396423
1761370860838214100,3.165214111328125,0.045775413513183594,-0.14360761642456055,-1.0444625616073608
1761370860856826400,3.183826416015625,0.4723997116088867,-0.25643348693847656,-0.8842992186546326
1761370860875437300,3.202437255859375,1.0906639099121094,-0.489835262298584,-0.6336929798126221
1761370860894049500,3.221049560546875,1.6027965545654297,-0.7162895202636719,-0.4251604676246643
1761370860912660500,3.239660400390625,1.7823677062988281,-0.9513015747070312,-0.26700359582901
1761370860931272700,3.258272705078125,1.2871665954589844,-1.06508469581604,-0.21509099006652832
1761370860949883600,3.276883544921875,0.5443620681762695,-1.0132198333740234,-0.3009752035140991
1761370860968495900,3.295495849609375,-0.1074066162109375,-0.9792819023132324,-0.3622310161590576
1761370860987106800,3.31410693359375,-0.5697221755981445,-0.902397871017456,-0.3754194974899292
1761370861005719300,3.33271923828125,-0.9106540679931641,-0.7350459098815918,-0.1703031063079834
1761370861024330000,3.351330078125,-1.149214744567871,-0.49115514755249023,0.08079278469085693
1761370861042942500,3.3699423828125,-1.1747055053710938,-0.2617053985595703,0.2665005922317505
1761370861061553200,3.38855322265625,-1.073753833770752,-0.1009068489074707,0.40574443340301514
1761370861080165600,3.40716552734375,-1.1562752723693848,0.024259328842163086,0.3465059995651245
1761370861098776300,3.4257763671875,-1.269247055053711,0.2203998565673828,0.15290582180023193
1761370861117388800,3.444388916015625,-1.3346829414367676,0.3859293460845947,-0.05057108402252197
1761370861135999700,3.462999755859375,-1.186901569366455,0.5842454433441162,-0.3379901647567749
1761370861154612000,3.481612060546875,-0.889246940612793,0.7862265110015869,-0.4480627775192261
1761370861173223000,3.500222900390625,-0.688323974609375,0.98238205909729,-0.3649635314941406
1761370861191835100,3.518835205078125,-0.49734020233154297,1.1104493141174316,-0.07129549980163574
1761370861210446000,3.537446044921875,-0.022121429443359375,1.1025269031524658,0.2493424415588379
1761370861229058600,3.55605859375,0.5879793167114258,0.7942376136779785,0.4145839214324951
1761370861247669200,3.574669189453125,1.1795988082885742,0.384044885635376,0.46404600143432617
1761370861266281700,3.59328173828125,1.641932487487793,0.010877132415771484,0.534720778465271
1761370861284892400,3.611892333984375,1.5625333786010742,-0.3035697937011719,0.47123396396636963
1761370861303505000,3.6305048828125,1.256718635559082,-0.5003526210784912,0.24811160564422607
1761370861322115600,3.649115478515625,0.8977460861206055,-0.6636312007904053,-0.12271881103515625
1761370861340728000,3.66772802734375,0.49662208557128906,-0.7247452735900879,-0.5374770164489746
1761370861359339000,3.686339111328125,0.27115345001220703,-0.6310973167419434,-0.7504329681396484
1761370861377951200,3.704951171875,0.4804410934448242,-0.5227251052856445,-0.4778473377227783
1761370861396562200,3.723562255859375,1.0593595504760742,-0.4347395896911621,0.13712120056152344
1761370861415174700,3.742174560546875,1.6089973449707031,-0.41486597061157227,0.795613169670105
1761370861433785300,3.760785400390625,1.778167724609375,-0.5011019706726074,1.3463231325149536
1761370861452397800,3.779397705078125,1.471435546875,-0.5963279008865356,1.4580028057098389
1761370861471008500,3.798008544921875,0.8576231002807617,-0.5734491348266602,1.3080859184265137
1761370861489621000,3.81662109375,0.14034175872802734,-0.49292516708374023,1.2351229190826416
1761370861508232000,3.83523193359375,-0.48197460174560547,-0.3709704875946045,1.146501064300537
1761370861526844200,3.85384423828125,-0.8603172302246094,-0.2773714065551758,1.0972909927368164
1761370861545455000,3.872455078125,-1.0458335876464844,-0.252979040145874,1.1921700239181519
1761370861564067300,3.8910673828125,-1.1753416061401367,-0.2224287986755371,1.4665274620056152
1761370861582678300,3.90967822265625,-1.100184440612793,-0.2666611671447754,1.81187903881073
1761370861601290800,3.928290771484375,-0.7656564712524414,-0.43025898933410645,1.7869926691055298
1761370861619901400,3.9469013671875,-0.2940864562988281,-0.5069601535797119,1.5331954956054688
1761370861638514000,3.965513916015625,0.0005521774291992188,-0.5396498441696167,1.377087950706482
1761370861657124900,3.984124755859375,0.05920219421386719,-0.4335947036743164,1.2306575775146484
1761370861675737000,4.002737060546875,-0.04632091522216797,-0.1848461627960205,1.0956976413726807
1761370861694348000,4.02134814453125,-0.0015726089477539062,0.19903278350830078,0.9714140892028809
1761370861712960500,4.03996044921875,0.2932853698730469,0.5083578824996948,0.8800942897796631
1761370861731571200,4.0585712890625,0.6662588119506836,0.7326602935791016,0.8403799533843994
1761370861750183700,4.07718359375,1.0695018768310547,0.9072233438491821,0.893237829208374
1761370861768794600,4.095794677734375,1.497950553894043,0.8844431638717651,0.9832041263580322
1761370861787406800,4.11440673828125,1.8534564971923828,0.6632049083709717,0.9458715915679932
1761370861806017800,4.133017822265625,2.0581140518188477,0.411953330039978,0.7719340324401855
1761370861824630000,4.151630126953125,1.9071016311645508,0.1761256456375122,0.4412877559661865
1761370861843241000,4.170240966796875,1.3009262084960938,0.18532586097717285,-0.10903191566467285
1761370861861853400,4.188853515625,0.5694208145141602,0.3312506675720215,-0.5067994594573975
1761370861880464100,4.207464111328125,0.1367168426513672,0.46979236602783203,-0.5917179584503174
1761370861899076600,4.22607666015625,0.4510917663574219,0.372805118560791,-0.5092182159423828
1761370861917687600,4.2446875,1.1793594360351562,-0.02092576026916504,-0.35559844970703125
1761370861936299800,4.2632998046875,1.7834033966064453,-0.31780683994293213,-0.5202593803405762
1761370861954910700,4.28191064453125,2.0010690689086914,-0.5803680419921875,-0.5836381912231445
1761370861973523200,4.300523193359375,1.8814001083374023,-0.7282143831253052,-0.5065507888793945
1761370861992134000,4.3191337890625,1.5353212356567383,-0.8122646808624268,-0.44727540016174316
1761370862010746400,4.337746337890625,1.037541389465332,-0.9018467664718628,-0.5081548690795898
1761370862029357300,4.356357421875,0.4383974075317383,-0.9727612733840942,-0.745110034942627
1761370862047969500,4.374969482421875,-0.17252540588378906,-0.9906269311904907,-1.0572843551635742
1761370862066580500,4.39358056640625,-0.6715316772460938,-0.965155839920044,-1.1987755298614502
1761370862085193000,4.41219287109375,-0.8833742141723633,-0.9801051616668701,-1.1344797611236572
1761370862103804000,4.430803955078125,-0.5785579681396484,-1.1304309368133545,-0.7285149097442627
1761370862122416000,4.449416015625,0.18000507354736328,-1.2492671012878418,0.09641909599304199
1761370862141027000,4.468027099609375,0.5555877685546875,-1.4858884811401367,0.8827036619186401
1761370862159639300,4.486639404296875,0.8905754089355469,-1.8481295108795166,1.2963240146636963
1761370862178250200,4.505250244140625,0.8456516265869141,-2.3505921363830566,1.0220905542373657
1761370862196862700,4.52386279296875,-0.0037078857421875,-2.7197251319885254,0.4593510627746582
1761370862215473700,4.5424736328125,-1.1130590438842773,-2.7001147270202637,-0.006339311599731445
1761370862234086000,4.5610859375,-1.7966046333312988,-2.5477850437164307,-0.0916893482208252
1761370862252696800,4.57969677734375,-1.734910011291504,-2.293492317199707,0.3649430274963379
1761370862271309300,4.598309326171875,-1.652501106262207,-2.174042224884033,0.8382118940353394
1761370862289920000,4.616919921875,-1.5845651626586914,-1.9012608528137207,0.9265694618225098
1761370862308532500,4.635532470703125,-1.6912789344787598,-1.6387128829956055,0.9954491853713989
1761370862327143400,4.654143310546875,-1.7969269752502441,-1.3747460842132568,0.9849618673324585
1761370862345755600,4.672755615234375,-1.7210845947265625,-1.1631200313568115,0.8468242883682251
1761370862364366600,4.69136669921875,-1.4677166938781738,-0.9154822826385498,0.5532357692718506
1761370862382979000,4.70997900390625,-1.3350844383239746,-0.6299235820770264,0.2126171588897705
1761370862401590000,4.728590087890625,-1.1955537796020508,-0.11640191078186035,-0.11267662048339844
1761370862420202200,4.7472021484375,-0.6727104187011719,0.3981165885925293,0.22489118576049805
1761370862438813200,4.765813232421875,0.8346080780029297,0.7497119903564453,1.1345562934875488
1761370862457425700,4.78442578125,2.9850540161132812,0.6363625526428223,2.1184513568878174
1761370862476036600,4.80303662109375,4.9963226318359375,-0.09765958786010742,2.8482820987701416
1761370862494648800,4.82164892578125,5.9015703201293945,-0.9726424217224121,2.927640199661255
1761370862513259800,4.840259765625,5.540226936340332,-1.5360594987869263,2.616128921508789
1761370862531872300,4.858872314453125,4.160411834716797,-1.672947883605957,1.9549295902252197
1761370862550483000,4.87748291015625,2.166046142578125,-1.2679027318954468,1.335845708847046
1761370862569095400,4.896095458984375,0.5148801803588867,-0.5368343591690063,1.205132246017456
1761370862587706400,4.914706298828125,-0.21975040435791016,0.18423104286193848,1.6803028583526611
1761370862606318800,4.93331884765625,-0.13016891479492188,0.468231201171875,2.652543544769287
1761370862624929800,4.9519296875,0.24977874755859375,0.3555796146392822,3.435403347015381
1761370862643542000,4.9705419921875,0.3690357208251953,0.10019111633300781,3.757392644882202
1761370862662153000,4.989153076171875,0.09996318817138672,-0.3189495801925659,3.439169406890869
1761370862680765400,5.007765380859375,-0.34215259552001953,-0.6639044284820557,2.6848762035369873
1761370862699376000,5.026376220703125,-1.0065021514892578,-0.9309296607971191,1.9610460996627808
1761370862717988600,5.044988525390625,-1.609452724456787,-1.0135283470153809,1.4047282934188843
1761370862736599600,5.063599609375,-1.951408863067627,-1.056755781173706,1.0387554168701172
1761370862755212000,5.0822119140625,-2.0356903076171875,-1.0998997688293457,0.6783421039581299
1761370862773822700,5.10082275390625,-1.878465175628662,-1.0335156917572021,0.031954050064086914
1761370862792435200,5.119435302734375,-1.676846981048584,-0.9366164803504944,-0.6205363273620605
1761370862811046100,5.138046142578125,-1.2009763717651367,-0.8603490591049194,-1.087049961090088
1761370862829658600,5.15665869140625,-0.8453102111816406,-0.8558033108711243,-1.462278962135315
1761370862848269600,5.17526953125,-0.6491460800170898,-0.5816760063171387,-2.2282609939575195
1761370862866881800,5.1938818359375,-0.5374393463134766,-0.09751665592193604,-3.124525547027588
1761370862885492700,5.21249267578125,0.037194252014160156,0.22674274444580078,-3.3273987770080566
1761370862904105200,5.231105224609375,1.552384376525879,0.2239161729812622,-2.744074583053589
1761370862922716000,5.2497158203125,3.6304779052734375,-0.2623593807220459,-1.8759287595748901
1761370862941328400,5.268328369140625,4.7099504470825195,-0.9809236526489258,-1.2064052820205688
1761370862959939300,5.286939208984375,4.236128807067871,-1.0008275508880615,-1.434879183769226
1761370862978551800,5.3055517578125,2.4291868209838867,-1.352983832359314,-1.706706166267395
1761370862997162800,5.324162841796875,1.0673294067382812,-0.9622801542282104,-2.3466594219207764
1761370863015775000,5.34277490234375,0.3133201599121094,-0.40267235040664673,-2.998835563659668
1761370863034386000,5.361385986328125,0.05390644073486328,-0.15642619132995605,-2.7791171073913574
1761370863052998400,5.379998291015625,0.5539636611938477,-0.06669580936431885,-1.8216419219970703
1761370863071609300,5.398609375,1.5438737869262695,0.02345263957977295,-0.9759917259216309
1761370863090221800,5.417221923828125,1.9996719360351562,0.06406962871551514,-0.3657660484313965
1761370863108832500,5.43583251953125,1.6895685195922852,-0.19289445877075195,0.4443296194076538
1761370863127445000,5.454445068359375,1.8686790466308594,-0.18202614784240723,0.904154360294342
1761370863146056000,5.473055908203125,2.353693962097168,-0.40847551822662354,1.2717845439910889
1761370863164668400,5.49166845703125,2.3454456329345703,-0.896490216255188,1.5941729545593262
1761370863183279000,5.510279052734375,1.8144779205322266,-1.501613736152649,1.9388580322265625
1761370863201891600,5.5288916015625,1.0081148147583008,-1.9243569374084473,1.9577921628952026
1761370863220502500,5.54750244140625,-0.1215829849243164,-2.242342472076416,1.8112852573394775
1761370863239115000,5.566114990234375,-1.2270984649658203,-2.2964611053466797,1.5594158172607422
1761370863257726000,5.584725830078125,-2.2957377433776855,-2.0890815258026123,1.5572588443756104
1761370863276338200,5.603338134765625,-3.0920071601867676,-1.9090286493301392,1.728489875793457
1761370863294949000,5.62194921875,-3.5396156311035156,-1.7177327871322632,1.8331103324890137
1761370863313561600,5.6405615234375,-3.7195801734924316,-1.2958717346191406,1.8272104263305664
1761370863332172500,5.659172607421875,-4.107588768005371,-0.9166529178619385,2.0826735496520996
1761370863350785000,5.677784912109375,-4.400829315185547,-0.6613919734954834,2.383729934692383
1761370863369395700,5.696395751953125,-3.890692710876465,-0.38442397117614746,2.1695072650909424
1761370863388008200,5.71500830078125,-2.367020606994629,0.04932403564453125,1.2997956275939941
1761370863406619100,5.733619140625,-0.2963905334472656,0.6511449813842773,0.02842116355895996
1761370863425231600,5.752231689453125,1.1925725936889648,0.667062520980835,-0.21613645553588867
1761370863443842600,5.770842529296875,1.7164020538330078,-0.2877458333969116,1.3382275104522705
1761370863462454800,5.789454833984375,2.182252883911133,-0.23389315605163574,1.2135405540466309
1761370863481065700,5.808065673828125,2.107346534729004,-0.596503496170044,1.0964419841766357
1761370863499678200,5.82667822265625,1.5122623443603516,-0.8019620180130005,1.26655912399292
1761370863518289200,5.8452890625,0.9265565872192383,-0.9525630474090576,1.1574820280075073
1761370863536901600,5.863901611328125,0.45349788665771484,-1.013850450515747,1.09557044506073
1761370863555512600,5.8825126953125,0.4010581970214844,-0.8617575168609619,1.263741135597229
1761370863574124800,5.901124755859375,0.02547931671142578,-0.7318738698959351,1.129827857017517
1761370863592735700,5.91973583984375,-0.2380533218383789,-0.4864077568054199,0.820676326751709
1761370863611348200,5.93834814453125,-0.20385360717773438,-0.26450610160827637,0.6644296050071716
1761370863629959200,5.956959228515625,-0.01938629150390625,-0.32799434661865234,0.3786256015300751
1761370863648571600,5.975571533203125,0.40764617919921875,-0.41445493698120117,0.14075002074241638
1761370863667182600,5.9941826171875,0.8280010223388672,-0.35799717903137207,-0.23718583583831787
1761370863685794800,6.012794921875,1.1721916198730469,-0.18896269798278809,-0.5954998135566711
1761370863704405800,6.03140576171875,1.655014991760254,0.11589169502258301,-0.13227170705795288
1761370863723018200,6.050018310546875,2.1423444747924805,0.4812641143798828,0.48836660385131836
1761370863741629200,6.068629150390625,2.4468507766723633,0.7929511070251465,0.3405059576034546
1761370863760241700,6.08724169921875,2.33866024017334,0.49887824058532715,-0.008364364504814148
1761370863778852400,6.105852294921875,1.6202688217163086,0.07822442054748535,-0.378084659576416
1761370863797464800,6.12446484375,0.48261356353759766,0.2554631233215332,-0.8404392600059509
1761370863816075800,6.14307568359375,-0.6675662994384766,0.1532273292541504,-1.1232554912567139
1761370863834688300,6.161688232421875,-1.2288284301757812,0.24437546730041504,-1.1423532962799072
1761370863853299200,6.18029931640625,-1.3225836753845215,0.3363797664642334,-1.0803625583648682
1761370863871911400,6.198911376953125,-1.131587028503418,0.6745438575744629,-0.6735576391220093
1761370863890522400,6.2175224609375,-1.2097654342651367,1.1503410339355469,-0.6533792018890381
1761370863909134800,6.236134765625,-0.9509286880493164,1.3912632465362549,-0.34048253297805786
1761370863927745800,6.254745849609375,-0.5073938369750977,1.1257946491241455,0.492289662361145
1761370863946358300,6.273358154296875,-0.034684181213378906,1.317887306213379,0.4341859817504883
1761370863964969200,6.29196923828125,0.057300567626953125,1.3184621334075928,0.40514618158340454
1761370863983581400,6.31058154296875,-0.3142967224121094,1.2024009227752686,0.5205921530723572
1761370864002192400,6.3291923828125,-0.6823511123657227,1.0424904823303223,0.5334402322769165
1761370864020804900,6.347804931640625,-0.8298683166503906,0.8978815078735352,0.5964879989624023
1761370864039415800,6.366415771484375,-0.6476955413818359,0.8577375411987305,0.7864097356796265
1761370864058028300,6.3850283203125,-0.41646862030029297,0.6989743709564209,0.8501657247543335
1761370864076639200,6.40363916015625,-0.2677116394042969,0.6247677803039551,0.7093685865402222
1761370864095251700,6.422251708984375,-0.051667213439941406,0.7116694450378418,0.32940661907196045
1761370864113862400,6.4408623046875,0.02686309814453125,0.6651473045349121,0.43636712431907654
1761370864132475000,6.459474853515625,0.1824951171875,0.604407548904419,0.7369850873947144
1761370864151085800,6.4780859375,0.3746528625488281,0.8326430320739746,0.42630067467689514
1761370864169698300,6.4966982421875,0.4028778076171875,0.659588098526001,0.5035403370857239
1761370864188309200,6.515309326171875,0.4526348114013672,0.5586719512939453,0.5758033394813538
1761370864206921500,6.53392138671875,0.42389583587646484,0.8404655456542969,0.05072462558746338
1761370864225532400,6.552532470703125,0.4454374313354492,0.8361701965332031,0.12653625011444092
1761370864244145000,6.571144775390625,0.26897716522216797,0.6662323474884033,0.4329509139060974
1761370864262755800,6.589755859375,0.014131546020507812,0.43582630157470703,0.5190920829772949
1761370864281368300,6.608368408203125,-0.3309593200683594,0.2855997085571289,0.3298400044441223
1761370864299979300,6.626979248046875,-0.610621452331543,0.08829760551452637,0.1755458116531372
1761370864318591700,6.645591796875,-0.820526123046875,-0.09267520904541016,-0.022685766220092773
1761370864337202400,6.664202392578125,-0.9258708953857422,-0.1336820125579834,-0.06609666347503662
1761370864355815000,6.68281494140625,-0.7560129165649414,-0.10175800323486328,-0.1031804084777832
1761370864374425900,6.70142578125,-0.19959735870361328,0.044451236724853516,0.14314758777618408
1761370864393038300,6.720038330078125,0.08052444458007812,-0.20211458206176758,0.6836375594139099
1761370864411649300,6.738649169921875,-0.020582199096679688,-0.5950865745544434,1.107262134552002
1761370864430261800,6.75726171875,-0.23521137237548828,-1.1760287284851074,1.1627010107040405
1761370864448872700,6.775872802734375,-0.3943042755126953,-1.2897605895996094,0.8425629734992981
1761370864467485000,6.79448486328125,-0.40421104431152344,-0.6354966163635254,-0.2898235321044922
1761370864486096000,6.813095947265625,-0.7699365615844727,-0.35890889167785645,-0.8507246971130371
1761370864504708400,6.831708251953125,-1.1166152954101562,-0.5150630474090576,-0.5908738374710083
1761370864523319300,6.8503193359375,-0.8071994781494141,-0.6733864545822144,-0.2966935634613037
1761370864541931800,6.868931884765625,-0.31340885162353516,-0.8313620090484619,-0.12459373474121094
1761370864560542700,6.887542724609375,-0.0042629241943359375,-0.8751994371414185,-0.20346152782440186
1761370864579155000,6.906155029296875,0.060034751892089844,-0.8791333436965942,-0.2473050355911255
1761370864597766000,6.924765869140625,-0.023797988891601562,-0.8089535236358643,-0.5053699016571045
1761370864616378400,6.94337841796875,-0.22682666778564453,-0.6979706287384033,-0.7531708478927612
1761370864634989300,6.9619892578125,-0.4648761749267578,-0.5500141382217407,-0.6185495853424072
1761370864653601800,6.980601806640625,-0.4891538619995117,-0.3703821897506714,-0.21432101726531982
1761370864681519400,7.008519287109375,-0.6695175170898438,-0.181343674659729,0.025904536247253418
1761370864700130300,7.02713037109375,-0.7954683303833008,-0.09601616859436035,-0.17024803161621094
1761370864718742500,7.045742431640625,-0.8081731796264648,0.007439732551574707,-0.36235928535461426
1761370864737353500,7.064353515625,-0.6601238250732422,0.13039755821228027,-0.10436844825744629
1761370864755966000,7.082966064453125,-0.30699729919433594,0.32632696628570557,-0.07294142246246338
1761370864774577000,7.101576904296875,0.23183822631835938,0.4619368314743042,0.01244664192199707
1761370864793189400,7.120189453125,0.9149599075317383,0.4495600461959839,0.21057498455047607
1761370864811800000,7.138800048828125,1.5432043075561523,0.3563305139541626,0.3627321720123291
1761370864830412800,7.157412841796875,2.018421173095703,0.22098308801651,0.39112532138824463
1761370864849023500,7.1760234375,2.464994430541992,0.06400543451309204,0.3686414957046509
1761370864867636000,7.194635986328125,2.8195114135742188,-0.027401268482208252,0.2728555202484131
1761370864886247000,7.213246826171875,2.9738874435424805,-0.11432063579559326,0.27173078060150146
1761370864904859400,7.231859375,2.9480533599853516,-0.3846798539161682,0.5940454602241516
1761370864923470300,7.25047021484375,2.8365554809570312,-0.6968615055084229,0.9802833795547485
1761370864942082800,7.269082763671875,2.508133888244629,-0.8831150531768799,0.9893641471862793
1761370864960693500,7.287693603515625,1.7271766662597656,-0.8623960018157959,0.5425154566764832
1761370864979306000,7.306305908203125,0.8177099227905273,-0.670695424079895,-0.0748281478881836
1761370864997917000,7.3249169921875,0.0048236846923828125,-0.404259592294693,-0.24635684490203857
1761370865016529400,7.343529296875,-0.7096748352050781,-0.17764854431152344,0.021034717559814453
1761370865035140400,7.362140380859375,-1.038553237915039,-0.002347111701965332,0.39130711555480957
1761370865053752800,7.3807529296875,-1.246023178100586,0.05772280693054199,0.7325600981712341
1761370865072363500,7.399363525390625,-1.1834564208984375,0.21890056133270264,0.8627148866653442
1761370865090976000,7.41797607421875,-0.9800424575805664,0.6824531555175781,0.7824621796607971
1761370865109587000,7.4365869140625,-0.8165864944458008,1.084726095199585,0.7954779863357544
1761370865128199400,7.455199462890625,-0.9496841430664062,1.2384949922561646,1.0363688468933105
1761370865146810400,7.473810302734375,-1.152277946472168,1.2767173051834106,1.3232262134552002
1761370865165422800,7.4924228515625,-1.0716981887817383,1.390668511390686,1.468167781829834
1761370865184033800,7.51103369140625,-0.27794933319091797,1.4163402318954468,1.7965316772460938
1761370865202646000,7.52964599609375,0.26674842834472656,0.9451119899749756,1.9651209115982056
1761370865221257000,7.548257080078125,0.48648738861083984,0.807605504989624,1.6144373416900635
1761370865239869400,7.566869384765625,0.31772708892822266,0.7129751443862915,1.1679624319076538
1761370865258480400,7.58548046875,-0.09959793090820312,0.5755860805511475,0.8103964328765869
1761370865277092900,7.6040927734375,-0.5445728302001953,0.46666717529296875,0.33524394035339355
1761370865295703800,7.622703857421875,-0.7090530395507812,0.4589387774467468,-0.04502081871032715
1761370865314316300,7.64131640625,-0.5939435958862305,0.43269819021224976,-0.22595906257629395
1761370865332927000,7.659927001953125,-0.2702598571777344,0.4721762537956238,-0.021728038787841797
1761370865351539500,7.67853955078125,0.29105472564697266,0.4357762336730957,0.41136837005615234
1761370865370150400,7.697150390625,0.6071138381958008,0.3157026767730713,0.9170588254928589
1761370865388763000,7.715762939453125,0.4273834228515625,0.1852278709411621,1.2240630388259888
1761370865407373800,7.734373779296875,0.16092872619628906,0.06438052654266357,1.1452420949935913
1761370865425986300,7.752986328125,-0.014217376708984375,-0.16705453395843506,0.7548427581787109
1761370865444597000,7.771596923828125,0.010660171508789062,-0.3446681499481201,0.19150018692016602
1761370865463209500,7.79020947265625,0.175811767578125,-0.20431816577911377,-0.5199012756347656
1761370865481820400,7.8088203125,0.3246736526489258,0.23675572872161865,-1.073347568511963
1761370865500433000,7.827432861328125,0.4861297607421875,0.6433243751525879,-1.314324140548706
1761370865519043800,7.8460439453125,0.7553815841674805,0.6136938333511353,-1.168168306350708
1761370865537656300,7.86465625,0.7841310501098633,0.2320692539215088,-0.9783663749694824
1761370865556267300,7.883267333984375,0.6015615463256836,0.0042951107025146484,-1.1857361793518066
1761370865574879700,7.901879638671875,0.1839122772216797,0.03491711616516113,-1.5047407150268555
1761370865593490400,7.920490478515625,-0.4295053482055664,0.23050141334533691,-1.4014568328857422
1761370865612103000,7.93910302734375,-0.49341487884521484,0.47001171112060547,-1.3447749614715576
1761370865630713900,7.9577138671875,0.32849788665771484,0.2225041389465332,-1.2056386470794678
1761370865649326300,7.976326416015625,1.2842521667480469,-0.38642656803131104,-0.9137346744537354
1761370865667937300,7.994937255859375,1.5562162399291992,-0.8853390216827393,-0.820035457611084
1761370865686549800,8.0135498046875,0.7983789443969727,-1.1061034202575684,-0.837639331817627
1761370865705160400,8.032160400390625,-0.4152812957763672,-1.0119632482528687,-0.91190505027771
1761370865723773000,8.05077294921875,-1.2752270698547363,-0.7937372922897339,-0.832859992980957
1761370865742383900,8.0693837890625,-1.5011234283447266,-0.5637814998626709,-0.5789182186126709
1761370865760996400,8.087996337890624,-1.279031753540039,-0.5824090242385864,-0.17714858055114746
1761370865779607300,8.106607177734375,-0.7853794097900391,-0.7033416032791138,0.33637499809265137
1761370865798219800,8.1252197265625,-0.4262676239013672,-0.9132936000823975,0.8813352584838867
1761370865816830700,8.143830810546875,-0.5489063262939453,-1.077114224433899,1.075128197669983
1761370865835443200,8.162443115234375,-1.048356056213379,-1.0621662139892578,0.7720973491668701
1761370865854054000,8.181053955078125,-1.5923547744750977,-1.0288150310516357,0.18155217170715332
1761370865872666400,8.199666259765625,-2.0540084838867188,-0.8998773097991943,-0.1458885669708252
1761370865891277300,8.21827734375,-2.5660152435302734,-0.7156980037689209,-0.12491798400878906
1761370865909889800,8.236889892578125,-2.5832457542419434,-0.5051553249359131,-0.12786293029785156
1761370865928500700,8.255500732421876,-2.1593475341796875,-0.30347776412963867,-0.045499563217163086
1761370865947113200,8.27411328125,-1.4574460983276367,-0.1112070083618164,0.18382394313812256
1761370865965724200,8.29272412109375,-0.9521913528442383,0.020101070404052734,0.35216212272644043
1761370865984336600,8.311336669921875,-0.3121070861816406,0.24688720703125,0.28576183319091797
1761370866002947300,8.329947265625,0.2459859848022461,0.20672082901000977,0.3177773952484131
1761370866021559800,8.348559814453125,0.6364965438842773,0.16921281814575195,0.37294626235961914
1761370866040170800,8.367170654296874,1.0720329284667969,0.18378949165344238,0.45924627780914307
1761370866058783200,8.385783203125,1.5394220352172852,0.05515575408935547,0.6905365586280823
1761370866077394200,8.404394287109374,1.692983627319336,-0.1434849500656128,0.7792454361915588
1761370866096006700,8.423006591796875,1.3808250427246094,-0.13730919361114502,0.7185665369033813
1761370866114617600,8.44161767578125,0.7905035018920898,-0.0051991939544677734,0.5498316287994385
1761370866133230000,8.46022998046875,0.3407783508300781,0.15926361083984375,0.3628954589366913
1761370866151840800,8.4788408203125,0.09547233581542969,0.14888405799865723,0.2627571225166321
1761370866170453200,8.497453369140626,0.13427734375,0.18314528465270996,0.21123898029327393
1761370866189064200,8.516064208984375,0.3879384994506836,0.10557055473327637,0.30114781856536865
1761370866207676700,8.5346767578125,0.7662019729614258,-0.10801243782043457,0.4334507882595062
1761370866226287600,8.55328759765625,1.1665258407592773,-0.4372384548187256,0.5332301259040833
1761370866244900000,8.571900146484374,1.398390769958496,-0.6820368766784668,0.40808355808258057
1761370866263511000,8.590510986328125,1.2145471572875977,-0.5965017080307007,-0.03181779384613037
1761370866282123500,8.60912353515625,0.6669864654541016,-0.4849104881286621,-0.34685516357421875
1761370866300734200,8.627734130859375,-0.05413246154785156,-0.2795976400375366,-0.5049513578414917
1761370866319346700,8.6463466796875,-0.46289730072021484,0.011433839797973633,-0.5306361317634583
1761370866337957600,8.66495751953125,-0.5010948181152344,0.18545842170715332,-0.3175744414329529
1761370866356570000,8.683570068359375,-0.33069801330566406,0.21454274654388428,0.056318193674087524
1761370866375181000,8.70218115234375,0.044478416442871094,0.15208101272583008,0.40527796745300293
1761370866393793500,8.72079345703125,0.33750152587890625,0.06470012664794922,0.5758799314498901
1761370866412404500,8.739404541015626,0.5095224380493164,0.0015617609024047852,0.5683677196502686
1761370866431017000,8.758016845703125,0.4710960388183594,0.10087621212005615,0.3192386031150818
1761370866449628000,8.7766279296875,0.20383358001708984,0.07011222839355469,0.1361154019832611
1761370866468240100,8.795240234375,-0.20196914672851562,0.26060426235198975,-0.11772666871547699
1761370866486851000,8.81385107421875,-0.5875663757324219,0.530502438545227,-0.1727745682001114
1761370866505463600,8.832463623046875,-0.83245849609375,0.7116819620132446,-0.16373784840106964
1761370866524074500,8.851074462890624,-0.7631340026855469,0.6876884698867798,-0.0026477649807929993
1761370866542687000,8.86968701171875,-0.4485893249511719,0.4797738790512085,0.1707172691822052
1761370866561298000,8.8882978515625,-0.1288890838623047,0.5682419538497925,0.047364670783281326
1761370866579910400,8.906910400390625,-0.028005599975585938,0.5966098308563232,-0.002475207671523094
1761370866598521300,8.925521240234374,-0.09786701202392578,0.49510228633880615,0.023957982659339905
1761370866617133800,8.9441337890625,-0.2069835662841797,0.3938906192779541,-0.07455500960350037
1761370866635744500,8.96274462890625,-0.32993412017822266,0.3393218517303467,-0.27133041620254517
1761370866654357000,8.98135693359375,-0.2645721435546875,0.30893027782440186,-0.4957645833492279
1761370866672968000,8.999968017578125,-0.011294364929199219,0.234735369682312,-0.6042596101760864
1761370866691580400,9.018580322265626,0.11139106750488281,0.10667550563812256,-0.5342390537261963
1761370866710191400,9.03719140625,-0.05515766143798828,0.08044373989105225,-0.3930964767932892
1761370866728803800,9.055803955078124,-0.32256412506103516,0.230759859085083,-0.38538792729377747
1761370866747414800,9.074414794921875,-0.42185020446777344,0.4654545783996582,-0.5013809204101562
1761370866766027300,9.09302734375,-0.3273792266845703,0.597736120223999,-0.3978230953216553
1761370866784638200,9.11163818359375,-0.11969947814941406,0.6407599449157715,-0.17925822734832764
1761370866803250700,9.130250732421874,0.3214149475097656,0.5201456546783447,0.09400862455368042
1761370866821861400,9.148861328125,0.9010810852050781,0.2721881866455078,0.19472327828407288
1761370866840474000,9.16747412109375,1.1385688781738281,-0.11687660217285156,0.1769212782382965
1761370866859084800,9.186084716796875,1.0327367782592773,-0.5405927896499634,-0.026508575305342674
1761370866877697300,9.204697265625,0.6787309646606445,-0.8370596170425415,-0.4381513297557831
1761370866896308200,9.22330810546875,0.09568977355957031,-0.976333737373352,-0.8047294616699219
1761370866914920700,9.241920654296875,-0.5275344848632812,-0.9449208974838257,-1.068037986755371
1761370866933531600,9.26053173828125,-1.007105827331543,-0.637768030166626,-1.3166553974151611
1761370866952144100,9.27914404296875,-1.227670669555664,-0.3774271011352539,-1.4709281921386719
1761370866970755000,9.297755126953126,-1.0161190032958984,-0.14351296424865723,-1.371612310409546
1761370866989367600,9.316367431640625,-0.5769710540771484,0.08669543266296387,-1.1743215322494507
1761370867007978500,9.334978515625,-0.22092247009277344,0.28624868392944336,-0.8748220801353455
1761370867026591000,9.353591064453125,0.0678091049194336,0.3999330997467041,-0.5220620632171631
1761370867045202000,9.372201904296874,0.36415958404541016,0.5023996829986572,-0.10187539458274841
1761370867063814400,9.390814453125,0.5815896987915039,0.4396240711212158,0.244867205619812
1761370867082425000,9.409425048828124,0.8386631011962891,0.3497152328491211,0.38763314485549927
1761370867101037600,9.42803759765625,1.1330375671386719,0.047097206115722656,0.5183728933334351
1761370867119648500,9.4466484375,1.3423357009887695,-0.22735607624053955,0.4699302911758423
1761370867138261000,9.465260986328126,1.2532453536987305,-0.5483583211898804,0.529767632484436
1761370867156872000,9.483871826171875,0.9612741470336914,-0.8139709234237671,0.5718904137611389
1761370867175484400,9.502484375,0.8902378082275391,-0.718025803565979,0.054860711097717285
1761370867194095400,9.521095458984375,0.762333869934082,-0.6290768384933472,-0.27683332562446594
1761370867212707800,9.539707763671874,0.5561180114746094,-0.5711308717727661,-0.3120233714580536
1761370867231318800,9.55831884765625,0.42536354064941406,-0.5087528228759766,0.06761008501052856
1761370867249931300,9.57693115234375,0.6066293716430664,-0.38706517219543457,0.3547988533973694
1761370867268542000,9.5955419921875,0.6256828308105469,-0.5548402070999146,0.6580212116241455
1761370867287154700,9.61415478515625,0.5904502868652344,-0.608755350112915,1.0743695497512817
1761370867305765400,9.632765380859375,0.5890188217163086,-0.6953015327453613,1.3097788095474243
1761370867324377900,9.6513779296875,0.8380565643310547,-0.9982732534408569,1.2652935981750488
1761370867342988800,9.66998876953125,0.9326715469360352,-1.250585913658142,1.0313276052474976
1761370867361601300,9.688601318359375,0.4936504364013672,-1.4354850053787231,1.1066820621490479
1761370867380212200,9.707212158203125,-0.17286014556884766,-1.329603910446167,0.8891297578811646
1761370867398824700,9.72582470703125,-0.8093042373657227,-1.0617473125457764,0.6476826071739197
1761370867417435600,9.744435546875,-1.1845388412475586,-0.9979298114776611,0.6596485376358032
1761370867436048100,9.763048095703125,-0.9919824600219727,-1.0205533504486084,0.785587728023529
1761370867454659000,9.7816591796875,-0.48067474365234375,-1.1225078105926514,1.0428824424743652
1761370867473271600,9.800271484375,-0.16515350341796875,-1.2066898345947266,1.303840160369873
1761370867491882500,9.818882568359374,-0.23220157623291016,-1.007932186126709,1.2695447206497192
1761370867510495000,9.837494873046875,-0.3385505676269531,-0.5345742702484131,0.7984548807144165
1761370867529105700,9.856105712890624,-0.13484668731689453,-0.09870290756225586,0.761871874332428
1761370867547718100,9.87471826171875,0.23290061950683594,0.0022706985473632812,1.2531306743621826
1761370867566329000,9.8933291015625,0.46491241455078125,0.0010645389556884766,1.9103212356567383
1761370867584941600,9.911941650390625,0.3792896270751953,-0.07487988471984863,2.2902753353118896
1761370867603552500,9.930552490234374,0.13256072998046875,-0.0449376106262207,2.2023346424102783
1761370867622165000,9.9491650390625,-0.4082956314086914,-0.011571884155273438,1.8564895391464233
1761370867640776000,9.96777587890625,-0.9559001922607422,0.03886270523071289,1.4860239028930664
1761370867659388400,9.986388427734376,-1.2918634414672852,0.15778732299804688,1.0261688232421875
1761370867677999400,10.004999267578125,-1.4662609100341797,0.22542929649353027,0.6725693941116333
1761370867696611800,10.02361181640625,-1.36480712890625,0.16345763206481934,0.6104139685630798
1761370867715222800,10.042222900390625,-1.0269842147827148,0.09262752532958984,0.7483124136924744
1761370867733835300,10.060835205078124,-0.7487764358520508,-0.060407161712646484,0.7897727489471436
1761370867752446000,10.079446044921875,-0.6906299591064453,-0.1680924892425537,0.5540307760238647
1761370867771058700,10.09805859375,-0.7954950332641602,-0.11947941780090332,0.1753755807876587
1761370867789669400,10.11666943359375,-0.7178382873535156,0.03719925880432129,-0.17953762412071228
1761370867808281900,10.13528173828125,-0.18357086181640625,0.2456059455871582,-0.29842132329940796
1761370867826892800,10.153892822265625,0.42539215087890625,0.1506941318511963,0.05523199588060379
1761370867845505300,10.17250537109375,1.1091022491455078,0.18296456336975098,0.4880194664001465
1761370867864116200,10.1911162109375,1.7011642456054688,0.34641551971435547,0.8361395001411438
1761370867882728700,10.209728759765625,1.8925113677978516,0.17325043678283691,1.3663543462753296
1761370867901339600,10.228339599609376,1.7669477462768555,-0.2659628391265869,1.5864495038986206
1761370867919952100,10.2469521484375,1.197122573852539,-0.43938446044921875,1.1824921369552612
1761370867938563000,10.26556298828125,0.6094627380371094,-0.48151206970214844,0.686924159526825
1761370867957175600,10.284175537109375,0.13428211212158203,-0.7005600929260254,0.5674871206283569
1761370867975786500,10.302786376953126,-0.22249507904052734,-0.995262861251831,0.7257827520370483
1761370867994398700,10.321398681640625,-0.6102046966552734,-1.2255451679229736,0.7112375497817993
1761370868013009700,10.340009765625,-1.127610206604004,-1.2264461517333984,0.3638302683830261
1761370868031622100,10.3586220703125,-1.5497865676879883,-0.8850617408752441,-0.18784230947494507
1761370868050233000,10.377233154296874,-1.9508299827575684,-0.5215449333190918,-0.6790342330932617
1761370868068845600,10.395845458984375,-1.9928979873657227,0.24389314651489258,-1.1512285470962524
1761370868087456500,10.41445654296875,-1.0621767044067383,0.9109499454498291,-1.220963478088379
1761370868106069000,10.433069091796876,0.22681522369384766,0.6884925365447998,-0.3381868004798889
1761370868124680000,10.451679931640625,1.5937299728393555,0.25336551666259766,0.5326439738273621
1761370868143292400,10.47029248046875,2.540180206298828,-0.09189319610595703,0.8243783116340637
1761370868161903400,10.4889033203125,2.441730499267578,-0.5850009918212891,1.1562758684158325
1761370868180515800,10.507515869140626,1.5783023834228516,-1.017277479171753,1.2773727178573608
1761370868199126500,10.52612646484375,0.6655483245849609,-0.9601943492889404,0.5646479725837708
1761370868217739300,10.5447392578125,-0.3100013732910156,-0.7647485733032227,-0.10603821277618408
1761370868236350000,10.563349853515625,-1.0763912200927734,-0.6880145072937012,-0.1567583680152893
1761370868254962400,10.58196240234375,-1.4366092681884766,-0.6674344539642334,0.11115610599517822
1761370868273573400,10.600573486328125,-1.5153169631958008,-0.6232261657714844,0.44210290908813477
1761370868292185900,10.619185791015624,-1.4416027069091797,-0.6242465972900391,0.843629777431488
1761370868310796800,10.637796875,-1.3585023880004883,-0.7036802768707275,0.734748125076294
1761370868329409300,10.6564091796875,-1.3384990692138672,-0.7311713695526123,0.5510664582252502
1761370868348020200,10.675020263671875,-1.2080888748168945,-0.8319611549377441,0.6773216724395752
1761370868366632700,10.6936328125,-0.7147550582885742,-0.9150761365890503,0.9505078792572021
1761370868385243600,10.71224365234375,-0.1430225372314453,-1.1829360723495483,1.4464201927185059
1761370868403856100,10.730856201171875,0.30205631256103516,-1.4875035285949707,1.865870714187622
1761370868422467000,10.749467041015626,0.16938495635986328,-1.5336240530014038,2.1784956455230713
1761370868441079600,10.76807958984375,-0.4743013381958008,-1.4945456981658936,2.3677666187286377
1761370868459690200,10.786690185546876,-1.046647071838379,-1.1303843259811401,1.958451509475708
1761370868478302700,10.805302734375,-1.4066362380981445,-0.770737886428833,1.2588613033294678
1761370868496913700,10.82391357421875,-1.4499406814575195,-0.5811114311218262,0.6942453980445862
1761370868515526100,10.842526123046875,-1.0803461074829102,-0.5744948387145996,0.39788419008255005
1761370868534137000,10.86113720703125,-0.5139360427856445,-0.6557718515396118,0.3158816695213318
1761370868552749600,10.87974951171875,-0.06106853485107422,-0.6887409687042236,0.08225715160369873
1761370868571360500,10.898360595703124,0.11864280700683594,-0.6480410099029541,-0.13868892192840576
1761370868589973000,10.916972900390626,0.25942230224609375,-0.47231197357177734,0.08591020107269287
1761370868608584000,10.935583984375,0.42126941680908203,-0.40692317485809326,0.3816661238670349
1761370868627196400,10.954196533203126,0.5566301345825195,-0.3501930236816406,0.6089898943901062
1761370868645807000,10.97280712890625,0.5703744888305664,-0.29135382175445557,0.5872251391410828
1761370868664419800,10.991419921875,0.4639320373535156,-0.39975059032440186,0.4860442280769348
1761370868683030500,11.010030517578125,0.32900238037109375,-0.6910760402679443,0.47207364439964294
1761370868701643000,11.02864306640625,-0.013199806213378906,-0.8541886806488037,0.611643373966217
1761370868720254000,11.04725390625,-0.7583150863647461,-1.0736870765686035,0.6540738940238953
1761370868738866400,11.065866455078124,-1.0112190246582031,-1.5383729934692383,0.5453051328659058
1761370868757477400,11.084477294921875,-0.8188676834106445,-1.7067500352859497,0.04800635576248169
1761370868776089900,11.10308984375,-0.9262399673461914,-1.8991271257400513,-0.6154899597167969
1761370868794700800,11.12170068359375,-0.9476394653320312,-2.0459628105163574,0.0127677321434021
1761370868813313300,11.140313232421875,-1.5809593200683594,-2.2274537086486816,0.9667716026306152
1761370868831924200,11.15892431640625,-2.414952278137207,-2.395794153213501,1.0335566997528076
