time,seconds_elapsed,z,y,x
1761370247923738000,0.187738037109375,-0.10216999053955078,-0.18657374382019043,-0.02681910991668701
1761370247942348300,0.206348388671875,-0.11585140228271484,-0.17973756790161133,0.05305135250091553
1761370247960960300,0.224960205078125,-0.19157695770263672,-0.2018280029296875,0.04705244302749634
1761370247979570700,0.24357080078125,-0.1838693618774414,-0.20023131370544434,0.11078625917434692
1761370247998182700,0.2621826171875,-0.045101165771484375,-0.19997310638427734,0.11064678430557251
1761370248016793000,0.28079296875,-0.09560394287109375,-0.29787635803222656,0.039196133613586426
1761370248035405000,0.299405029296875,-0.037384986877441406,-0.3341202735900879,0.08269202709197998
1761370248054015500,0.318015380859375,-0.39809226989746094,0.04822945594787598,0.10972297191619873
1761370248072627200,0.336627197265625,-0.4613962173461914,0.3363978862762451,0.10844635963439941
1761370248091237600,0.355237548828125,-0.7166290283203125,0.17612910270690918,0.2265331745147705
1761370248109849600,0.373849609375,-0.26389217376708984,0.03509926795959473,0.6027326583862305
1761370248128460000,0.3924599609375,0.9885272979736328,0.11833596229553223,0.18628084659576416
1761370248147072000,0.411072021484375,0.9852571487426758,-0.14116990566253662,-0.06583631038665771
1761370248165682400,0.429682373046875,0.5642862319946289,-0.413061261177063,0.061974287033081055
1761370248184294400,0.44829443359375,0.3742799758911133,-0.42711853981018066,-0.19072604179382324
1761370248202904800,0.46690478515625,0.2173919677734375,-0.09849655628204346,-0.455737829208374
1761370248221516800,0.485516845703125,0.25951385498046875,-0.07541775703430176,-0.40172648429870605
1761370248240127200,0.504127197265625,0.657383918762207,-0.30468201637268066,-0.39477109909057617
1761370248258739200,0.5227392578125,0.5589132308959961,-0.6138694286346436,-0.3472137451171875
1761370248277349400,0.541349365234375,0.6152515411376953,-0.9261264801025391,-0.3460826873779297
1761370248295961300,0.55996142578125,0.38396263122558594,-1.1124508380889893,-0.6111087799072266
1761370248314571800,0.57857177734375,-0.37682628631591797,-0.8840433955192566,-0.7945606708526611
1761370248333183700,0.597183837890625,-1.3043804168701172,-0.7068455219268799,-0.42366790771484375
1761370248351794200,0.615794189453125,-1.4273643493652344,-0.42461204528808594,-0.2589147090911865
1761370248370406100,0.63440625,-0.9088153839111328,0.16042101383209229,-0.9698319435119629
1761370248389016600,0.6530166015625,-1.2062406539916992,-0.10247218608856201,-0.6147468090057373
1761370248407628500,0.671628662109375,-1.409045696258545,-0.17969655990600586,-0.7290334701538086
1761370248426239000,0.690239013671875,-1.037552833557129,0.4273219108581543,-1.0442936420440674
1761370248444851000,0.708850830078125,-0.06821346282958984,0.67259681224823,-0.8044793605804443
1761370248463461400,0.72746142578125,0.39429569244384766,0.6827268600463867,-0.64927077293396
1761370248482073000,0.746072998046875,0.3074216842651367,0.09356558322906494,0.02906656265258789
1761370248500683500,0.76468359375,0.7710666656494141,0.15774524211883545,0.2846243381500244
1761370248519295500,0.78329541015625,0.6940155029296875,0.4555138349533081,0.4363365173339844
1761370248537906000,0.801906005859375,0.14430522918701172,1.0416641235351562,0.04567909240722656
1761370248556518000,0.820517822265625,-0.009939193725585938,1.5597896575927734,-0.47466015815734863
1761370248575128300,0.83912841796875,-0.22168922424316406,1.7168059349060059,-0.9980471134185791
1761370248593740300,0.857740234375,-0.2905254364013672,1.2996652126312256,-1.1237232685089111
1761370248612350700,0.876350830078125,0.32460784912109375,0.5965330600738525,-0.18225836753845215
1761370248630962700,0.894962646484375,0.49170589447021484,0.6062848567962646,0.07868599891662598
1761370248649573000,0.913572998046875,0.3253517150878906,0.4483931064605713,0.18892931938171387
1761370248668185000,0.93218505859375,0.14397811889648438,0.3171534538269043,0.01760554313659668
1761370248686795500,0.95079541015625,-0.1176767349243164,0.21769976615905762,-0.1704859733581543
1761370248705407500,0.969407470703125,-0.35622501373291016,0.11364316940307617,-0.22563910484313965
1761370248724018000,0.988017822265625,-0.30176734924316406,0.1551985740661621,-0.22130823135375977
1761370248742630000,1.0066298828125,0.06437492370605469,0.12377309799194336,0.07415962219238281
1761370248761240300,1.025240234375,0.09229660034179688,0.06571722030639648,0.15658783912658691
1761370248779852300,1.043852294921875,-0.11414051055908203,-0.023885250091552734,0.19968974590301514
1761370248798462500,1.06246240234375,-0.23067378997802734,0.06432867050170898,0.11611652374267578
1761370248817074400,1.081074462890625,0.15325546264648438,0.004003167152404785,-0.08178496360778809
1761370248835684900,1.099684814453125,0.49341487884521484,0.06377923488616943,0.004488825798034668
1761370248854296800,1.118296875,0.2507801055908203,0.1096259355545044,-0.09912514686584473
1761370248872907300,1.1369072265625,0.042199134826660156,0.11324000358581543,-0.0559614896774292
1761370248891519200,1.155519287109375,0.10489082336425781,0.34030818939208984,0.006076216697692871
1761370248910129700,1.174129638671875,0.16460514068603516,0.25192809104919434,0.22896766662597656
1761370248928741600,1.19274169921875,0.1873769760131836,0.3099820613861084,0.41852128505706787
1761370248947352000,1.21135205078125,0.24036693572998047,0.45584535598754883,0.3218507766723633
1761370248965964000,1.229964111328125,0.0312957763671875,0.5480387210845947,0.15975642204284668
1761370248984574500,1.248574462890625,-0.3987588882446289,0.45916199684143066,-0.28591930866241455
1761370249003186400,1.2671865234375,-0.6595268249511719,0.4150722026824951,-0.5575587749481201
1761370249021796900,1.285796875,-0.5340852737426758,0.3576035499572754,-0.6915836334228516
1761370249040408800,1.304408935546875,-0.27608203887939453,0.37187933921813965,-0.7181310653686523
1761370249059019300,1.323019287109375,-0.1672515869140625,0.4200863838195801,-0.7561979293823242
1761370249077631200,1.34163134765625,-0.1969003677368164,0.458432674407959,-0.8386743068695068
1761370249096241700,1.36024169921875,-0.2665739059448242,0.5105447769165039,-0.930077075958252
1761370249114853600,1.378853515625,-0.19428730010986328,0.5570597648620605,-0.8865165710449219
1761370249133464000,1.397464111328125,0.17380237579345703,0.5835516452789307,-0.7861454486846924
1761370249152076000,1.416075927734375,0.43493175506591797,0.6559679508209229,-0.7393298149108887
1761370249170686500,1.4346865234375,0.36028099060058594,0.5226001739501953,-0.4502103328704834
1761370249189298400,1.45329833984375,0.3294801712036133,0.39096617698669434,-0.0862281322479248
1761370249207908600,1.47190869140625,0.5961675643920898,0.1119694709777832,0.3835139274597168
1761370249226520600,1.4905205078125,1.1551094055175781,-0.31681323051452637,0.7271602153778076
1761370249245131000,1.509131103515625,1.5858345031738281,-0.8849380016326904,0.8422250747680664
1761370249263743000,1.527742919921875,1.5753679275512695,-1.4037938117980957,0.8000497817993164
1761370249282353400,1.546353515625,1.2083711624145508,-1.6731822490692139,0.747909426689148
1761370249300965400,1.56496533203125,0.49961185455322266,-1.6429097652435303,0.7335687875747681
1761370249319575800,1.583575927734375,-0.192138671875,-1.4549305438995361,0.7640206813812256
1761370249338187800,1.602187744140625,-0.4712705612182617,-1.34352707862854,0.8907853364944458
1761370249356798200,1.620798095703125,-0.3692588806152344,-1.3193871974945068,1.2138047218322754
1761370249375410200,1.63941015625,-0.18879127502441406,-1.3845301866531372,1.4675676822662354
1761370249394020600,1.6580205078125,-0.09832572937011719,-1.3694982528686523,1.5932527780532837
1761370249412632600,1.676632568359375,-0.19184494018554688,-1.2647960186004639,1.5782877206802368
1761370249431243000,1.695242919921875,-0.5193490982055664,-1.0210976600646973,1.3467175960540771
1761370249449855000,1.71385498046875,-0.6955766677856445,-0.6924951076507568,1.0815845727920532
1761370249468465400,1.73246533203125,-0.46718692779541016,-0.3017451763153076,0.9251917600631714
1761370249487077400,1.751077392578125,-0.1358623504638672,0.032387733459472656,0.8381825685501099
1761370249505687800,1.769687744140625,0.15427589416503906,0.3632998466491699,0.8183355927467346
1761370249524299800,1.7882998046875,0.40076160430908203,0.548861026763916,0.9496278166770935
1761370249542910200,1.80691015625,0.48755550384521484,0.6681649684906006,1.0093340873718262
1761370249561522200,1.825522216796875,0.5778913497924805,0.6638736724853516,0.9870952367782593
1761370249580132600,1.844132568359375,0.8922796249389648,0.4901900291442871,0.9073014259338379
1761370249598744600,1.86274462890625,1.2863922119140625,0.24553966522216797,0.8021317720413208
1761370249617355000,1.88135498046875,1.1373281478881836,-0.07707333564758301,0.772204577922821
1761370249635967000,1.899967041015625,0.5515508651733398,-0.24804949760437012,0.648674488067627
1761370249654577400,1.918577392578125,-0.1300029754638672,-0.2853856086730957,0.7309718132019043
1761370249673189400,1.937189453125,-0.5541563034057617,-0.15929102897644043,0.7391881346702576
1761370249691799800,1.9557998046875,-0.3935585021972656,0.12296342849731445,0.5613741278648376
1761370249710411800,1.974411865234375,-0.09611225128173828,0.15697097778320312,0.5538603067398071
1761370249729022200,1.993022216796875,0.07939529418945312,0.14302802085876465,0.7695531249046326
1761370249747634200,2.01163427734375,0.19083786010742188,0.16131210327148438,0.9873161315917969
1761370249766244600,2.03024462890625,0.29480838775634766,0.0985572338104248,1.2581735849380493
1761370249784856600,2.048856689453125,0.2478351593017578,-0.06817865371704102,1.465351939201355
1761370249803467000,2.067467041015625,0.023688316345214844,-0.21860051155090332,1.4327682256698608
1761370249822079000,2.086078857421875,-0.31594181060791016,-0.3002283573150635,1.3381125926971436
1761370249840689400,2.104689453125,-0.5370340347290039,-0.33425426483154297,1.218443512916565
1761370249859301400,2.12330126953125,-0.41817569732666016,-0.4206399917602539,0.9318010807037354
1761370249877911800,2.141911865234375,-0.141998291015625,-0.5084834098815918,0.6209006309509277
1761370249896523800,2.160523681640625,0.1186676025390625,-0.509244441986084,0.2769376039505005
1761370249915134200,2.17913427734375,0.23875713348388672,-0.37511634826660156,-0.02924931049346924
1761370249933746200,2.19774609375,0.09070968627929688,-0.12451386451721191,-0.28625762462615967
1761370249952356600,2.216356689453125,-0.16894912719726562,0.15968680381774902,-0.49316298961639404
1761370249970968300,2.23496826171875,-0.0160980224609375,0.36528635025024414,-0.46343743801116943
1761370249989578800,2.253578857421875,0.47618961334228516,0.3248467445373535,0.08031928539276123
1761370250008190700,2.272190673828125,0.748138427734375,0.09705233573913574,0.5808157920837402
1761370250026801200,2.29080126953125,0.8631381988525391,-0.28168416023254395,0.6890976428985596
1761370250045413000,2.3094130859375,0.9288263320922852,-0.5447123050689697,0.4730801582336426
1761370250064023600,2.3280234375,0.9348087310791016,-0.800891637802124,0.2494431734085083
1761370250082635500,2.346635498046875,0.7215948104858398,-0.9558606147766113,-0.05991411209106445
1761370250101246000,2.365245849609375,0.3461790084838867,-0.9438722133636475,-0.30670976638793945
1761370250119858000,2.38385791015625,-0.24004364013671875,-0.8097219467163086,-0.45883870124816895
1761370250138468400,2.40246826171875,-0.7945661544799805,-0.5570452213287354,-0.6104260683059692
1761370250157080300,2.421080322265625,-1.044168472290039,-0.3262314796447754,-0.6980946063995361
1761370250175690800,2.439690673828125,-0.9429454803466797,-0.23327207565307617,-0.5253409147262573
1761370250194302700,2.458302734375,-0.6330623626708984,-0.3295021057128906,-0.22553420066833496
1761370250212913200,2.4769130859375,-0.14018535614013672,-0.6408262252807617,-0.020357608795166016
1761370250231525000,2.495525146484375,0.34569549560546875,-1.044584035873413,-0.07278072834014893
1761370250250135600,2.514135498046875,0.7822666168212891,-1.359140157699585,-0.2936983108520508
1761370250268747500,2.53274755859375,0.9488973617553711,-1.549680471420288,-0.6377028226852417
1761370250287358000,2.55135791015625,0.6648025512695312,-1.503180742263794,-0.9788872003555298
1761370250305970000,2.569969970703125,0.010866165161132812,-1.2873568534851074,-1.182793378829956
1761370250324580400,2.588580322265625,-0.558624267578125,-1.0130810737609863,-1.1582461595535278
1761370250343192300,2.6071923828125,-0.5740585327148438,-0.7897031307220459,-0.9772384166717529
1761370250361802800,2.625802734375,-0.2905282974243164,-0.7574558258056641,-0.6170059442520142
1761370250380414700,2.644414794921875,-0.11475086212158203,-0.7527122497558594,-0.36308741569519043
1761370250399025200,2.663025146484375,-0.24007415771484375,-0.7157752513885498,-0.3453117609024048
1761370250417637000,2.68163720703125,-0.6645822525024414,-0.6650080680847168,-0.5325732231140137
1761370250436247800,2.700247802734375,-1.19453763961792,-0.5238006114959717,-0.7193326950073242
1761370250454859500,2.718859619140625,-1.5453863143920898,-0.4030928611755371,-0.6702606678009033
1761370250473470000,2.737469970703125,-1.6410388946533203,-0.36234045028686523,-0.3201819658279419
1761370250492082200,2.756082275390625,-1.3369693756103516,-0.31429076194763184,0.12074637413024902
1761370250510692400,2.7746923828125,-0.6490745544433594,-0.21768498420715332,0.361233651638031
1761370250529304600,2.7933046875,-0.04445648193359375,-0.07207846641540527,0.29444193840026855
1761370250547914800,2.811914794921875,0.16346168518066406,0.13619542121887207,-0.04079103469848633
1761370250566527000,2.83052685546875,0.11262798309326172,0.5235204696655273,-0.6099884510040283
1761370250585137400,2.849137451171875,-0.14293384552001953,0.9164295196533203,-0.9658915996551514
1761370250603749000,2.8677490234375,-0.2938671112060547,1.1701228618621826,-0.6814117431640625
1761370250622359800,2.88635986328125,0.24813175201416016,1.1688122749328613,0.0731590986251831
1761370250640971800,2.9049716796875,1.4075965881347656,0.7903966903686523,0.6587934494018555
1761370250659582200,2.923582275390625,2.3897619247436523,0.15700221061706543,0.7814010381698608
1761370250678194200,2.942194091796875,2.768350601196289,-0.36595654487609863,0.7111967206001282
1761370250696804600,2.9608046875,2.768270492553711,-0.5508027076721191,0.29063594341278076
1761370250715416600,2.97941650390625,2.3628835678100586,-0.5961310863494873,0.015326738357543945
1761370250734027000,2.998027099609375,1.7650861740112305,-0.5366911888122559,0.10467308759689331
1761370250752639000,3.016638916015625,1.2441291809082031,-0.4565999507904053,0.4617222547531128
1761370250771249400,3.03524951171875,0.8995437622070312,-0.38269925117492676,0.758215069770813
1761370250789861400,3.053861328125,0.7382707595825195,-0.30226731300354004,0.7752817869186401
1761370250808471800,3.072471923828125,0.6186256408691406,-0.3148963451385498,0.7488793134689331
1761370250827083800,3.091083740234375,0.3789253234863281,-0.32010388374328613,0.8299432992935181
1761370250845694200,3.109694091796875,0.16358470916748047,-0.3047959804534912,0.9844666719436646
1761370250864306200,3.12830615234375,0.15693092346191406,-0.3362009525299072,1.1050257682800293
1761370250882916600,3.14691650390625,0.28029727935791016,-0.4371330738067627,1.1895804405212402
1761370250901528600,3.165528564453125,0.4509458541870117,-0.4640789031982422,1.2028716802597046
1761370250920139000,3.184138916015625,0.3533906936645508,-0.4839930534362793,1.1921350955963135
1761370250938751000,3.2027509765625,-0.0026273727416992188,-0.4766354560852051,1.0646836757659912
1761370250957361400,3.221361328125,-0.33985042572021484,-0.4500284194946289,0.8388476371765137
1761370250975973400,3.239973388671875,-0.4286832809448242,-0.39418864250183105,0.6774751543998718
1761370250994583800,3.258583740234375,-0.39233970642089844,-0.3279693126678467,0.5678558945655823
1761370251013195800,3.27719580078125,-0.47415924072265625,-0.23424601554870605,0.4753912091255188
1761370251031806200,3.29580615234375,-0.586329460144043,-0.1106421947479248,0.395419716835022
1761370251050418200,3.314418212890625,-0.6074028015136719,-0.02339458465576172,0.3923000693321228
1761370251069028600,3.333028564453125,-0.7279186248779297,0.012447118759155273,0.4097013473510742
1761370251087640600,3.351640625,-0.8318948745727539,0.0682978630065918,0.26516133546829224
1761370251106251300,3.370251220703125,-0.7695217132568359,0.08258366584777832,0.20636862516403198
1761370251124863200,3.38886328125,-0.7041835784912109,0.12001991271972656,0.28400248289108276
1761370251143473700,3.4074736328125,-0.5418415069580078,0.14425945281982422,0.3854006230831146
1761370251162085600,3.426085693359375,-0.4296693801879883,0.15949440002441406,0.5012807250022888
1761370251180696000,3.444696044921875,-0.2444314956665039,0.2368311882019043,0.5733455419540405
1761370251199308000,3.46330810546875,-0.3060636520385742,0.23768401145935059,0.635145902633667
1761370251217918500,3.48191845703125,-0.45874500274658203,0.25895261764526367,0.5713968276977539
1761370251236530400,3.500530517578125,-0.5392780303955078,0.2847728729248047,0.5907472968101501
1761370251255140900,3.519140869140625,-0.49779605865478516,0.3596687316894531,0.5039942860603333
1761370251273752800,3.5377529296875,-0.37470245361328125,0.38388919830322266,0.4398610591888428
1761370251292363300,3.55636328125,-0.1612415313720703,0.35492658615112305,0.4735108017921448
1761370251310975200,3.574975341796875,0.060021400451660156,0.26819276809692383,0.4984269142150879
1761370251329585700,3.593585693359375,0.1720438003540039,0.2225651741027832,0.5133490562438965
1761370251348197600,3.61219775390625,0.19292926788330078,0.2469024658203125,0.40189599990844727
1761370251366808000,3.63080810546875,0.20328617095947266,0.42027997970581055,0.09247076511383057
1761370251385420000,3.649419921875,0.2052288055419922,0.4821953773498535,0.027124404907226562
1761370251404030700,3.66803076171875,0.12190914154052734,0.5578761100769043,0.24698054790496826
1761370251422642700,3.686642578125,0.1509256362915039,0.5631685256958008,0.6842007040977478
1761370251441253000,3.705253173828125,0.4952974319458008,0.36053895950317383,1.0226194858551025
1761370251459865000,3.723864990234375,0.9923887252807617,-0.0436253547668457,1.070284128189087
1761370251478475500,3.7424755859375,1.1712350845336914,-0.5326671600341797,0.9977229833602905
1761370251497087500,3.76108740234375,1.0385427474975586,-0.8621087074279785,0.8100965023040771
1761370251515698000,3.779697998046875,0.6291322708129883,-1.0438761711120605,0.5741294622421265
1761370251534310000,3.798309814453125,0.30852794647216797,-1.0793194770812988,0.23224973678588867
1761370251552920300,3.81692041015625,0.17769813537597656,-1.1328506469726562,-0.05786752700805664
1761370251571532300,3.8355322265625,0.09643173217773438,-1.1381940841674805,-0.09103477001190186
1761370251590142700,3.854142822265625,-0.005654335021972656,-1.0321571826934814,0.0013744831085205078
1761370251608754700,3.872754638671875,-0.1294698715209961,-0.8784496784210205,0.008677482604980469
1761370251627365000,3.891365234375,-0.22858333587646484,-0.704167366027832,-0.09382545948028564
1761370251645977000,3.90997705078125,-0.2502584457397461,-0.5474586486816406,-0.04818606376647949
1761370251664587500,3.92858740234375,-0.02483367919921875,-0.5156230926513672,0.20186126232147217
1761370251683199500,3.947199462890625,0.40299129486083984,-0.626152515411377,0.42884930968284607
1761370251701810000,3.965809814453125,0.8340291976928711,-0.8596935272216797,0.4633474349975586
1761370251720422000,3.984421875,0.8379335403442383,-1.082566738128662,0.34232959151268005
1761370251739032600,4.003032470703125,0.30679798126220703,-1.1799416542053223,0.15905028581619263
1761370251757644500,4.02164453125,-0.30156517028808594,-1.0883493423461914,0.014496207237243652
1761370251776255000,4.0402548828125,-0.6403350830078125,-1.0656869411468506,0.01958709955215454
1761370251794867000,4.058866943359375,-0.7147512435913086,-1.0528793334960938,0.020992815494537354
1761370251813477400,4.077477294921875,-0.8523378372192383,-1.0374760627746582,0.011589586734771729
1761370251832089300,4.09608935546875,-1.0887298583984375,-0.969118595123291,-0.06234920024871826
1761370251850699800,4.11469970703125,-1.300252914428711,-0.8592963218688965,-0.1774674654006958
1761370251869311700,4.133311767578125,-1.328676700592041,-0.7005677223205566,-0.3112753629684448
1761370251887922200,4.151922119140625,-1.0326862335205078,-0.4921598434448242,-0.38989830017089844
1761370251906534100,4.1705341796875,-0.5277748107910156,-0.31261301040649414,-0.26413071155548096
1761370251925144600,4.18914453125,0.039223670959472656,-0.10786819458007812,-0.02174210548400879
1761370251943756500,4.207756591796875,0.5752010345458984,-0.013201713562011719,0.09989416599273682
1761370251962367000,4.226366943359375,0.9084987640380859,0.02065563201904297,-0.03725731372833252
1761370251980979000,4.24497900390625,0.9924564361572266,0.056101083755493164,-0.25904667377471924
1761370251999589400,4.26358935546875,0.9434070587158203,0.15060734748840332,-0.3753918409347534
1761370252018201600,4.28220166015625,1.0027389526367188,0.24294805526733398,-0.2648332118988037
1761370252036812000,4.30081201171875,1.2347736358642578,0.2503335475921631,-0.03054332733154297
1761370252055424000,4.319424072265625,1.251241683959961,0.17498493194580078,0.15870559215545654
1761370252074034400,4.338034423828125,0.9097747802734375,0.18323302268981934,0.17678678035736084
1761370252092646400,4.356646484375,0.39621543884277344,0.3529503345489502,0.08559930324554443
1761370252111256800,4.3752568359375,0.005530357360839844,0.6280403137207031,0.02245306968688965
1761370252129868800,4.393868896484375,-0.1284046173095703,0.7792637348175049,0.10351824760437012
1761370252148479200,4.412479248046875,0.05784416198730469,0.8394429683685303,0.28798508644104004
1761370252167091200,4.43109130859375,0.49701595306396484,0.7215502262115479,0.5586677193641663
1761370252185701600,4.44970166015625,0.955714225769043,0.4430544376373291,0.7216864824295044
1761370252204313600,4.468313720703125,1.2754135131835938,0.08250117301940918,0.7429968118667603
1761370252222924000,4.486924072265625,1.397073745727539,-0.23261451721191406,0.7240589261054993
1761370252241536000,4.505535888671875,1.4483909606933594,-0.5017867088317871,0.6742089986801147
1761370252260146400,4.524146484375,1.2440271377563477,-0.7794528007507324,0.6139016151428223
1761370252278758400,4.54275830078125,0.7039670944213867,-0.9820778369903564,0.56687992811203
1761370252297368800,4.561368896484375,-0.023400306701660156,-1.0781056880950928,0.6255513429641724
1761370252315980800,4.579980712890625,-0.7518033981323242,-1.089942216873169,0.7353813648223877
1761370252334591500,4.598591552734375,-1.3037199974060059,-0.9752364158630371,0.8074245452880859
1761370252353203500,4.617203369140625,-1.5956783294677734,-0.7896835803985596,0.9953103065490723
1761370252371814000,4.63581396484375,-1.6655983924865723,-0.6072814464569092,1.2988239526748657
1761370252390425900,4.65442578125,-1.5230908393859863,-0.4511740207672119,1.5963565111160278
1761370252409036300,4.673036376953125,-1.1357717514038086,-0.44118475914001465,1.7847572565078735
1761370252427648300,4.691648193359375,-0.6686067581176758,-0.5505626201629639,1.881514072418213
1761370252446258700,4.7102587890625,-0.22893524169921875,-0.6170492172241211,1.8600236177444458
1761370252464870700,4.72887060546875,0.09462928771972656,-0.6976478099822998,1.797114610671997
1761370252483481000,4.747481201171875,0.46895885467529297,-0.6757693290710449,1.5262176990509033
1761370252502093000,4.766093017578125,0.6025791168212891,-0.5192692279815674,1.1365702152252197
1761370252520703500,4.784703369140625,0.5981082916259766,-0.12561464309692383,0.8094455599784851
1761370252539315500,4.8033154296875,0.5793752670288086,0.32946228981018066,0.7986230254173279
1761370252557926000,4.82192578125,0.5774745941162109,0.6515228748321533,0.9122978448867798
1761370252576537900,4.840537841796875,0.5547065734863281,0.8206624984741211,1.0983511209487915
1761370252595148300,4.859148193359375,0.46068668365478516,0.854313850402832,1.1569238901138306
1761370252613760500,4.877760498046875,0.2788381576538086,0.8238475322723389,1.0638656616210938
1761370252632371000,4.896370849609375,0.08360767364501953,0.6916177272796631,0.9641587138175964
1761370252650983000,4.91498291015625,-0.08528995513916016,0.532477617263794,0.921108603477478
1761370252669593300,4.93359326171875,-0.009290695190429688,0.347430944442749,0.8840636610984802
1761370252688205300,4.952205322265625,0.16423892974853516,0.18295788764953613,0.7509506940841675
1761370252706815700,4.970815673828125,0.41780853271484375,-0.0056133270263671875,0.5716639757156372
1761370252725427700,4.989427734375,0.6760549545288086,-0.1906278133392334,0.3384177088737488
1761370252744038100,5.0080380859375,0.8574457168579102,-0.18415474891662598,0.0331273078918457
1761370252762650000,5.026650146484375,0.7616643905639648,-0.06750273704528809,-0.050888776779174805
1761370252781260500,5.045260498046875,0.5042304992675781,0.13158631324768066,-0.019742131233215332
1761370252799872500,5.06387255859375,0.2810554504394531,0.3182525634765625,0.13702332973480225
1761370252818483000,5.08248291015625,0.3679342269897461,0.38616943359375,0.57896488904953
1761370252837095000,5.101094970703125,0.7245683670043945,0.27455806732177734,0.9200344681739807
1761370252855705300,5.119705322265625,1.2044591903686523,0.07343006134033203,1.1174477338790894
1761370252874317300,5.1383173828125,1.4777584075927734,-0.25023365020751953,1.064098596572876
1761370252892927700,5.156927734375,1.4660272598266602,-0.6129004955291748,0.7902883291244507
1761370252911539700,5.175539794921875,1.392430305480957,-1.0355300903320312,0.5966520309448242
1761370252930150400,5.194150390625,1.2502822875976562,-1.4811811447143555,0.39030730724334717
1761370252948762400,5.212762451171875,0.9931650161743164,-1.841973066329956,0.24224436283111572
1761370252967372800,5.231372802734375,0.6026811599731445,-2.1281120777130127,0.17847132682800293
1761370252985984800,5.24998486328125,0.184234619140625,-2.2216246128082275,-0.02288687229156494
1761370253004595200,5.26859521484375,-0.225616455078125,-2.1944756507873535,-0.30131828784942627
1761370253023207200,5.287207275390625,-0.5395212173461914,-2.085134267807007,-0.5765589475631714
1761370253041817600,5.305817626953125,-0.7506546974182129,-1.979311466217041,-0.7566372156143188
1761370253060429600,5.3244296875,-0.8070850372314453,-1.84330153465271,-0.6589534282684326
1761370253079040000,5.3430400390625,-0.5099630355834961,-1.7456402778625488,-0.3115307092666626
1761370253097652000,5.36165185546875,0.08418464660644531,-1.7736546993255615,0.08461755514144897
1761370253116262400,5.380262451171875,0.6518793106079102,-1.7982540130615234,0.29361557960510254
1761370253134874400,5.398874267578125,0.9480247497558594,-1.8547348976135254,0.5884547233581543
1761370253153484800,5.41748486328125,0.8790750503540039,-1.9253146648406982,0.6720708608627319
1761370253172096800,5.4360966796875,0.5230045318603516,-1.850620985031128,0.5821998119354248
1761370253190707200,5.454707275390625,-0.05029773712158203,-1.7321891784667969,0.5944961905479431
1761370253209319200,5.473319091796875,-0.5269565582275391,-1.5892479419708252,0.7501488327980042
1761370253227929600,5.4919296875,-0.7497625350952148,-1.5707592964172363,1.1363043785095215
1761370253246541600,5.51054150390625,-0.8916435241699219,-1.4365415573120117,1.4770704507827759
1761370253265152300,5.52915234375,-1.258284091949463,-1.2564492225646973,1.710984468460083
1761370253283764200,5.54776416015625,-1.6736397743225098,-0.9293618202209473,1.7261134386062622
1761370253302374700,5.566374755859375,-1.6053829193115234,-0.6527566909790039,1.4764630794525146
1761370253320986600,5.584986572265625,-0.5931844711303711,-0.4363589286804199,1.3233120441436768
1761370253339597000,5.60359716796875,0.5223207473754883,-0.42255258560180664,1.6170003414154053
1761370253358209000,5.622208984375,1.440171241760254,-0.47072553634643555,1.3649506568908691
1761370253376819500,5.6408193359375,2.4504709243774414,-0.6607542037963867,1.1425803899765015
1761370253395431400,5.659431396484375,3.516676902770996,-1.1903142929077148,1.076935052871704
1761370253414041900,5.678041748046875,3.918238639831543,-1.6059362888336182,0.7258028984069824
1761370253432653800,5.69665380859375,3.4200401306152344,-1.6940619945526123,0.17095601558685303
1761370253451264300,5.71526416015625,2.1713314056396484,-1.540956974029541,-0.16153275966644287
1761370253469876200,5.733876220703125,0.8866672515869141,-1.3453989028930664,-0.34371697902679443
1761370253488486700,5.752486572265625,0.03431510925292969,-1.1369836330413818,-0.47888004779815674
1761370253507098600,5.7710986328125,-0.337066650390625,-0.6820499897003174,-0.602285623550415
1761370253525709000,5.789708984375,-0.3995952606201172,-0.3408365249633789,-0.3948202133178711
1761370253544321000,5.808321044921875,0.055914878845214844,-0.5376055240631104,0.3663644790649414
1761370253562931700,5.826931640625,1.0451269149780273,-1.1062037944793701,0.9696211814880371
1761370253581543400,5.84554345703125,1.8581304550170898,-1.9190020561218262,1.0630205869674683
1761370253600153900,5.86415380859375,2.0222396850585938,-2.765821695327759,0.879021406173706
1761370253618766000,5.88276611328125,1.3522005081176758,-3.084333658218384,0.37122857570648193
1761370253637376500,5.90137646484375,0.18572330474853516,-2.8439435958862305,-0.1608130931854248
1761370253655988500,5.919988525390625,-0.5994768142700195,-2.414609909057617,-0.1972569227218628
1761370253674599000,5.938598876953125,-0.4074220657348633,-2.0727696418762207,0.18790757656097412
1761370253693211000,5.9572109375,0.28343772888183594,-2.031331777572632,0.3405717611312866
1761370253711821300,5.9758212890625,0.5462465286254883,-2.070629835128784,0.06938087940216064
1761370253730433300,5.994433349609375,0.11270713806152344,-1.8619685173034668,-0.5154331922531128
1761370253749043700,6.013043701171875,-0.3198528289794922,-1.3749480247497559,-1.07393479347229
1761370253767655700,6.03165576171875,-0.25029659271240234,-0.7018189430236816,-1.4993956089019775
1761370253786266000,6.05026611328125,0.5968713760375977,-0.23131203651428223,-1.1858339309692383
1761370253804878000,6.068878173828125,1.6643657684326172,0.1374199390411377,-0.6348955631256104
1761370253823488500,6.087488525390625,2.328859329223633,0.278383731842041,-0.05465412139892578
1761370253842100500,6.1061005859375,2.2558412551879883,0.17057561874389648,0.41254186630249023
1761370253860711000,6.1247109375,1.6219549179077148,0.0660552978515625,0.4835796356201172
1761370253879323000,6.143322998046875,0.8866424560546875,-0.020605802536010742,0.4436471462249756
1761370253897933300,6.161933349609375,0.47759437561035156,-0.057871341705322266,0.4152534008026123
1761370253916545300,6.180545166015625,0.5854349136352539,0.027507662773132324,0.42373061180114746
1761370253935156000,6.199156005859375,0.7378721237182617,0.15931904315948486,0.6474094390869141
1761370253953767700,6.217767578125,0.49092578887939453,0.3204045295715332,0.8967444896697998
1761370253972378400,6.23637841796875,-0.044750213623046875,0.44077086448669434,1.1071512699127197
1761370253990990300,6.254990234375,-0.5018548965454102,0.49511492252349854,1.087458610534668
1761370254009600800,6.273600830078125,-0.5943088531494141,0.7834572792053223,1.1785614490509033
1761370254028212700,6.292212646484375,-0.8839321136474609,0.7659733295440674,1.180746078491211
1761370254046823200,6.3108232421875,-1.0396099090576172,1.1648931503295898,0.9930195808410645
1761370254065435100,6.32943505859375,-0.6814498901367188,1.2008026838302612,1.097461462020874
1761370254084045600,6.348045654296875,-0.09785175323486328,1.197056531906128,1.046172857284546
1761370254102657500,6.366657470703125,0.3415813446044922,0.9988428354263306,0.8655343055725098
1761370254121268000,6.38526806640625,0.4825706481933594,0.7710012197494507,0.7095255851745605
1761370254139880000,6.4038798828125,0.5759944915771484,0.6616019010543823,0.38911962509155273
1761370254158490400,6.422490478515625,0.8605546951293945,0.538349986076355,0.09295892715454102
1761370254177102300,6.441102294921875,1.2293224334716797,0.2891578674316406,-0.03262186050415039
1761370254195712800,6.459712646484375,1.6520700454711914,0.15279579162597656,-0.154296875
1761370254214324700,6.47832470703125,2.0694665908813477,-0.10075581073760986,0.03174018859863281
1761370254232935200,6.49693505859375,2.2077722549438477,-0.24454998970031738,0.11757183074951172
1761370254251547100,6.515547119140625,1.9573307037353516,-0.34489715099334717,0.21944808959960938
1761370254270157600,6.534157470703125,1.4998321533203125,-0.37803030014038086,0.3273944854736328
1761370254288769500,6.55276953125,1.1128101348876953,-0.3364598751068115,0.3559284210205078
1761370254307380000,6.5713798828125,0.6924467086791992,-0.3804209232330322,0.4586524963378906
1761370254325992000,6.589991943359375,0.2650175094604492,-0.3696913719177246,0.6148145198822021
1761370254344602400,6.608602294921875,-0.2262744903564453,-0.3016245365142822,0.6344943046569824
1761370254363214300,6.62721435546875,-0.7092018127441406,-0.12266707420349121,0.5324006080627441
1761370254381825000,6.645824951171875,-0.9617271423339844,-0.011615991592407227,0.6800987720489502
1761370254400437000,6.66443701171875,-0.9128642082214355,0.012156009674072266,0.8492436408996582
1761370254419047400,6.68304736328125,-0.7528300285339355,-0.18857955932617188,0.8923888206481934
1761370254437659400,6.701659423828125,-0.6790533065795898,-0.5057384967803955,0.8255419731140137
1761370254456269800,6.720269775390625,-0.6784443855285645,-0.7631292343139648,0.5008158683776855
1761370254474881800,6.7388818359375,-0.6928510665893555,-0.9352822303771973,0.03925609588623047
1761370254493492200,6.7574921875,-0.8376054763793945,-0.9510073661804199,-0.32584238052368164
1761370254512104200,6.776104248046875,-1.1250295639038086,-0.808551549911499,-0.5117378234863281
1761370254530714600,6.794714599609375,-1.3312101364135742,-0.6174602508544922,-0.6658973693847656
1761370254549326600,6.81332666015625,-1.2143406867980957,-0.49410581588745117,-0.8611431121826172
1761370254567937000,6.83193701171875,-0.7683629989624023,-0.3009195327758789,-1.0551013946533203
1761370254586549000,6.850549072265625,-0.46706342697143555,-0.20149612426757812,-0.9073882102966309
1761370254605159400,6.869159423828125,-0.5159673690795898,-0.09624767303466797,-0.596825122833252
1761370254623771400,6.887771484375,-0.7061595916748047,0.06735992431640625,-0.16168928146362305
1761370254642381800,6.9063818359375,-0.540895938873291,0.20425081253051758,0.14401459693908691
1761370254660993800,6.924993896484375,-0.03628730773925781,0.023401260375976562,0.18944740295410156
1761370254679604200,6.943604248046875,0.4142770767211914,-0.26658153533935547,0.05218219757080078
1761370254698216200,6.96221630859375,0.6813869476318359,-0.5157911777496338,-0.10787534713745117
1761370254716826600,6.98082666015625,0.8112010955810547,-0.6448554992675781,-0.12899231910705566
1761370254735438600,6.9994384765625,0.6913280487060547,-0.6669912338256836,-0.03265047073364258
1761370254754049000,7.018049072265625,0.059081077575683594,-0.47580480575561523,-0.056473493576049805
1761370254772661000,7.036660888671875,-0.7021584510803223,-0.15728044509887695,-0.16105246543884277
1761370254791271400,7.055271484375,-1.2827072143554688,0.1129312515258789,-0.13492965698242188
1761370254809883400,7.07388330078125,-1.4377985000610352,0.31574487686157227,-0.020226240158081055
1761370254828493800,7.092493896484375,-1.1649866104125977,0.4514288902282715,0.14945030212402344
1761370254847105800,7.111105712890625,-0.7122507095336914,0.5048551559448242,0.295072078704834
1761370254865716200,7.12971630859375,-0.24892044067382812,0.5269026756286621,0.4272732734680176
1761370254884328200,7.148328125,0.038516998291015625,0.4405527114868164,0.5984156131744385
1761370254902939000,7.16693896484375,0.3119792938232422,0.2980647087097168,0.5580868721008301
1761370254921550600,7.185550537109375,0.5310096740722656,0.10053300857543945,0.3448319435119629
1761370254940161300,7.204161376953125,0.6696653366088867,-0.07191276550292969,0.10213494300842285
1761370254958773000,7.22277294921875,0.7953472137451172,-0.20642471313476562,-0.03184366226196289
1761370254977383700,7.2413837890625,0.8051347732543945,-0.3912210464477539,0.0688469409942627
1761370254995995600,7.25999560546875,0.47588062286376953,-0.4623398780822754,0.3417642116546631
1761370255014606000,7.278606201171875,-0.24473094940185547,-0.3494257926940918,0.4538722038269043
1761370255033218000,7.297218017578125,-0.8710908889770508,-0.20290279388427734,0.4101908206939697
1761370255051828500,7.315828369140625,-1.276902198791504,-0.096099853515625,0.4191610813140869
1761370255070440400,7.3344404296875,-1.3309721946716309,0.04705953598022461,0.45024824142456055
1761370255089051000,7.35305078125,-1.2799696922302246,0.2324237823486328,0.4462229013442993
1761370255107662800,7.371662841796875,-1.302581787109375,0.4298362731933594,0.47565770149230957
1761370255126273300,7.390273193359375,-1.2438483238220215,0.5271053314208984,0.5899204015731812
1761370255144885200,7.40888525390625,-0.7228245735168457,0.45076656341552734,0.7798556089401245
1761370255163495700,7.42749560546875,0.09342002868652344,0.1788954734802246,0.9759902954101562
1761370255182107600,7.446107666015625,0.7002859115600586,-0.12205886840820312,1.024344801902771
1761370255200718000,7.464718017578125,0.981959342956543,-0.30959033966064453,0.8405478000640869
1761370255219330000,7.483330078125,1.1284303665161133,-0.37076282501220703,0.35138940811157227
1761370255237940500,7.5019404296875,0.9200372695922852,-0.19400644302368164,-0.20859920978546143
1761370255256552400,7.520552490234375,0.5955591201782227,0.18176031112670898,-0.3176306486129761
1761370255275163000,7.539162841796875,0.5264596939086914,0.4654383659362793,0.13044309616088867
1761370255293774800,7.55777490234375,0.7456741333007812,0.5905060768127441,0.7554342746734619
1761370255312385300,7.57638525390625,1.149561882019043,0.5351152420043945,1.275515079498291
1761370255330997200,7.594997314453125,1.4453506469726562,0.21989154815673828,1.3816412687301636
1761370255349607700,7.613607666015625,1.4573087692260742,-0.09110879898071289,1.2391103506088257
1761370255368219600,7.6322197265625,0.9814701080322266,-0.21645498275756836,0.9862154126167297
1761370255386830000,7.650830078125,0.12079334259033203,-0.07142925262451172,0.8282141089439392
1761370255405442000,7.669442138671875,-0.5463838577270508,0.07274198532104492,0.8312749862670898
1761370255424052500,7.688052490234375,-0.9192390441894531,0.06282854080200195,1.0729281902313232
1761370255442664400,7.70666455078125,-0.9171338081359863,-0.03938865661621094,1.2165162563323975
1761370255461275100,7.725275146484375,-0.6065912246704102,-0.2134099006652832,1.1262264251708984
1761370255479887000,7.74388720703125,-0.3810081481933594,-0.44386839866638184,0.8677394986152649
1761370255498497500,7.76249755859375,-0.33173179626464844,-0.47533297538757324,0.5671796798706055
1761370255517109500,7.781109619140625,-0.2275714874267578,-0.4201037883758545,0.3769418001174927
1761370255535720000,7.799719970703125,-0.13641071319580078,-0.3385744094848633,0.2791639566421509
1761370255554332000,7.818331787109375,-0.10243988037109375,-0.2082536220550537,0.3346306085586548
1761370255572942300,7.8369423828125,-0.12465190887451172,0.03586864471435547,0.4252328872680664
1761370255591554300,7.85555419921875,-0.10396099090576172,0.22228193283081055,0.6089076399803162
1761370255610164700,7.874164794921875,-0.07577228546142578,0.3730473518371582,0.8791362047195435
1761370255628776700,7.892776611328125,-0.10008049011230469,0.47380971908569336,1.1174951791763306
1761370255647387100,7.91138720703125,-0.11538028717041016,0.5211100578308105,1.1458133459091187
1761370255665999000,7.9299990234375,-0.054927825927734375,0.49725770950317383,0.9892964363098145
1761370255684609500,7.948609619140625,-0.05058574676513672,0.3809361457824707,0.8169507384300232
1761370255703221500,7.967221435546875,-0.16109848022460938,0.31043004989624023,0.7498615384101868
1761370255721832000,7.98583203125,-0.24353885650634766,0.3893313407897949,0.6816338300704956
1761370255740444000,8.00444384765625,-0.23274517059326172,0.4029531478881836,0.5473801493644714
1761370255759054300,8.023054443359374,-0.13091564178466797,0.40021562576293945,0.3601818084716797
1761370255777666300,8.041666259765625,0.10487651824951172,0.3820195198059082,0.14809012413024902
1761370255796276700,8.06027685546875,0.46727752685546875,0.2915158271789551,0.026465773582458496
1761370255814888700,8.078888671875,0.8666000366210938,0.18537521362304688,-0.02801811695098877
1761370255833499100,8.0974990234375,0.9821176528930664,0.11396455764770508,0.007410883903503418
1761370255852111000,8.116111083984375,0.8999528884887695,0.20815801620483398,-0.33949899673461914
1761370255870721500,8.134721435546876,0.6260471343994141,0.3865017890930176,-0.49080705642700195
1761370255889333500,8.15333349609375,0.2870359420776367,0.6083188056945801,-0.38369882106781006
1761370255907944000,8.17194384765625,0.25964832305908203,0.5660953521728516,0.01665675640106201
1761370255926556000,8.190555908203125,0.6178979873657227,0.2844858169555664,0.3750971555709839
1761370255945166300,8.209166259765626,1.1635160446166992,-0.05897331237792969,0.4262247085571289
1761370255963778300,8.2277783203125,1.3461008071899414,-0.3643341064453125,0.27468645572662354
1761370255982388700,8.246388671875,1.0345458984375,-0.5747261047363281,0.05748283863067627
1761370256001000700,8.265000732421875,0.6300430297851562,-0.8237016201019287,0.012490510940551758
1761370256019611100,8.283611083984376,0.3529691696166992,-1.106832504272461,0.04210638999938965
1761370256038223000,8.30222314453125,0.05029869079589844,-1.293813943862915,0.06261622905731201
1761370256056833500,8.32083349609375,-0.6430130004882812,-1.2843453884124756,-0.03491652011871338
1761370256075445500,8.339445556640625,-1.556218147277832,-0.9801406860351562,-0.33196139335632324
1761370256094056000,8.358055908203125,-2.2217373847961426,-0.49938058853149414,-0.7524590492248535
1761370256112668000,8.37666796875,-2.4067678451538086,-0.07177066802978516,-1.01055908203125
1761370256131278300,8.3952783203125,-2.0023107528686523,0.14725875854492188,-0.7855784893035889
1761370256149890300,8.413890380859375,-1.084010124206543,0.12580251693725586,-0.2838616371154785
1761370256168500700,8.432500732421875,-0.29053783416748047,-0.028399944305419922,0.04262244701385498
1761370256187112700,8.45111279296875,0.23516559600830078,-0.2593822479248047,0.2055913209915161
1761370256205723100,8.46972314453125,0.6396541595458984,-0.43868017196655273,0.14712393283843994
1761370256224335000,8.488335205078124,0.8874912261962891,-0.5201959609985352,0.10073888301849365
1761370256242945500,8.506945556640625,0.6915788650512695,-0.552638053894043,-0.08775413036346436
1761370256261557500,8.5255576171875,0.31481266021728516,-0.5191757678985596,-0.1995375156402588
1761370256280168000,8.54416796875,-0.0632925033569336,-0.2250821590423584,-0.26322877407073975
1761370256298780000,8.56277978515625,-0.38067150115966797,0.004500389099121094,-0.09095954895019531
1761370256317390300,8.581390380859375,-0.44414710998535156,0.21593618392944336,0.08883512020111084
1761370256336002300,8.600002197265624,-0.38643550872802734,0.2981605529785156,0.1683112382888794
1761370256354612700,8.61861279296875,-0.2559823989868164,0.3706037998199463,0.07079458236694336
1761370256373224700,8.637224609375,-0.0945596694946289,0.38704824447631836,-0.0306318998336792
1761370256391835100,8.655835205078125,0.05029773712158203,0.4171876907348633,-0.021631360054016113
1761370256410447000,8.674447021484376,0.14832687377929688,0.47512030601501465,0.21543216705322266
1761370256429057500,8.6930576171875,0.13850975036621094,0.5296943187713623,0.23416531085968018
1761370256447669500,8.71166943359375,0.21414756774902344,0.5695312023162842,0.14492559432983398
1761370256466280000,8.730280029296875,0.3254709243774414,0.47245192527770996,0.17705130577087402
1761370256484892000,8.748891845703126,0.3411703109741211,0.4407320022583008,0.043639540672302246
1761370256503502300,8.76750244140625,0.3619260787963867,0.4144287109375,0.003898024559020996
1761370256522114300,8.7861142578125,0.5222759246826172,0.29593968391418457,0.18626129627227783
1761370256540724700,8.804724853515625,0.7072362899780273,0.06473565101623535,0.45975565910339355
1761370256559336700,8.823336669921876,1.0314741134643555,-0.04271507263183594,1.053570032119751
1761370256577947100,8.841947021484375,1.6020679473876953,-0.009245872497558594,1.8861695528030396
1761370256596559000,8.86055908203125,1.2254457473754883,-0.039877891540527344,1.740777611732483
1761370256615169500,8.87916943359375,0.0066165924072265625,0.05257272720336914,1.0470800399780273
1761370256633781500,8.897781494140625,-1.3103537559509277,0.3158721923828125,0.486553430557251
1761370256652392000,8.916391845703124,-1.331319808959961,0.3451108932495117,0.7605069875717163
1761370256671004000,8.93500390625,0.221282958984375,-0.02620244026184082,1.4705150127410889
1761370256689614300,8.9536142578125,1.9052228927612305,-0.7273123264312744,1.7717887163162231
1761370256708226300,8.972226318359375,2.788998603820801,-1.3847901821136475,1.7264543771743774
1761370256726836700,8.990836669921874,2.3263912200927734,-1.6556072235107422,1.2274833917617798
1761370256745448700,9.00944873046875,0.8022947311401367,-1.2718229293823242,0.4982302188873291
1761370256764059100,9.02805908203125,-0.8817615509033203,-0.7132885456085205,0.17734241485595703
1761370256782671000,9.046671142578125,-2.0546045303344727,-0.10620999336242676,-0.003949880599975586
1761370256801281500,9.065281494140624,-2.2272157669067383,0.26419973373413086,0.09739398956298828
1761370256819893500,9.0838935546875,-1.4806127548217773,0.25859618186950684,0.3795156478881836
1761370256838504000,9.10250390625,-0.5709161758422852,0.21809029579162598,0.6500651836395264
1761370256857116000,9.121115966796875,0.2793102264404297,0.19516253471374512,0.7314884662628174
1761370256875726300,9.139726318359376,0.6061468124389648,0.13924932479858398,0.6182355880737305
1761370256894338300,9.15833837890625,0.3556098937988281,0.12656545639038086,0.16746854782104492
1761370256912948700,9.17694873046875,-0.058722496032714844,0.15786075592041016,-0.39840173721313477
1761370256931560700,9.195560791015625,-0.29689788818359375,0.23172855377197266,-0.7194926738739014
1761370256950171100,9.214171142578126,-0.23936080932617188,0.3666059970855713,-0.6714863777160645
1761370256968783000,9.232783203125,-0.13181304931640625,0.4067809581756592,-0.32959532737731934
1761370256987393500,9.2513935546875,-0.17775726318359375,0.4015014171600342,-0.08978819847106934
1761370257006005500,9.270005615234375,-0.34283447265625,0.3072795867919922,-0.10396790504455566
1761370257024616000,9.288615966796876,-0.5716342926025391,0.24080467224121094,-0.28095006942749023
1761370257043228000,9.307227783203125,-0.8052835464477539,0.22533488273620605,-0.436906099319458
1761370257061838300,9.32583837890625,-0.9344139099121094,0.2450718879699707,-0.467663049697876
1761370257080450300,9.3444501953125,-0.9111566543579102,0.26744556427001953,-0.4299194812774658
1761370257099060700,9.363060791015625,-0.7685756683349609,0.26571035385131836,-0.438962459564209
1761370257117672700,9.381672607421875,-0.5662374496459961,0.2706172466278076,-0.47882652282714844
1761370257136283100,9.400283203125,-0.34896278381347656,0.3619058132171631,-0.6167054176330566
1761370257154895000,9.41889501953125,-0.2908744812011719,0.4477076530456543,-0.800224781036377
1761370257173505500,9.437505615234375,-0.36990928649902344,0.5750088691711426,-0.9624395370483398
1761370257192117500,9.456117431640624,-0.3155059814453125,0.7997324466705322,-1.0152068138122559
1761370257210728000,9.47472802734375,-0.27289867401123047,1.2030131816864014,-1.2971694469451904
1761370257229340000,9.49333984375,-0.029842376708984375,1.2076239585876465,-1.059297800064087
1761370257247950300,9.511950439453125,0.8510255813598633,1.0554800033569336,-0.6645510196685791
1761370257266562300,9.530562255859374,2.1140575408935547,0.6045348644256592,-0.16757655143737793
1761370257285172700,9.5491728515625,3.2826356887817383,-0.02787017822265625,0.1642308235168457
1761370257303784700,9.56778466796875,3.5271387100219727,-0.7129595279693604,-0.07794976234436035
1761370257322395100,9.58639501953125,2.565774917602539,-1.019946575164795,-0.81368088722229
1761370257341007000,9.605007080078124,1.0912790298461914,-1.0035593509674072,-1.2250087261199951
1761370257359617500,9.623617431640625,0.1593618392944336,-0.8242413997650146,-1.195915937423706
1761370257378229500,9.6422294921875,0.1703357696533203,-0.8902854919433594,-0.6314711570739746
1761370257396840000,9.66083984375,0.7664966583251953,-1.1002871990203857,-0.05626869201660156
1761370257415452000,9.679451904296876,1.0139293670654297,-1.2918102741241455,0.24045205116271973
1761370257434062300,9.698062255859375,0.5738086700439453,-1.255239486694336,0.14927220344543457
1761370257452674300,9.71667431640625,-0.18031787872314453,-1.0048859119415283,-0.17361140251159668
1761370257471284700,9.73528466796875,-0.6897869110107422,-0.7680838108062744,-0.31319713592529297
1761370257489896700,9.753896728515626,-0.7841839790344238,-0.7205352783203125,-0.21751832962036133
1761370257508507100,9.772507080078125,-0.6763415336608887,-0.7816300392150879,0.017893314361572266
1761370257527119000,9.791119140625,-0.47445011138916016,-0.9237422943115234,0.28405332565307617
1761370257545729500,9.8097294921875,-0.43172264099121094,-1.0994462966918945,0.3621678352355957
1761370257564341500,9.828341552734376,-0.6243181228637695,-1.274578332901001,0.207780122756958
1761370257582952000,9.846951904296875,-1.2262163162231445,-1.3568642139434814,-0.061994314193725586
1761370257601564000,9.86556396484375,-1.996394157409668,-1.2056715488433838,-0.3297111988067627
1761370257620174300,9.88417431640625,-2.5070180892944336,-1.0180425643920898,-0.5272562503814697
1761370257638786300,9.902786376953125,-2.520233631134033,-0.8083148002624512,-0.7434673309326172
1761370257657396700,9.921396728515624,-2.139742851257324,-0.6354641914367676,-0.5898067951202393
1761370257676008700,9.9400087890625,-1.4506745338439941,-0.3480043411254883,-0.24705147743225098
1761370257694619100,9.958619140625,-0.4440889358520508,-0.14044761657714844,0.0861806869506836
1761370257713231000,9.977231201171875,0.75653076171875,-0.11235904693603516,0.25064539909362793
1761370257731841500,9.995841552734374,1.4689273834228516,-0.22782206535339355,0.2021803855895996
1761370257750453500,10.01445361328125,1.497380256652832,-0.32740354537963867,-0.0012896060943603516
1761370257769064000,10.03306396484375,0.9710845947265625,-0.16664505004882812,-0.09934759140014648
1761370257787676000,10.051676025390625,0.4379863739013672,0.1377549171447754,0.06074237823486328
1761370257806286300,10.070286376953124,0.2310314178466797,0.39875364303588867,0.2870696783065796
1761370257824898300,10.088898193359375,0.3172798156738281,0.49738454818725586,0.46638453006744385
1761370257843508700,10.1075087890625,0.6614170074462891,0.4633464813232422,0.5713781118392944
1761370257862120700,10.12612060546875,0.9875011444091797,0.3807954788208008,0.6134939193725586
1761370257880731100,10.144731201171876,0.9182043075561523,0.2790074348449707,0.6779797077178955
1761370257899343000,10.163343017578125,0.6851062774658203,0.16143035888671875,0.6394476890563965
1761370257917953500,10.18195361328125,0.2877321243286133,0.12718677520751953,0.31058812141418457
1761370257936565500,10.2005654296875,-0.18628597259521484,0.25860118865966797,-0.013326883316040039
1761370257955176200,10.21917626953125,-0.24792098999023438,0.3765125274658203,-0.13273966312408447
1761370257973788000,10.237787841796875,0.1314983367919922,0.38393139839172363,-0.11548209190368652
1761370257992398600,10.256398681640626,0.6758155822753906,0.19913220405578613,0.025872468948364258
1761370258011010600,10.275010498046875,1.2723140716552734,-0.11989283561706543,0.1361926794052124
1761370258029621000,10.29362109375,1.8335351943969727,-0.610619306564331,0.23168551921844482
1761370258048233000,10.31223291015625,1.8673324584960938,-0.9184720516204834,0.2177342176437378
1761370258066843400,10.330843505859375,1.4239206314086914,-1.0519611835479736,0.15041077136993408
1761370258085455400,10.349455322265625,0.6398439407348633,-0.7953362464904785,0.260050892829895
1761370258104065800,10.368065673828125,-0.17948436737060547,-0.3082706928253174,0.2935298681259155
1761370258122677800,10.386677734375,-0.6143436431884766,0.10540533065795898,0.18226587772369385
1761370258141288200,10.4052880859375,-0.5060911178588867,0.28687381744384766,0.3989161252975464
1761370258159900200,10.423900146484375,0.0375213623046875,0.2136092185974121,0.8952335715293884
1761370258178510600,10.442510498046875,0.8319129943847656,-0.0979771614074707,1.109967827796936
1761370258197122600,10.46112255859375,1.0656681060791016,-0.38179445266723633,1.1973798274993896
1761370258215733000,10.47973291015625,0.611933708190918,-0.5832476615905762,1.2326102256774902
1761370258234345000,10.498344970703124,-0.23677635192871094,-0.5878691673278809,0.941308856010437
1761370258252955400,10.516955322265625,-1.054248332977295,-0.40956544876098633,0.5933041572570801
1761370258271567400,10.5355673828125,-1.409907341003418,-0.2126913070678711,0.403816282749176
1761370258290177800,10.554177734375,-1.1986360549926758,-0.0050811767578125,0.28430378437042236
1761370258308789800,10.572789794921874,-0.7342081069946289,0.016988754272460938,0.2401747703552246
1761370258327400200,10.591400146484375,-0.5265283584594727,0.07455921173095703,0.3002067804336548
1761370258346012200,10.61001220703125,-0.6761665344238281,0.2008523941040039,0.45005905628204346
1761370258364622600,10.62862255859375,-0.8297042846679688,0.3683032989501953,0.6118555665016174
1761370258383234600,10.647234619140624,-0.7819194793701172,0.4618096351623535,0.6759898066520691
1761370258401845000,10.665844970703125,-0.5803279876708984,0.46611881256103516,0.6388230919837952
1761370258420457000,10.68445703125,-0.38147544860839844,0.40435075759887695,0.6846402287483215
1761370258439067400,10.7030673828125,-0.24159717559814453,0.2826085090637207,0.6251329779624939
1761370258457679400,10.721679443359376,-0.26985931396484375,0.2064342498779297,0.3873300552368164
1761370258476289800,10.740289794921875,-0.37171173095703125,0.2470555305480957,0.1729801893234253
1761370258494901800,10.75890185546875,-0.5030584335327148,0.42506837844848633,0.04723405838012695
1761370258513512200,10.77751220703125,-0.5050840377807617,0.5422029495239258,-0.07842636108398438
1761370258532124200,10.796124267578126,-0.3541402816772461,0.6800675392150879,-0.35129833221435547
1761370258550734800,10.81473486328125,-0.07316017150878906,0.698462963104248,-0.3578219413757324
1761370258569346600,10.8333466796875,0.016477584838867188,0.7899537086486816,-0.6206737756729126
1761370258587957200,10.851957275390625,-0.01765155792236328,0.7677931785583496,-0.7684383392333984
1761370258606569200,10.8705693359375,0.2899026870727539,0.9883975982666016,-0.7940239906311035
1761370258625179600,10.8891796875,0.48239898681640625,1.0126538276672363,-0.5053341388702393
1761370258643791600,10.90779150390625,1.1424741744995117,0.617835521697998,-0.1674591302871704
1761370258662402000,10.926402099609374,1.895066261291504,0.0400538444519043,0.07185912132263184
1761370258681014000,10.945013916015625,2.0944766998291016,-0.797971248626709,0.19643032550811768
