time,seconds_elapsed,z,y,x
1761370247923738000,0.187738037109375,-0.21623992919921875,-0.015194825828075409,-0.1907370537519455
1761370247942348300,0.206348388671875,-0.25533416867256165,0.00862821750342846,-0.22738789021968842
1761370247960960300,0.224960205078125,-0.2877090573310852,0.10453123599290848,-0.27747735381126404
1761370247979570700,0.24357080078125,-0.29503923654556274,0.1784437596797943,-0.3232909142971039
1761370247998182700,0.2621826171875,-0.32130566239356995,0.20837527513504028,-0.3483356535434723
1761370248016793000,0.28079296875,-0.3426853120326996,0.3372640311717987,-0.38193225860595703
1761370248035405000,0.299405029296875,-0.28221142292022705,0.4020138382911682,-0.4149180054664612
1761370248054015500,0.318015380859375,-0.1716480851173401,0.5944307446479797,-0.5260922312736511
1761370248072627200,0.336627197265625,-0.06780404597520828,0.7282062768936157,-0.7386670708656311
1761370248091237600,0.355237548828125,-0.009773556143045425,0.9248991012573242,-1.057529330253601
1761370248109849600,0.373849609375,-0.018936265259981155,0.9175689220428467,-1.2927055358886719
1761370248128460000,0.3924599609375,0.012827792204916477,0.6396334171295166,-1.2285665273666382
1761370248147072000,0.411072021484375,0.03542914241552353,0.7019398808479309,-1.0001096725463867
1761370248165682400,0.429682373046875,0.0024433890357613564,0.8577058911323547,-0.779593825340271
1761370248184294400,0.44829443359375,-0.015271181240677834,0.7337039113044739,-0.6036698222160339
1761370248202904800,0.46690478515625,0.026877280324697495,0.5962632894515991,-0.41858309507369995
1761370248221516800,0.485516845703125,0.07085828483104706,0.3616979420185089,-0.21272756159305573
1761370248240127200,0.504127197265625,0.08918370306491852,-0.02680092304944992,0.02680092304944992
1761370248258739200,0.5227392578125,0.04703523963689804,-0.1483595222234726,0.24792763590812683
1761370248277349400,0.541349365234375,-0.08124268800020218,0.07093463838100433,0.5215871930122375
1761370248295961300,0.55996142578125,-0.3573456406593323,0.16317257285118103,0.6480326056480408
1761370248314571800,0.57857177734375,-0.5967977643013,0.1662268042564392,0.6914027333259583
1761370248333183700,0.597183837890625,-0.7684458494186401,0.29450473189353943,0.6089383363723755
1761370248351794200,0.615794189453125,-0.8289197087287903,0.21326205134391785,0.44095537066459656
1761370248370406100,0.63440625,-0.7189671993255615,-0.06528430432081223,0.29740625619888306
1761370248389016600,0.6530166015625,-0.7061394453048706,-0.07872293889522552,0.22043950855731964
1761370248407628500,0.671628662109375,-0.7434011101722717,0.16011834144592285,0.17035003006458282
1761370248426239000,0.690239013671875,-0.8032641410827637,0.16500511765480042,0.05978667363524437
1761370248444851000,0.708850830078125,-0.8350282311439514,-0.3450523316860199,0.09032903611660004
1761370248463461400,0.72746142578125,-0.888171911239624,-0.5777851343154907,0.255257785320282
1761370248482073000,0.746072998046875,-1.0506572723388672,-0.6260420680046082,0.3725404739379883
1761370248500683500,0.76468359375,-1.1795459985733032,-0.6779640913009644,0.5368583798408508
1761370248519295500,0.78329541015625,-1.30476975440979,-0.7140040993690491,0.6535302400588989
1761370248537906000,0.801906005859375,-1.3053805828094482,-0.6852942705154419,0.5539621114730835
1761370248556518000,0.820517822265625,-1.1826002597808838,-0.6235986948013306,0.36215606331825256
1761370248575128300,0.83912841796875,-0.92054682970047,-0.40369367599487305,0.15752223134040833
1761370248593740300,0.857740234375,-0.6603258848190308,-0.2644205093383789,0.00786465872079134
1761370248612350700,0.876350830078125,-0.5986303091049194,-0.3554367423057556,0.0164165198802948
1761370248630962700,0.894962646484375,-0.6316160559654236,-0.40430453419685364,0.11109784245491028
1761370248649573000,0.913572998046875,-0.7000309824943542,-0.4995967149734497,0.20577916502952576
1761370248668185000,0.93218505859375,-0.7598940134048462,-0.6376481652259827,0.280913382768631
1761370248686795500,0.95079541015625,-0.7989882230758667,-0.8031877875328064,0.2900761067867279
1761370248705407500,0.969407470703125,-0.7824953198432922,-0.8911498188972473,0.19600561261177063
1761370248724018000,0.988017822265625,-0.6810947060585022,-0.7805864214897156,0.005421269219368696
1761370248742630000,1.0066298828125,-0.6310052275657654,-0.7060630917549133,-0.08322793990373611
1761370248761240300,1.025240234375,-0.6468872427940369,-0.6724664568901062,-0.07895200699567795
1761370248779852300,1.043852294921875,-0.6835380792617798,-0.597943127155304,-0.06734590977430344
1761370248798462500,1.06246240234375,-0.7006418108940125,-0.5307499170303345,-0.07895200699567795
1761370248817074400,1.081074462890625,-0.6780404448509216,-0.5393017530441284,-0.024586603045463562
1761370248835684900,1.099684814453125,-0.675597071647644,-0.509981095790863,0.09827005118131638
1761370248854296800,1.118296875,-0.5906893014907837,-0.32306185364723206,0.17890189588069916
1761370248872907300,1.1369072265625,-0.4727957844734192,-0.1727934181690216,0.17829103767871857
1761370248891519200,1.155519287109375,-0.3781144618988037,-0.05734328553080559,0.18134528398513794
1761370248910129700,1.174129638671875,-0.32313820719718933,0.1393495351076126,0.20394663512706757
1761370248928741600,1.19274169921875,-0.31886225938796997,0.4832565486431122,0.2625879645347595
1761370248947352000,1.21135205078125,-0.3970507085323334,0.7569161057472229,0.3022930324077606
1761370248965964000,1.229964111328125,-0.4966188073158264,0.715989351272583,0.2894652485847473
1761370248984574500,1.248574462890625,-0.5644228458404541,0.6286382079124451,0.1880646049976349
1761370249003186400,1.2671865234375,-0.5558710098266602,0.5761052966117859,0.0561215914785862
1761370249021796900,1.285796875,-0.5283828973770142,0.5596124529838562,-0.012980503961443901
1761370249040408800,1.304408935546875,-0.5192201733589172,0.5773270130157471,0.029855160042643547
1761370249059019300,1.323019287109375,-0.53143709897995,0.47775891423225403,0.10682191699743271
1761370249077631200,1.34163134765625,-0.5369347333908081,0.35497862100601196,0.18073442578315735
1761370249096241700,1.36024169921875,-0.497229665517807,0.17538951337337494,0.22410458326339722
1761370249114853600,1.378853515625,-0.4428642690181732,-0.023746687918901443,0.2540360987186432
1761370249133464000,1.397464111328125,-0.4031592011451721,-0.04756972938776016,0.3279486298561096
1761370249152076000,1.416075927734375,-0.3811686933040619,0.03306210786104202,0.40491536259651184
1761370249170686500,1.4346865234375,-0.40071579813957214,0.000687203137204051,0.41041299700737
1761370249189298400,1.45329833984375,-0.446529358625412,-0.1996707022190094,0.3578801453113556
1761370249207908600,1.47190869140625,-0.5332696437835693,-0.4721085727214813,0.29679539799690247
1761370249226520600,1.4905205078125,-0.629172682762146,-0.6834617257118225,0.29618456959724426
1761370249245131000,1.509131103515625,-0.660936713218689,-0.676131546497345,0.3988068997859955
1761370249263743000,1.527742919921875,-0.6053496599197388,-0.48493635654449463,0.5417451858520508
1761370249282353400,1.546353515625,-0.49295374751091003,-0.18195612728595734,0.6584169864654541
1761370249300965400,1.56496533203125,-0.41293275356292725,0.07887565344572067,0.6712448000907898
1761370249319575800,1.583575927734375,-0.3903313875198364,0.08437328040599823,0.5747309327125549
1761370249338187800,1.602187744140625,-0.42698222398757935,-0.12453648447990417,0.4470638334751129
1761370249356798200,1.620798095703125,-0.5198310017585754,-0.32611608505249023,0.3951418101787567
1761370249375410200,1.63941015625,-0.6047387719154358,-0.4348468780517578,0.41285640001296997
1761370249394020600,1.6580205078125,-0.6664343476295471,-0.4470638334751129,0.4879906177520752
1761370249412632600,1.676632568359375,-0.70797199010849,-0.4110238552093506,0.5796176791191101
1761370249431243000,1.695242919921875,-0.7024743556976318,-0.41652145981788635,0.6150468587875366
1761370249449855000,1.71385498046875,-0.6572716236114502,-0.5863370299339294,0.5900021195411682
1761370249468465400,1.73246533203125,-0.5992411375045776,-0.8587749004364014,0.5661790370941162
1761370249487077400,1.751077392578125,-0.5332696437835693,-1.1464838981628418,0.5594597458839417
1761370249505687800,1.769687744140625,-0.49173203110694885,-1.3963204622268677,0.5661790370941162
1761370249524299800,1.7882998046875,-0.5173876285552979,-1.5332266092300415,0.5771743059158325
1761370249542910200,1.80691015625,-0.5894675850868225,-1.6163018941879272,0.546631932258606
1761370249561522200,1.825522216796875,-0.6786513328552246,-1.715259075164795,0.46905434131622314
1761370249580132600,1.844132568359375,-0.7678350210189819,-1.7494665384292603,0.4207974076271057
1761370249598744600,1.86274462890625,-0.8570187091827393,-1.5191770792007446,0.4250733256340027
1761370249617355000,1.88135498046875,-0.9181034564971924,-1.001102328300476,0.37559470534324646
1761370249635967000,1.899967041015625,-0.8942803740501404,-0.31389912962913513,0.20700086653232574
1761370249654577400,1.918577392578125,-0.8545753359794617,0.3873535096645355,-0.0325276181101799
1761370249673189400,1.937189453125,-0.8209787011146545,0.8577058911323547,-0.25976279377937317
1761370249691799800,1.9557998046875,-0.8222004175186157,0.9420028328895569,-0.39414918422698975
1761370249710411800,1.974411865234375,-0.8319739699363708,0.8858048915863037,-0.3581092059612274
1761370249729022200,1.993022216796875,-0.8472451567649841,0.7611920237541199,-0.21944688260555267
1761370249747634200,2.01163427734375,-0.8674030900001526,0.5327351689338684,-0.05207473039627075
1761370249766244600,2.03024462890625,-0.9132166504859924,0.3360423445701599,0.13858596980571747
1761370249784856600,2.048856689453125,-0.9639169573783875,0.22547899186611176,0.3169533610343933
1761370249803467000,2.067467041015625,-0.9840749502182007,0.10941801220178604,0.41652145981788635
1761370249822079000,2.086078857421875,-0.9883508682250977,0.025121092796325684,0.4079696238040924
1761370249840689400,2.104689453125,-0.9834640622138977,-0.006032116711139679,0.3181750774383545
1761370249859301400,2.12330126953125,-0.9260444641113281,-0.005421269219368696,0.2247154414653778
1761370249877911800,2.141911865234375,-0.7953231334686279,0.02023431472480297,0.17890189588069916
1761370249896523800,2.160523681640625,-0.5949652194976807,-0.006032116711139679,0.18256697058677673
1761370249915134200,2.17913427734375,-0.3512371778488159,-0.021303297951817513,0.23632153868675232
1761370249933746200,2.19774609375,-0.12827792763710022,-0.02435753494501114,0.2888543903827667
1761370249952356600,2.216356689453125,0.01832541823387146,-0.21005509793758392,0.2796916961669922
1761370249970968300,2.23496826171875,0.08002099394798279,-0.5790068507194519,0.24914932250976562
1761370249989578800,2.253578857421875,0.018936265259981155,-0.7885274291038513,0.2815242409706116
1761370250008190700,2.272190673828125,-0.13682979345321655,-0.8697701692581177,0.33650049567222595
1761370250026801200,2.29080126953125,-0.2883199155330658,-0.875267744064331,0.41468894481658936
1761370250045413000,2.3094130859375,-0.3781144618988037,-0.7854732275009155,0.5124244689941406
1761370250064023600,2.3280234375,-0.39643988013267517,-0.6034407615661621,0.6309288740158081
1761370250082635500,2.346635498046875,-0.3536805510520935,-0.40552622079849243,0.7219451069831848
1761370250101246000,2.365245849609375,-0.29381752014160156,-0.17035003006458282,0.7445464730262756
1761370250119858000,2.38385791015625,-0.25777754187583923,0.07032378762960434,0.6681905388832092
1761370250138468400,2.40246826171875,-0.24311721324920654,0.17783290147781372,0.48249298334121704
1761370250157080300,2.421080322265625,-0.2516690790653229,0.13140851259231567,0.2522035539150238
1761370250175690800,2.439690673828125,-0.3243598937988281,-0.0017561858985573053,0.0561215914785862
1761370250194302700,2.458302734375,-0.46302223205566406,-0.21555273234844208,-0.10216420143842697
1761370250212913200,2.4769130859375,-0.5949652194976807,-0.3945309817790985,-0.20234315097332
1761370250231525000,2.495525146484375,-0.656660795211792,-0.42690587043762207,-0.23166382312774658
1761370250250135600,2.514135498046875,-0.6450546979904175,-0.3193967640399933,-0.18585027754306793
1761370250268747500,2.53274755859375,-0.5412106513977051,-0.09827005118131638,-0.08689302206039429
1761370250287358000,2.55135791015625,-0.37444937229156494,0.13873867690563202,-0.02092151902616024
1761370250305970000,2.569969970703125,-0.20096874237060547,0.3103867769241333,-0.06612421572208405
1761370250324580400,2.588580322265625,-0.0781884491443634,0.2816769480705261,-0.21333840489387512
1761370250343192300,2.6071923828125,-0.02504473738372326,0.1020878478884697,-0.33001023530960083
1761370250361802800,2.625802734375,-0.03298575058579445,-0.03962871432304382,-0.3171824514865875
1761370250380414700,2.644414794921875,-0.0781884491443634,-0.12331479042768478,-0.2145601063966751
1761370250399025200,2.663025146484375,-0.12766708433628082,-0.17157171666622162,-0.09972081333398819
1761370250417637000,2.68163720703125,-0.13438639044761658,-0.20761170983314514,-0.04169032722711563
1761370250436247800,2.700247802734375,-0.0922379344701767,-0.24243000149726868,-0.06978929787874222
1761370250454859500,2.718859619140625,-0.045202698558568954,-0.2900761067867279,-0.14064757525920868
1761370250473470000,2.737469970703125,-0.02626643143594265,-0.36093437671661377,-0.21211670339107513
1761370250492082200,2.756082275390625,-0.051922015845775604,-0.4513397812843323,-0.26037365198135376
1761370250510692400,2.7746923828125,-0.11422843486070633,-0.49593162536621094,-0.22189027070999146
1761370250529304600,2.7933046875,-0.1716480851173401,-0.3334462344646454,-0.1119377613067627
1761370250547914800,2.811914794921875,-0.1704263836145401,0.011071606539189816,-0.01847812905907631
1761370250566527000,2.83052685546875,-0.11056335270404816,0.18760646879673004,-0.016645587980747223
1761370250585137400,2.849137451171875,-0.046424392610788345,0.1008661538362503,-0.15958385169506073
1761370250603749000,2.8677490234375,-0.0781884491443634,-0.24120831489562988,-0.47539186477661133
1761370250622359800,2.88635986328125,-0.284654825925827,-0.6132143139839172,-0.7802046537399292
1761370250640971800,2.9049716796875,-0.554649293422699,-0.7482115626335144,-0.8376243114471436
1761370250659582200,2.923582275390625,-0.7299624681472778,-0.6883485317230225,-0.6659762263298035
1761370250678194200,2.942194091796875,-0.8307522535324097,-0.6407024264335632,-0.4362976551055908
1761370250696804600,2.9608046875,-0.8246437907218933,-0.6272637844085693,-0.23471805453300476
1761370250715416600,2.97941650390625,-0.7476770281791687,-0.48249298334121704,-0.10277505218982697
1761370250734027000,2.998027099609375,-0.6603258848190308,-0.23509983718395233,-0.06490252166986465
1761370250752639000,3.016638916015625,-0.6181774139404297,0.022066857665777206,-0.07406523078680038
1761370250771249400,3.03524951171875,-0.6090146899223328,0.22242476046085358,-0.055739812552928925
1761370250789861400,3.053861328125,-0.6022953987121582,0.30672168731689453,0.05734328553080559
1761370250808471800,3.072471923828125,-0.5906893014907837,0.2199813723564148,0.24853847920894623
1761370250827083800,3.091083740234375,-0.5992411375045776,-0.05428905040025711,0.3975852131843567
1761370250845694200,3.109694091796875,-0.6346703171730042,-0.3450523316860199,0.45256146788597107
1761370250864306200,3.12830615234375,-0.652384877204895,-0.49593162536621094,0.4495072364807129
1761370250882916600,3.14691650390625,-0.6499415040016174,-0.542356014251709,0.4379011392593384
1761370250901528600,3.165528564453125,-0.6572716236114502,-0.45439401268959045,0.4605024755001068
1761370250920139000,3.184138916015625,-0.6792621612548828,-0.27236151695251465,0.46722179651260376
1761370250938751000,3.2027509765625,-0.679872989654541,-0.0952158197760582,0.40186113119125366
1761370250957361400,3.221361328125,-0.6456655263900757,0.000687203137204051,0.280913382768631
1761370250975973400,3.239973388671875,-0.5864133834838867,0.009849912486970425,0.19111883640289307
1761370250994583800,3.258583740234375,-0.5277720093727112,0.004352286923676729,0.1880646049976349
1761370251013195800,3.27719580078125,-0.4831801950931549,-0.04879142343997955,0.22166119515895844
1761370251031806200,3.29580615234375,-0.4575245976448059,-0.1624090075492859,0.24731677770614624
1761370251050418200,3.314418212890625,-0.43858832120895386,-0.2546469569206238,0.27419406175613403
1761370251069028600,3.333028564453125,-0.4312581717967987,-0.2900761067867279,0.28457847237586975
1761370251087640600,3.351640625,-0.3958290219306946,-0.3206184506416321,0.27052897214889526
1761370251106251300,3.370251220703125,-0.34635040163993835,-0.334057092666626,0.253425270318985
1761370251124863200,3.38886328125,-0.2895416021347046,-0.2912977933883667,0.21860696375370026
1761370251143473700,3.4074736328125,-0.2339545041322708,-0.20639002323150635,0.19661645591259003
1761370251162085600,3.426085693359375,-0.20219044387340546,-0.13736428320407867,0.19111883640289307
1761370251180696000,3.444696044921875,-0.18814095854759216,-0.044515494257211685,0.2112767994403839
1761370251199308000,3.46330810546875,-0.17286977171897888,0.11980241537094116,0.23204560577869415
1761370251217918500,3.48191845703125,-0.13866232335567474,0.22303560376167297,0.2143310308456421
1761370251236530400,3.500530517578125,-0.12033691257238388,0.3140518367290497,0.18317782878875732
1761370251255140900,3.519140869140625,-0.10140064358711243,0.3745257258415222,0.16424155235290527
1761370251273752800,3.5377529296875,-0.07085828483104706,0.3794125020503998,0.16851748526096344
1761370251292363300,3.55636328125,-0.042759306728839874,0.3739148676395416,0.20822255313396454
1761370251310975200,3.574975341796875,-0.028098974376916885,0.3244362473487854,0.27297237515449524
1761370251329585700,3.593585693359375,-0.023212196305394173,0.2877854108810425,0.32306185364723206
1761370251348197600,3.61219775390625,-0.0018325417768210173,0.2981698215007782,0.34016555547714233
1761370251366808000,3.63080810546875,0.05864133685827255,0.32871219515800476,0.334057092666626
1761370251385420000,3.649419921875,0.11300674080848694,0.2627406716346741,0.29557371139526367
1761370251404030700,3.66803076171875,0.13682979345321655,0.15217731893062592,0.21005509793758392
1761370251422642700,3.686642578125,0.0794101431965828,-0.11354123055934906,0.05673243850469589
1761370251441253000,3.705253173828125,-0.0525328628718853,-0.3334462344646454,-0.030695075169205666
1761370251459865000,3.723864990234375,-0.17286977171897888,-0.4220190942287445,0.023746687918901443
1761370251478475500,3.7424755859375,-0.237008735537529,-0.3835357129573822,0.1330883502960205
1761370251497087500,3.76108740234375,-0.24556060135364532,-0.23448899388313293,0.22960221767425537
1761370251515698000,3.779697998046875,-0.21379654109477997,-0.10437852889299393,0.24365170300006866
1761370251534310000,3.798309814453125,-0.13988402485847473,0.020845163613557816,0.21860696375370026
1761370251552920300,3.81692041015625,-0.018936265259981155,0.12224581092596054,0.22288289666175842
1761370251571532300,3.8355322265625,0.08918370306491852,0.1552315652370453,0.25892287492752075
1761370251590142700,3.854142822265625,0.13377554714679718,0.13873867690563202,0.3175642192363739
1761370251608754700,3.872754638671875,0.13744063675403595,0.0067956759594380856,0.3474957346916199
1761370251627365000,3.891365234375,0.13805148005485535,-0.17584764957427979,0.3193967640399933
1761370251645977000,3.90997705078125,0.11239589750766754,-0.3853682577610016,0.2149418741464615
1761370251664587500,3.92858740234375,0.01710372418165207,-0.5600705742835999,0.07505785673856735
1761370251683199500,3.947199462890625,-0.11545012891292572,-0.574120044708252,0.0035887276753783226
1761370251701810000,3.965809814453125,-0.23273280262947083,-0.45500484108924866,0.03718532621860504
1761370251720422000,3.984421875,-0.3133646547794342,-0.25647950172424316,0.10682191699743271
1761370251739032600,4.003032470703125,-0.363454133272171,-0.1343100368976593,0.09704835712909698
1761370251757644500,4.02164453125,-0.41476529836654663,-0.12453648447990417,-0.02641914412379265
1761370251776255000,4.0402548828125,-0.4709632396697998,-0.07261446863412857,-0.16874656081199646
1761370251794867000,4.058866943359375,-0.5198310017585754,0.03855973482131958,-0.24449162185192108
1761370251813477400,4.077477294921875,-0.5638120174407959,0.10880716890096664,-0.2725905776023865
1761370251832089300,4.09608935546875,-0.5851916670799255,0.0892600566148758,-0.29885703325271606
1761370251850699800,4.11469970703125,-0.5845808386802673,-0.006032116711139679,-0.35383328795433044
1761370251869311700,4.133311767578125,-0.5717530250549316,-0.13186664879322052,-0.4424061179161072
1761370251887922200,4.151922119140625,-0.5473191738128662,-0.18989713490009308,-0.5486935377120972
1761370251906534100,4.1705341796875,-0.5320479869842529,-0.12697987258434296,-0.6513158679008484
1761370251925144600,4.18914453125,-0.5558710098266602,0.011071606539189816,-0.7154548764228821
1761370251943756500,4.207756591796875,-0.6029062271118164,0.19004985690116882,-0.7001836895942688
1761370251962367000,4.226366943359375,-0.6157340407371521,0.3201603293418884,-0.6287145614624023
1761370251980979000,4.24497900390625,-0.5748072862625122,0.3378748893737793,-0.5309789776802063
1761370251999589400,4.26358935546875,-0.5118899941444397,0.19921256601810455,-0.43202173709869385
1761370252018201600,4.28220166015625,-0.46851983666419983,-0.011529741808772087,-0.30435463786125183
1761370252036812000,4.30081201171875,-0.4734066128730774,-0.20639002323150635,-0.11377029865980148
1761370252055424000,4.319424072265625,-0.4709632396697998,-0.31023404002189636,0.08788564801216125
1761370252074034400,4.338034423828125,-0.4367557764053345,-0.30656898021698,0.21555273234844208
1761370252092646400,4.356646484375,-0.39888325333595276,-0.25892287492752075,0.24120831489562988
1761370252111256800,4.3752568359375,-0.395218163728714,-0.3047364354133606,0.16424155235290527
1761370252129868800,4.393868896484375,-0.43919917941093445,-0.4641675651073456,0.019470756873488426
1761370252148479200,4.412479248046875,-0.5149442553520203,-0.648643434047699,-0.12110047042369843
1761370252167091200,4.43109130859375,-0.6139014959335327,-0.7445464730262756,-0.19684553146362305
1761370252185701600,4.44970166015625,-0.7085828185081482,-0.7292752861976624,-0.18707197904586792
1761370252204313600,4.468313720703125,-0.7690566778182983,-0.6602495312690735,-0.11499200016260147
1761370252222924000,4.486924072265625,-0.7965448498725891,-0.561292290687561,-0.017867282032966614
1761370252241536000,4.505535888671875,-0.7953231334686279,-0.4110238552093506,0.11903885751962662
1761370252260146400,4.524146484375,-0.7745543122291565,-0.23021306097507477,0.2882435619831085
1761370252278758400,4.54275830078125,-0.7385143637657166,-0.09216158092021942,0.4458421468734741
1761370252297368800,4.561368896484375,-0.7098045349121094,-0.017027366906404495,0.5521295666694641
1761370252315980800,4.579980712890625,-0.7067502737045288,-0.03352024406194687,0.593667209148407
1761370252334591500,4.598591552734375,-0.7165238261222839,-0.12575818598270416,0.5692332983016968
1761370252353203500,4.617203369140625,-0.7653915882110596,-0.27419406175613403,0.4782170355319977
1761370252371814000,4.63581396484375,-0.8741224408149719,-0.43179264664649963,0.3206184506416321
1761370252390425900,4.65442578125,-1.0292776823043823,-0.5539621114730835,0.11231953650712967
1761370252409036300,4.673036376953125,-1.184432864189148,-0.639480710029602,-0.09177979826927185
1761370252427648300,4.691648193359375,-1.2974395751953125,-0.6694122552871704,-0.2683146595954895
1761370252446258700,4.7102587890625,-1.3518049716949463,-0.5863370299339294,-0.4020902216434479
1761370252464870700,4.72887060546875,-1.3469182252883911,-0.3700970709323883,-0.4815003573894501
1761370252483481000,4.747481201171875,-1.2400199174880981,-0.1336991935968399,-0.47111594676971436
1761370252502093000,4.766093017578125,-1.0304993391036987,0.007406522985547781,-0.37887802720069885
1761370252520703500,4.784703369140625,-0.8154810667037964,-0.03779617324471474,-0.252432644367218
1761370252539315500,4.8033154296875,-0.675597071647644,-0.15630054473876953,-0.09116895496845245
1761370252557926000,4.82192578125,-0.6151232123374939,-0.32550522685050964,0.09216158092021942
1761370252576537900,4.840537841796875,-0.6310052275657654,-0.47088688611984253,0.27052897214889526
1761370252595148300,4.859148193359375,-0.684148907661438,-0.5594597458839417,0.40063944458961487
1761370252613760500,4.877760498046875,-0.7421793937683105,-0.5674007534980774,0.4501180648803711
1761370252632371000,4.896370849609375,-0.7886037826538086,-0.4745519757270813,0.43179264664649963
1761370252650983000,4.91498291015625,-0.8289197087287903,-0.36398860812187195,0.36398860812187195
1761370252669593300,4.93359326171875,-0.8741224408149719,-0.255257785320282,0.30962321162223816
1761370252688205300,4.952205322265625,-0.9034430980682373,-0.18134528398513794,0.29496288299560547
1761370252706815700,4.970815673828125,-0.8955020904541016,-0.16301986575126648,0.3310028612613678
1761370252725427700,4.989427734375,-0.8319739699363708,-0.1471378356218338,0.42690587043762207
1761370252744038100,5.0080380859375,-0.7110261917114258,-0.0946049690246582,0.5661790370941162
1761370252762650000,5.026650146484375,-0.6022953987121582,-0.0420721061527729,0.6620820760726929
1761370252781260500,5.045260498046875,-0.5027272701263428,-0.012140588834881783,0.6816291809082031
1761370252799872500,5.06387255859375,-0.4367557764053345,-0.11537377536296844,0.6248204112052917
1761370252818483000,5.08248291015625,-0.474017471075058,-0.36215606331825256,0.5319716334342957
1761370252837095000,5.101094970703125,-0.5723638534545898,-0.5221980214118958,0.47088688611984253
1761370252855705300,5.119705322265625,-0.7128587365150452,-0.5313607454299927,0.46783265471458435
1761370252874317300,5.1383173828125,-0.8118160367012024,-0.4207974076271057,0.4769953489303589
1761370252892927700,5.156927734375,-0.8478559851646423,-0.30901235342025757,0.46661093831062317
1761370252911539700,5.175539794921875,-0.8674030900001526,-0.23387815058231354,0.47882789373397827
1761370252930150400,5.194150390625,-0.8527427911758423,-0.17890189588069916,0.5301390886306763
1761370252948762400,5.212762451171875,-0.8173136115074158,-0.12820157408714294,0.616268515586853
1761370252967372800,5.231372802734375,-0.786771297454834,-0.11598462611436844,0.6944569945335388
1761370252985984800,5.24998486328125,-0.7348492741584778,-0.1330883502960205,0.7451573014259338
1761370253004595200,5.26859521484375,-0.6670452356338501,-0.21005509793758392,0.7555416822433472
1761370253023207200,5.287207275390625,-0.6120689511299133,-0.39208757877349854,0.6975111961364746
1761370253041817600,5.305817626953125,-0.5705313682556152,-0.6345939636230469,0.5576272010803223
1761370253060429600,5.3244296875,-0.5601469278335571,-0.8599965572357178,0.3413872718811035
1761370253079040000,5.3430400390625,-0.5913001298904419,-1.0408073663711548,0.09399411827325821
1761370253097652000,5.36165185546875,-0.6554391384124756,-1.0707389116287231,-0.08811471611261368
1761370253116262400,5.380262451171875,-0.7324058413505554,-0.967505693435669,-0.17302247881889343
1761370253134874400,5.398874267578125,-0.8215895891189575,-0.7133932709693909,-0.17363333702087402
1761370253153484800,5.41748486328125,-0.869235634803772,-0.43179264664649963,-0.13148486614227295
1761370253172096800,5.4360966796875,-0.8741224408149719,-0.23143476247787476,-0.07895200699567795
1761370253190707200,5.454707275390625,-0.8686248064041138,-0.18134528398513794,-0.04291202127933502
1761370253209319200,5.473319091796875,-0.8686248064041138,-0.22043950855731964,0.0029778804164379835
1761370253227929600,5.4919296875,-0.8851176500320435,-0.2650313675403595,0.09216158092021942
1761370253246541600,5.51054150390625,-0.9260444641113281,-0.21738526225090027,0.2137201875448227
1761370253265152300,5.52915234375,-0.9938485026359558,-0.15446799993515015,0.26991814374923706
1761370253283764200,5.54776416015625,-1.1288456916809082,-0.22105035185813904,0.17768019437789917
1761370253302374700,5.566374755859375,-1.294385313987732,-0.32367268204689026,-0.030695075169205666
1761370253320986600,5.584986572265625,-1.4788612127304077,-0.3939201235771179,-0.18585027754306793
1761370253339597000,5.60359716796875,-1.7500773668289185,-0.852055549621582,-0.3184041380882263
1761370253358209000,5.622208984375,-2.0524468421936035,-1.3389008045196533,-0.46989426016807556
1761370253376819500,5.6408193359375,-2.260822057723999,-1.5582714080810547,-0.5120427012443542
1761370253395431400,5.659431396484375,-2.356114149093628,-1.4335821866989136,-0.3324536085128784
1761370253414041900,5.678041748046875,-2.3597793579101562,-1.1984059810638428,0.03229855000972748
1761370253432653800,5.69665380859375,-2.2822017669677734,-0.9858311414718628,0.40552622079849243
1761370253451264300,5.71526416015625,-2.215008497238159,-0.9051992893218994,0.6089383363723755
1761370253469876200,5.733876220703125,-2.177135944366455,-0.9534562230110168,0.6388698816299438
1761370253488486700,5.752486572265625,-2.1490371227264404,-1.0475267171859741,0.5637356638908386
1761370253507098600,5.7710986328125,-2.1691949367523193,-1.0279796123504639,0.4220190942287445
1761370253525709000,5.789708984375,-2.291975259780884,-1.1721395254135132,0.1752368062734604
1761370253544321000,5.808321044921875,-2.5723540782928467,-1.5057384967803955,-0.0587940476834774
1761370253562931700,5.826931640625,-2.920536994934082,-1.7879499197006226,-0.14248012006282806
1761370253581543400,5.84554345703125,-3.194807529449463,-1.72991943359375,-0.04840964451432228
1761370253600153900,5.86415380859375,-3.3267505168914795,-1.4225869178771973,0.16301986575126648
1761370253618766000,5.88276611328125,-3.2772719860076904,-1.0957835912704468,0.29984965920448303
1761370253637376500,5.90137646484375,-3.097071886062622,-0.8716026544570923,0.24426254630088806
1761370253655988500,5.919988525390625,-2.9645180702209473,-0.8398386240005493,0.023746687918901443
1761370253674599000,5.938598876953125,-2.9742915630340576,-0.769591212272644,-0.1779092699289322
1761370253693211000,5.9572109375,-3.021937847137451,-0.459280788898468,-0.22189027070999146
1761370253711821300,5.9758212890625,-3.0030014514923096,-0.00786465872079134,-0.19806721806526184
1761370253730433300,5.994433349609375,-2.871669292449951,0.4062897861003876,-0.2725905776023865
1761370253749043700,6.013043701171875,-2.625497817993164,0.665289044380188,-0.45950984954833984
1761370253767655700,6.03165576171875,-2.2822017669677734,0.6732300519943237,-0.6800256967544556
1761370253786266000,6.05026611328125,-2.0261802673339844,0.5571690797805786,-0.733169436454773
1761370253804878000,6.068878173828125,-1.8759119510650635,0.40995487570762634,-0.5829010009765625
1761370253823488500,6.087488525390625,-1.808107852935791,0.352535218000412,-0.3232909142971039
1761370253842100500,6.1061005859375,-1.7824523448944092,0.4154524803161621,-0.09910997003316879
1761370253860711000,6.1247109375,-1.7048747539520264,0.5473955273628235,-0.02214321307837963
1761370253879323000,6.143322998046875,-1.5539953708648682,0.6891120672225952,-0.06612421572208405
1761370253897933300,6.161933349609375,-1.3615785837173462,0.6946097016334534,-0.12293300777673721
1761370253916545300,6.180545166015625,-1.1563338041305542,0.6286382079124451,-0.045355409383773804
1761370253935156000,6.199156005859375,-1.0017894506454468,0.590765655040741,0.15752223134040833
1761370253953767700,6.217767578125,-0.8985562920570374,0.6170321106910706,0.36582115292549133
1761370253972378400,6.23637841796875,-0.8344173431396484,0.6622347831726074,0.49226653575897217
1761370253990990300,6.254990234375,-0.7727217674255371,0.6494069695472717,0.5429668426513672
1761370254009600800,6.273600830078125,-0.7537854909896851,0.6042042970657349,0.5820610523223877
1761370254028212700,6.292212646484375,-0.7690566778182983,0.5327351689338684,0.5221980214118958
1761370254046823200,6.3108232421875,-0.7794411182403564,0.45943349599838257,0.40430453419685364
1761370254065435100,6.32943505859375,-0.8832851648330688,0.2755684554576874,0.33466795086860657
1761370254084045600,6.348045654296875,-1.0085088014602661,0.08254073560237885,0.3688753843307495
1761370254102657500,6.366657470703125,-1.0824213027954102,-0.07200361788272858,0.45439401268959045
1761370254121268000,6.38526806640625,-1.115407109260559,-0.17951273918151855,0.5118136405944824
1761370254139880000,6.4038798828125,-1.0805888175964355,-0.32306185364723206,0.51914381980896
1761370254158490400,6.422490478515625,-1.0017894506454468,-0.47943875193595886,0.5246414542198181
1761370254177102300,6.441102294921875,-0.9071081876754761,-0.640091598033905,0.5692332983016968
1761370254195712800,6.459712646484375,-0.7788302302360535,-0.7665369510650635,0.6571952700614929
1761370254214324700,6.47832470703125,-0.6499415040016174,-0.7280535697937012,0.8025769591331482
1761370254232935200,6.49693505859375,-0.5063923597335815,-0.5863370299339294,0.9662840366363525
1761370254251547100,6.515547119140625,-0.37139514088630676,-0.4458421468734741,1.0799015760421753
1761370254270157600,6.534157470703125,-0.2779355049133301,-0.33833301067352295,1.1312127113342285
1761370254288769500,6.55276953125,-0.20402298867702484,-0.27052897214889526,1.1605334281921387
1761370254307380000,6.5713798828125,-0.12705622613430023,-0.2118876427412033,1.1794697046279907
1761370254325992000,6.589991943359375,-0.07696675509214401,-0.1740151196718216,1.184967279434204
1761370254344602400,6.608602294921875,-0.04459185153245926,-0.1599656194448471,1.167252779006958
1761370254363214300,6.62721435546875,-0.021379653364419937,-0.23509983718395233,1.0884534120559692
1761370254381825000,6.645824951171875,-0.09651386737823486,-0.3591018319129944,0.9552887678146362
1761370254400437000,6.66443701171875,-0.2522799074649811,-0.3994177579879761,0.8044095039367676
1761370254419047400,6.68304736328125,-0.38483378291130066,-0.25831204652786255,0.6645254492759705
1761370254437659400,6.701659423828125,-0.4746283292770386,0.0067956759594380856,0.5417451858520508
1761370254456269800,6.720269775390625,-0.47768256068229675,0.29389387369155884,0.4605024755001068
1761370254474881800,6.7388818359375,-0.37078428268432617,0.5241833329200745,0.4617241621017456
1761370254493492200,6.7574921875,-0.2363978922367096,0.6011500358581543,0.49532076716423035
1761370254512104200,6.776104248046875,-0.15149012207984924,0.5278483629226685,0.5014292597770691
1761370254530714600,6.794714599609375,-0.10384403169155121,0.29083964228630066,0.4776062071323395
1761370254549326600,6.81332666015625,-0.055587101727724075,-0.08971819281578064,0.4855472147464752
1761370254567937000,6.83193701171875,0.0030542362947016954,-0.4641675651073456,0.5808393955230713
1761370254586549000,6.850549072265625,0.018936265259981155,-0.6804074645042419,0.6871268153190613
1761370254605159400,6.869159423828125,-0.04703523963689804,-0.7873057723045349,0.6779640913009644
1761370254623771400,6.887771484375,-0.2351761907339096,-0.8935931921005249,0.4751628041267395
1761370254642381800,6.9063818359375,-0.47829338908195496,-0.9827768802642822,0.19478392601013184
1761370254660993800,6.924993896484375,-0.6725428104400635,-1.018206000328064,0.0005344913806766272
1761370254679604200,6.943604248046875,-0.7452336549758911,-0.9913287162780762,-0.04230117425322533
1761370254698216200,6.96221630859375,-0.6908682584762573,-0.8697701692581177,0.04146125912666321
1761370254716826600,6.98082666015625,-0.5412106513977051,-0.5722874999046326,0.26075541973114014
1761370254735438600,6.9994384765625,-0.37200596928596497,-0.2540360987186432,0.509981095790863
1761370254754049000,7.018049072265625,-0.23334364593029022,-0.02924431301653385,0.640091598033905
1761370254772661000,7.036660888671875,-0.1325538605451584,0.01046075951308012,0.6242095232009888
1761370254791271400,7.055271484375,-0.07207997888326645,-0.05673243850469589,0.48493635654449463
1761370254809883400,7.07388330078125,-0.056808795779943466,-0.17768019437789917,0.30962321162223816
1761370254828493800,7.092493896484375,-0.09712471067905426,-0.3407764136791229,0.19600561261177063
1761370254847105800,7.111105712890625,-0.1820324808359146,-0.5032618045806885,0.1727934181690216
1761370254865716200,7.12971630859375,-0.291374146938324,-0.652919352054596,0.19295138120651245
1761370254884328200,7.148328125,-0.41110020875930786,-0.695067822933197,0.2118876427412033
1761370254902939000,7.16693896484375,-0.4953971207141876,-0.704230546951294,0.22899135947227478
1761370254921550600,7.185550537109375,-0.5167768001556396,-0.7402704954147339,0.2674747407436371
1761370254940161300,7.204161376953125,-0.4599680006504059,-0.7989118695259094,0.35360419750213623
1761370254958773000,7.22277294921875,-0.3286358118057251,-0.8514447212219238,0.49593162536621094
1761370254977383700,7.2413837890625,-0.17348061501979828,-0.8184589743614197,0.6840725541114807
1761370254995995600,7.25999560546875,-0.06413896381855011,-0.6914027333259583,0.8343409895896912
1761370255014606000,7.278606201171875,-0.01832541823387146,-0.6193227767944336,0.8404494524002075
1761370255033218000,7.297218017578125,0.0030542362947016954,-0.6229878664016724,0.723166823387146
1761370255051828500,7.315828369140625,0.006719320081174374,-0.6602495312690735,0.5246414542198181
1761370255070440400,7.3344404296875,-0.012216945178806782,-0.6914027333259583,0.3175642192363739
1761370255089051000,7.35305078125,-0.06658235192298889,-0.6926244497299194,0.10682191699743271
1761370255107662800,7.371662841796875,-0.15149012207984924,-0.652919352054596,-0.14370182156562805
1761370255126273300,7.390273193359375,-0.2638860046863556,-0.6895701885223389,-0.4271349310874939
1761370255144885200,7.40888525390625,-0.40254834294319153,-0.8490013480186462,-0.6342121958732605
1761370255163495700,7.42749560546875,-0.5387672781944275,-0.9375742077827454,-0.6781931519508362
1761370255182107600,7.446107666015625,-0.6505523324012756,-0.8636616468429565,-0.5938962697982788
1761370255200718000,7.464718017578125,-0.7055285573005676,-0.6492542624473572,-0.4405735731124878
1761370255219330000,7.483330078125,-0.6450546979904175,-0.380481481552124,-0.2548760175704956
1761370255237940500,7.5019404296875,-0.4886777997016907,-0.23509983718395233,-0.11560284346342087
1761370255256552400,7.520552490234375,-0.365286648273468,-0.280913382768631,-0.0587940476834774
1761370255275163000,7.539162841796875,-0.37200596928596497,-0.486768901348114,-0.046577103435993195
1761370255293774800,7.55777490234375,-0.522885262966156,-0.7610393166542053,-0.04046862944960594
1761370255312385300,7.57638525390625,-0.7721109390258789,-0.986441969871521,0.023746687918901443
1761370255330997200,7.594997314453125,-0.9578084945678711,-1.0554677248001099,0.1593547761440277
1761370255349607700,7.613607666015625,-1.0335536003112793,-0.9235246777534485,0.3334462344646454
1761370255368219600,7.6322197265625,-1.040272831916809,-0.6852942705154419,0.42873841524124146
1761370255386830000,7.650830078125,-1.0286667346954346,-0.5136461853981018,0.3310028612613678
1761370255405442000,7.669442138671875,-1.0317209959030151,-0.42629504203796387,0.11842801421880722
1761370255424052500,7.688052490234375,-1.087918996810913,-0.3817031681537628,-0.11804623156785965
1761370255442664400,7.70666455078125,-1.188708782196045,-0.36521029472351074,-0.28541839122772217
1761370255461275100,7.725275146484375,-1.266897201538086,-0.36582115292549133,-0.3306210935115814
1761370255479887000,7.74388720703125,-1.2418525218963623,-0.34810659289360046,-0.2927485406398773
1761370255498497500,7.76249755859375,-1.1392301321029663,-0.3817031681537628,-0.2432699203491211
1761370255517109500,7.781109619140625,-1.032942771911621,-0.44400960206985474,-0.1889045089483261
1761370255535720000,7.799719970703125,-0.9181034564971924,-0.46661093831062317,-0.11987877637147903
1761370255554332000,7.818331787109375,-0.809983491897583,-0.48127129673957825,-0.05024218559265137
1761370255572942300,7.8369423828125,-0.7128587365150452,-0.5105919241905212,-0.0032069480512291193
1761370255591554300,7.85555419921875,-0.6700994372367859,-0.5478536486625671,0.035352785140275955
1761370255610164700,7.874164794921875,-0.6920899152755737,-0.5429668426513672,0.06711684167385101
1761370255628776700,7.892776611328125,-0.7605048418045044,-0.4983749985694885,0.07689040154218674
1761370255647387100,7.91138720703125,-0.8356390595436096,-0.4385119676589966,0.07261446863412857
1761370255665999000,7.9299990234375,-0.8832851648330688,-0.3853682577610016,0.0823880210518837
1761370255684609500,7.948609619140625,-0.8863393664360046,-0.31084489822387695,0.11537377536296844
1761370255703221500,7.967221435546875,-0.8783983588218689,-0.226547971367836,0.13919681310653687
1761370255721832000,7.98583203125,-0.8851176500320435,-0.1740151196718216,0.12636902928352356
1761370255740444000,8.00444384765625,-0.8790091872215271,-0.10682191699743271,0.10376767814159393
1761370255759054300,8.023054443359374,-0.8448017835617065,-0.050013117492198944,0.09032903611660004
1761370255777666300,8.041666259765625,-0.7824953198432922,-0.03352024406194687,0.09827005118131638
1761370255796276700,8.06027685546875,-0.7036960124969482,-0.0561215914785862,0.13125580549240112
1761370255814888700,8.078888671875,-0.6151232123374939,-0.03168770298361778,0.21066594123840332
1761370255833499100,8.0974990234375,-0.5308262705802917,0.08131904155015945,0.29862794280052185
1761370255852111000,8.116111083984375,-0.3781144618988037,0.2199813723564148,0.39330926537513733
1761370255870721500,8.134721435546876,-0.2602209448814392,0.23891763389110565,0.37681639194488525
1761370255889333500,8.15333349609375,-0.18997350335121155,0.18455222249031067,0.23632153868675232
1761370255907944000,8.17194384765625,-0.19363857805728912,0.031229566782712936,0.04512634128332138
1761370255926556000,8.190555908203125,-0.25289076566696167,-0.054899897426366806,-0.03130592033267021
1761370255945166300,8.209166259765626,-0.3176405727863312,-0.1483595222234726,0.06223006546497345
1761370255963778300,8.2277783203125,-0.3573456406593323,-0.20333577692508698,0.21982865035533905
1761370255982388700,8.246388671875,-0.33535513281822205,-0.2387649267911911,0.31084489822387695
1761370256001000700,8.265000732421875,-0.29320669174194336,-0.24609509110450745,0.3450523316860199
1761370256019611100,8.283611083984376,-0.22967857122421265,-0.2015032321214676,0.4195757210254669
1761370256038223000,8.30222314453125,-0.15149012207984924,-0.03962871432304382,0.5722874999046326
1761370256056833500,8.32083349609375,-0.08124268800020218,0.20226679742336273,0.6852942705154419
1761370256075445500,8.339445556640625,-0.043981000781059265,0.2609081268310547,0.6022190451622009
1761370256094056000,8.358055908203125,-0.006108472589403391,0.17111359536647797,0.3181750774383545
1761370256112668000,8.37666796875,0.02504473738372326,0.018401773646473885,-0.08139539510011673
1761370256131278300,8.3952783203125,-0.012827792204916477,-0.13980767130851746,-0.43568679690361023
1761370256149890300,8.413890380859375,-0.1178935244679451,-0.23632153868675232,-0.6134433746337891
1761370256168500700,8.432500732421875,-0.22601348161697388,-0.357269287109375,-0.6482616662979126
1761370256187112700,8.45111279296875,-0.3164188861846924,-0.5173112750053406,-0.5938962697982788
1761370256205723100,8.46972314453125,-0.3695625960826874,-0.5783960223197937,-0.45950984954833984
1761370256224335000,8.488335205078124,-0.41476529836654663,-0.5154787302017212,-0.30374380946159363
1761370256242945500,8.506945556640625,-0.33474430441856384,-0.31023404002189636,-0.14858859777450562
1761370256261557500,8.5255576171875,-0.2113531529903412,-0.09155073016881943,-0.06856760382652283
1761370256280168000,8.54416796875,-0.11911521852016449,0.03245126083493233,-0.06429167091846466
1761370256298780000,8.56277978515625,-0.10689827054738998,0.043446511030197144,-0.10277505218982697
1761370256317390300,8.581390380859375,-0.15026842057704926,-0.01763821393251419,-0.150421142578125
1761370256336002300,8.600002197265624,-0.20707722008228302,-0.059175826609134674,-0.1620272397994995
1761370256354612700,8.61861279296875,-0.24433889985084534,-0.11170869320631027,-0.149199441075325
1761370256373224700,8.637224609375,-0.24678228795528412,-0.13186664879322052,-0.1253764033317566
1761370256391835100,8.655835205078125,-0.2339545041322708,-0.13736428320407867,-0.11560284346342087
1761370256410447000,8.674447021484376,-0.25716668367385864,-0.08422056585550308,-0.10705098509788513
1761370256429057500,8.6930576171875,-0.2901524603366852,-0.06223006546497345,-0.09727742522954941
1761370256447669500,8.71166943359375,-0.30603447556495667,-0.08727480471134186,-0.09116895496845245
1761370256466280000,8.730280029296875,-0.3151971995830536,-0.036574479192495346,-0.06429167091846466
1761370256484892000,8.748891845703126,-0.2907632887363434,-0.019470756873488426,-0.04474456235766411
1761370256503502300,8.76750244140625,-0.25777754187583923,-0.06284090876579285,-0.023975754156708717
1761370256522114300,8.7861142578125,-0.23028941452503204,-0.120871402323246,0.03596363216638565
1761370256540724700,8.804724853515625,-0.20585553348064423,-0.173404261469841,0.17096087336540222
1761370256559336700,8.823336669921876,-0.21501824259757996,-0.20516832172870636,0.36154523491859436
1761370256577947100,8.841947021484375,-0.3249707520008087,0.17538951337337494,0.6303179860115051
1761370256596559000,8.86055908203125,-0.4349232614040375,0.7721872925758362,0.7952467799186707
1761370256615169500,8.87916943359375,-0.46302223205566406,0.9334509968757629,0.5838935971260071
1761370256633781500,8.897781494140625,-0.4605788290500641,0.7233195304870605,0.023746687918901443
1761370256652392000,8.916391845703124,-0.5754181146621704,0.1265217363834381,-0.6226060390472412
1761370256671004000,8.93500390625,-0.7873821258544922,-0.28518930077552795,-0.9219212532043457
1761370256689614300,8.9536142578125,-0.896723747253418,-0.35177165269851685,-0.7863131165504456
1761370256708226300,8.972226318359375,-0.869846522808075,-0.0811663269996643,-0.3324536085128784
1761370256726836700,8.990836669921874,-0.6810947060585022,0.38002336025238037,0.18989713490009308
1761370256745448700,9.00944873046875,-0.45447036623954773,0.5137988924980164,0.4757736623287201
1761370256764059100,9.02805908203125,-0.33718767762184143,0.27679017186164856,0.4501180648803711
1761370256782671000,9.046671142578125,-0.3164188861846924,-0.09338327497243881,0.1727934181690216
1761370256801281500,9.065281494140624,-0.3823903799057007,-0.4757736623287201,-0.1779092699289322
1761370256819893500,9.0838935546875,-0.4953971207141876,-0.6736881732940674,-0.37826716899871826
1761370256838504000,9.10250390625,-0.6413896083831787,-0.6278746128082275,-0.38193225860595703
1761370256857116000,9.121115966796875,-0.791047215461731,-0.49715331196784973,-0.22738789021968842
1761370256875726300,9.139726318359376,-0.9077190160751343,-0.32489439845085144,-0.039857782423496246
1761370256894338300,9.15833837890625,-0.9443698525428772,-0.24181915819644928,0.06589514762163162
1761370256912948700,9.17694873046875,-0.8759549856185913,-0.2790808379650116,0.08910734206438065
1761370256931560700,9.195560791015625,-0.7482879161834717,-0.32672691345214844,0.0811663269996643
1761370256950171100,9.214171142578126,-0.6420004963874817,-0.33711132407188416,0.08788564801216125
1761370256968783000,9.232783203125,-0.601073682308197,-0.24609509110450745,0.12392564117908478
1761370256987393500,9.2513935546875,-0.6022953987121582,-0.12636902928352356,0.14530529081821442
1761370257006005500,9.270005615234375,-0.5839699506759644,0.004352286923676729,0.1611873209476471
1761370257024616000,9.288615966796876,-0.5259394645690918,0.06910209357738495,0.17035003006458282
1761370257043228000,9.307227783203125,-0.444085955619812,0.09292513877153397,0.15507884323596954
1761370257061838300,9.32583837890625,-0.367730051279068,0.09231429547071457,0.1220930963754654
1761370257080450300,9.3444501953125,-0.29565006494522095,0.09781191498041153,0.10560022294521332
1761370257099060700,9.363060791015625,-0.2217375487089157,0.044668205082416534,0.10315682739019394
1761370257117672700,9.381672607421875,-0.15149012207984924,0.011682453565299511,0.12026055157184601
1761370257136283100,9.400283203125,-0.0647498071193695,0.05810684710741043,0.173404261469841
1761370257154895000,9.41889501953125,0.053143709897994995,0.11552648991346359,0.21860696375370026
1761370257173505500,9.437505615234375,0.18997350335121155,0.141182079911232,0.19661645591259003
1761370257192117500,9.456117431640624,0.29565006494522095,0.2340308576822281,0.11476293206214905
1761370257210728000,9.47472802734375,0.3793361485004425,0.37269318103790283,-0.017867282032966614
1761370257229340000,9.49333984375,0.41415444016456604,0.13018682599067688,-0.21944688260555267
1761370257247950300,9.511950439453125,0.39827242493629456,-0.23387815058231354,-0.35138988494873047
1761370257266562300,9.530562255859374,0.3170297145843506,-0.5826719403266907,-0.31351736187934875
1761370257285172700,9.5491728515625,0.2504473626613617,-0.588780403137207,-0.016645587980747223
1761370257303784700,9.56778466796875,0.2870981991291046,-0.25647950172424316,0.4348468780517578
1761370257322395100,9.58639501953125,0.5277720093727112,0.17111359536647797,0.7702020406723022
1761370257341007000,9.605007080078124,0.7593594789505005,0.3268796503543854,0.754930853843689
1761370257359617500,9.623617431640625,0.8955784440040588,0.18577392399311066,0.5038726329803467
1761370257378229500,9.6422294921875,0.9206231832504272,0.01046075951308012,0.28457847237586975
1761370257396840000,9.66083984375,0.8711445331573486,0.056274302303791046,0.29557371139526367
1761370257415452000,9.679451904296876,0.7801283001899719,0.17294612526893616,0.4446204602718353
1761370257434062300,9.698062255859375,0.7080483436584473,0.30244573950767517,0.5686224699020386
1761370257452674300,9.71667431640625,0.6671215891838074,0.26518407464027405,0.5490753054618835
1761370257471284700,9.73528466796875,0.6078693866729736,0.09170344471931458,0.41407808661460876
1761370257489896700,9.753896728515626,0.5125008225440979,-0.10498937219381332,0.28396761417388916
1761370257508507100,9.772507080078125,0.41232189536094666,-0.24181915819644928,0.22043950855731964
1761370257527119000,9.791119140625,0.3005368411540985,-0.2790808379650116,0.22349373996257782
1761370257545729500,9.8097294921875,0.20402298867702484,-0.2503710091114044,0.2644205093383789
1761370257564341500,9.828341552734376,0.1557660549879074,-0.12270393967628479,0.31084489822387695
1761370257582952000,9.846951904296875,0.1698155403137207,0.08742751181125641,0.2778591513633728
1761370257601564000,9.86556396484375,0.22601348161697388,0.3012240529060364,0.10071343928575516
1761370257620174300,9.88417431640625,0.31031039357185364,0.5223507881164551,-0.17302247881889343
1761370257638786300,9.902786376953125,0.4220954477787018,0.7019398808479309,-0.46867257356643677
1761370257657396700,9.921396728515624,0.5021164417266846,0.7679113745689392,-0.7466080784797668
1761370257676008700,9.9400087890625,0.4819584786891937,0.6255839467048645,-0.9604045748710632
1761370257694619100,9.958619140625,0.36284327507019043,0.27617931365966797,-1.0043855905532837
1761370257713231000,9.977231201171875,0.2235700935125351,-0.06528430432081223,-0.7930324673652649
1761370257731841500,9.995841552734374,0.1698155403137207,-0.2405974566936493,-0.4277457892894745
1761370257750453500,10.01445361328125,0.20585553348064423,-0.27419406175613403,-0.08139539510011673
1761370257769064000,10.03306396484375,0.2651077210903168,-0.2638096511363983,0.08788564801216125
1761370257787676000,10.051676025390625,0.25594499707221985,-0.33772218227386475,0.06467345356941223
1761370257806286300,10.070286376953124,0.16004198789596558,-0.40247198939323425,-0.058183200657367706
1761370257824898300,10.088898193359375,0.06719319522380829,-0.38964420557022095,-0.20234315097332
1761370257843508700,10.1075087890625,-0.006719320081174374,-0.29984965920448303,-0.2683146595954895
1761370257862120700,10.12612060546875,-0.06413896381855011,-0.10010259598493576,-0.22494450211524963
1761370257880731100,10.144731201171876,-0.12094775587320328,-0.006032116711139679,-0.16996824741363525
1761370257899343000,10.163343017578125,-0.17958909273147583,0.03489464893937111,-0.1113269105553627
1761370257917953500,10.18195361328125,-0.1832541823387146,0.14973393082618713,-0.049020491540431976
1761370257936565500,10.2005654296875,-0.15515519678592682,0.0752105712890625,-0.06917845457792282
1761370257955176200,10.21917626953125,-0.14660334587097168,-0.15080291032791138,-0.14553436636924744
1761370257973788000,10.237787841796875,-0.16248537600040436,-0.3035147190093994,-0.1889045089483261
1761370257992398600,10.256398681640626,-0.19119518995285034,-0.4226299524307251,-0.19562382996082306
1761370258011010600,10.275010498046875,-0.1973036676645279,-0.46966519951820374,-0.15530791878700256
1761370258029621000,10.29362109375,-0.16126367449760437,-0.37315133213996887,-0.009315420873463154
1761370258048233000,10.31223291015625,-0.013438640162348747,-0.09155073016881943,0.19600561261177063
1761370258066843400,10.330843505859375,0.2095206081867218,0.20959696173667908,0.3835357129573822
1761370258085455400,10.349455322265625,0.33352261781692505,0.3238253891468048,0.4782170355319977
1761370258104065800,10.368065673828125,0.365286648273468,0.24013933539390564,0.4342360496520996
1761370258122677800,10.386677734375,0.37139514088630676,0.01901262067258358,0.3163425326347351
1761370258141288200,10.4052880859375,0.3029802441596985,-0.3432198166847229,0.19234053790569305
1761370258159900200,10.423900146484375,0.17409147322177887,-0.6034407615661621,0.12881241738796234
1761370258178510600,10.442510498046875,0.08857285231351852,-0.6712448000907898,0.19661645591259003
1761370258197122600,10.46112255859375,0.031153209507465363,-0.4751628041267395,0.30901235342025757
1761370258215733000,10.47973291015625,0.02626643143594265,-0.120871402323246,0.329781174659729
1761370258234345000,10.498344970703124,0.09895725548267365,0.22792237997055054,0.23632153868675232
1761370258252955400,10.516955322265625,0.17836740612983704,0.4160633385181427,0.07139277458190918
1761370258271567400,10.5355673828125,0.23090025782585144,0.3745257258415222,-0.07528692483901978
1761370258290177800,10.554177734375,0.25716668367385864,0.2065427303314209,-0.12232216447591782
1761370258308789800,10.572789794921874,0.29687178134918213,0.11308310180902481,-0.03436015918850899
1761370258327400200,10.591400146484375,0.3518480062484741,0.08559497445821762,0.07139277458190918
1761370258346012200,10.61001220703125,0.3701734244823456,0.05077667906880379,0.10682191699743271
1761370258364622600,10.62862255859375,0.33596599102020264,0.020845163613557816,0.07322531193494797
1761370258383234600,10.647234619140624,0.2773246467113495,0.020845163613557816,0.017027366906404495
1761370258401845000,10.665844970703125,0.2217375487089157,0.056274302303791046,-0.02641914412379265
1761370258420457000,10.68445703125,0.16859383881092072,0.139960378408432,-0.06490252166986465
1761370258439067400,10.7030673828125,0.14721418917179108,0.30305659770965576,-0.07834116369485855
1761370258457679400,10.721679443359376,0.18691925704479218,0.47287213802337646,-0.07773031294345856
1761370258476289800,10.740289794921875,0.2510582208633423,0.6219188570976257,-0.0716218426823616
1761370258494901800,10.75890185546875,0.2999260127544403,0.7129350900650024,-0.08383878320455551
1761370258513512200,10.77751220703125,0.3274141252040863,0.7043832540512085,-0.10644013434648514
1761370258532124200,10.796124267578126,0.390942245721817,0.6756734251976013,-0.13514995574951172
1761370258550734800,10.81473486328125,0.4727957844734192,0.8143357634544373,-0.1510319858789444
1761370258569346600,10.8333466796875,0.5998520255088806,0.9737668633460999,-0.14309096336364746
1761370258587957200,10.851957275390625,0.7013289928436279,0.7831825613975525,-0.12720894813537598
1761370258606569200,10.8705693359375,0.6823927164077759,0.26762744784355164,-0.09544488787651062
1761370258625179600,10.8891796875,0.6836144328117371,-0.10254598408937454,-0.14553436636924744
1761370258643791600,10.90779150390625,0.637190043926239,-0.48493635654449463,-0.2029540091753006
1761370258662402000,10.926402099609374,0.5479300022125244,-0.5386909246444702,-0.1253764033317566
1761370258681014000,10.945013916015625,0.5155550837516785,-0.20333577692508698,0.10254598408937454
