time,seconds_elapsed,z,y,x
1761369877267282200,0.1912822265625,-0.3767528533935547,-0.1772477626800537,0.9382694959640503
1761369877285891800,0.209891845703125,-1.131361961364746,-0.2935163974761963,0.8278748989105225
1761369877304503300,0.22850341796875,-0.5483665466308594,0.2798163890838623,0.7484904527664185
1761369877323113000,0.247113037109375,-0.055385589599609375,0.34447288513183594,0.5927865505218506
1761369877341724400,0.265724365234375,0.31005096435546875,0.33545637130737305,0.2019209861755371
1761369877360334300,0.284334228515625,0.15129947662353516,0.24875116348266602,-0.014711618423461914
1761369877378945500,0.302945556640625,-0.1862926483154297,0.13025927543640137,0.11229610443115234
1761369877397555500,0.321555419921875,-0.23485565185546875,0.11980295181274414,0.3719053268432617
1761369877416166700,0.340166748046875,-0.4250335693359375,0.08932614326477051,0.8304977416992188
1761369877434776600,0.358776611328125,-0.9454259872436523,0.2606930732727051,1.560779094696045
1761369877453387800,0.3773876953125,-1.4487462043762207,1.394580602645874,2.0327682495117188
1761369877471997700,0.395997802734375,-1.025770664215088,3.3598859310150146,1.8239479064941406
1761369877490609000,0.41460888671875,-1.8981924057006836,1.522428035736084,1.0124292373657227
1761369877509218800,0.43321875,-2.161980628967285,0.020092010498046875,0.9192211627960205
1761369877527830300,0.451830322265625,-1.5585699081420898,-0.3790144920349121,0.6366062164306641
1761369877546440000,0.47043994140625,-0.13090038299560547,-0.5104444026947021,0.597376823425293
1761369877565051400,0.489051513671875,0.11163043975830078,-1.0797734260559082,0.8983664512634277
1761369877583661000,0.5076611328125,0.5937261581420898,-1.0594806671142578,0.7881653308868408
1761369877602272500,0.5262724609375,1.1976690292358398,0.1677701473236084,1.0660605430603027
1761369877620882200,0.544882080078125,1.493086814880371,1.1859955787658691,1.903672695159912
1761369877639493600,0.56349365234375,2.2058238983154297,1.5221502780914307,2.760308027267456
1761369877658103600,0.582103515625,2.854278564453125,1.4443039894104004,3.1183674335479736
1761369877676714800,0.60071484375,3.0548582077026367,0.686060905456543,2.70603609085083
1761369877695324700,0.61932470703125,2.6162853240966797,-0.1669788360595703,1.679018497467041
1761369877713936000,0.637935791015625,1.129960060119629,-1.0876686573028564,1.356493592262268
1761369877732545800,0.6565458984375,-0.2939929962158203,-1.6203505992889404,1.3994156122207642
1761369877751157200,0.6751572265625,-1.4560141563415527,-1.3436040878295898,1.4932403564453125
1761369877769767000,0.693766845703125,-2.3689818382263184,-0.5833413600921631,1.3412420749664307
1761369877788378400,0.71237841796875,-2.3162970542907715,0.0579376220703125,1.0584057569503784
1761369877806988300,0.73098828125,-2.1388282775878906,0.7197380065917969,0.8935149908065796
1761369877825599500,0.749599609375,-2.193336009979248,0.5956697463989258,2.0486514568328857
1761369877844209400,0.76820947265625,-2.0859947204589844,0.4761776924133301,2.3644564151763916
1761369877862820600,0.786820556640625,-1.7276849746704102,0.6525249481201172,1.9135422706604004
1761369877881430500,0.805430419921875,-1.130709171295166,0.5920367240905762,1.1617333889007568
1761369877900042000,0.8240419921875,-0.9987707138061523,0.5691711902618408,0.17266905307769775
1761369877918651600,0.842651611328125,-0.7442197799682617,0.16459989547729492,0.051470279693603516
1761369877937263000,0.86126318359375,-0.5473833084106445,0.22937703132629395,-0.35042810440063477
1761369877955873000,0.879873046875,-0.4867563247680664,0.5553460121154785,-0.5269371271133423
1761369877974484200,0.898484130859375,0.1665477752685547,0.9724485874176025,-0.37708425521850586
1761369877993094100,0.91709423828125,1.140885353088379,1.2491071224212646,-0.13911700248718262
1761369878011705300,0.935705322265625,1.3128671646118164,1.08768892288208,-0.08836531639099121
1761369878030315300,0.954315185546875,1.0279951095581055,0.909637451171875,-0.37562012672424316
1761369878048926700,0.9729267578125,0.9351263046264648,0.658510684967041,-0.4545247554779053
1761369878067536400,0.991536376953125,0.6841049194335938,0.4573962688446045,-0.6763229370117188
1761369878086147800,1.01014794921875,0.3201723098754883,0.2660067081451416,-1.002700686454773
1761369878104757800,1.0287578125,-0.11193275451660156,-0.32170891761779785,-0.8103348016738892
1761369878123369000,1.047368896484375,-0.1322650909423828,-0.9946656227111816,-0.2515107989311218
1761369878141979000,1.065978759765625,-0.2650623321533203,-0.744863748550415,-0.44961172342300415
1761369878160590300,1.08459033203125,-0.5101490020751953,-0.6565020084381104,0.00976473093032837
1761369878179200000,1.103199951171875,-0.36786460876464844,-0.003270864486694336,0.39732614159584045
1761369878197811500,1.1218115234375,0.4623136520385742,0.47091102600097656,1.1970736980438232
1761369878216421400,1.14042138671875,1.2079153060913086,-0.02826714515686035,1.6610139608383179
1761369878235032600,1.159032470703125,1.7450523376464844,-1.1765881776809692,1.3370922803878784
1761369878253642500,1.177642578125,1.8599205017089844,-2.03012752532959,0.42238765954971313
1761369878272253700,1.196253662109375,0.8978376388549805,-2.477564811706543,-0.5102003216743469
1761369878290863600,1.214863525390625,-0.2784595489501953,-2.6348862648010254,-1.3211684226989746
1761369878309475000,1.23347509765625,-0.9546623229980469,-1.9965702295303345,-1.5744643211364746
1761369878328084700,1.252084716796875,-1.0476350784301758,-0.9316287040710449,-0.3288518190383911
1761369878346696200,1.2706962890625,-0.7168550491333008,-0.44217348098754883,1.10182523727417
1761369878365306000,1.28930615234375,-0.7650470733642578,-0.06590795516967773,1.311124324798584
1761369878383917300,1.307917236328125,-1.090087890625,0.18723678588867188,1.3010058403015137
1761369878402527200,1.32652734375,-1.1339216232299805,0.4556117057800293,0.8986891508102417
1761369878421138700,1.345138671875,-0.8982620239257812,0.5239009857177734,0.5050754547119141
1761369878439748400,1.363748291015625,-0.4389381408691406,0.413607120513916,0.026137888431549072
1761369878458359800,1.38235986328125,0.35163402557373047,0.21074795722961426,-0.34547102451324463
1761369878476969700,1.4009697265625,1.1997194290161133,-0.16673707962036133,-0.529936671257019
1761369878495581000,1.419580810546875,1.5536737442016602,-0.15789556503295898,-1.0271885395050049
1761369878514190800,1.43819091796875,1.0319271087646484,-0.05978703498840332,-1.5434074401855469
1761369878532802300,1.45680224609375,0.35753631591796875,0.10890913009643555,-1.7828893661499023
1761369878551412000,1.475411865234375,-0.1252908706665039,0.33359670639038086,-1.5087025165557861
1761369878570023400,1.4940234375,-0.6711063385009766,0.5341246128082275,-1.3116717338562012
1761369878588633300,1.51263330078125,-1.1179418563842773,0.6412351131439209,-1.2523102760314941
1761369878607244500,1.53124462890625,-1.4695711135864258,0.6194698810577393,-1.2439335584640503
1761369878625854500,1.5498544921875,-1.6429862976074219,0.5384154319763184,-1.1443288326263428
1761369878644466000,1.5684658203125,-1.6838345527648926,0.4456746578216553,-1.017151117324829
1761369878663075800,1.587075927734375,-1.603041648864746,0.4646584987640381,-0.7770615816116333
1761369878681687000,1.60568701171875,-1.2138433456420898,0.4919764995574951,-0.21677720546722412
1761369878700297000,1.624296875,-0.5480680465698242,0.4896984100341797,0.38533255457878113
1761369878718908400,1.642908447265625,0.03441047668457031,0.551983118057251,0.5915780663490295
1761369878737518000,1.66151806640625,0.2839365005493164,0.691493034362793,0.5455914735794067
1761369878756129500,1.680129638671875,0.3292999267578125,0.785210371017456,0.36662670969963074
1761369878774739500,1.698739501953125,0.09957408905029297,0.9207737445831299,-0.05675816535949707
1761369878793351000,1.717350830078125,-0.07097625732421875,1.1369774341583252,-0.2677440047264099
1761369878811960600,1.735960693359375,0.05155467987060547,1.1192710399627686,-0.291659414768219
1761369878830572000,1.754572021484375,0.45075416564941406,0.8389604091644287,-0.26269227266311646
1761369878849182000,1.773181884765625,0.9635858535766602,0.44522690773010254,-0.1952025294303894
1761369878867793200,1.791793212890625,1.5361700057983398,-0.06702303886413574,-0.21380996704101562
1761369878886403000,1.810403076171875,1.8479633331298828,-0.5957300662994385,-0.5290222764015198
1761369878905014500,1.8290146484375,1.5767536163330078,-0.9316242933273315,-0.8622296452522278
1761369878923624400,1.84762451171875,0.9042043685913086,-0.8541085720062256,-1.0315403938293457
1761369878942235600,1.866235595703125,0.35607051849365234,-0.6558904647827148,-0.9609847068786621
1761369878960845600,1.884845458984375,0.3938779830932617,-0.688737154006958,-0.8851098418235779
1761369878979457000,1.90345703125,0.6958026885986328,-1.1491672992706299,-0.7350004315376282
1761369878998066700,1.922066650390625,0.9491128921508789,-1.5860322713851929,-0.5372389554977417
1761369879016678100,1.94067822265625,0.7451057434082031,-1.7282285690307617,-0.3563261032104492
1761369879035288000,1.9592880859375,-0.06864356994628906,-1.5619959831237793,-0.23940640687942505
1761369879053899300,1.977899169921875,-0.8647909164428711,-1.145782709121704,-0.02131590247154236
1761369879072509200,1.99650927734375,-1.3294095993041992,-0.4897010326385498,0.7048704624176025
1761369879091120600,2.01512060546875,-1.8377676010131836,0.33452630043029785,1.6450649499893188
1761369879109730600,2.03373046875,-1.6640949249267578,0.9526400566101074,2.4739904403686523
1761369879128341800,2.052341796875,-0.6872119903564453,0.9399528503417969,2.944230318069458
1761369879146951700,2.07095166015625,0.09789371490478516,0.29023313522338867,1.8357505798339844
1761369879165563100,2.089563232421875,0.23069190979003906,-0.42444396018981934,0.5021387338638306
1761369879184173000,2.108173095703125,-0.1333932876586914,-0.8349957466125488,-0.32455670833587646
1761369879202784300,2.1267841796875,-0.5067806243896484,-0.8862099647521973,-0.3869514763355255
1761369879221394200,2.145394287109375,-0.6727142333984375,-0.6486241817474365,-0.004666149616241455
1761369879240005600,2.164005615234375,-0.7630252838134766,-0.2359638214111328,0.4531690776348114
1761369879258615600,2.182615478515625,-1.025038719177246,0.2897915840148926,0.7526525855064392
1761369879277227000,2.20122705078125,-1.3980116844177246,0.8241276741027832,0.7209192514419556
1761369879295836700,2.219836669921875,-1.8689451217651367,0.956820011138916,0.3506171703338623
1761369879314448100,2.2384482421875,-1.9744701385498047,0.8143496513366699,0.06165674328804016
1761369879333058000,2.25705810546875,-1.6821379661560059,0.7560081481933594,-0.2264193892478943
1761369879351669500,2.27566943359375,-1.2359962463378906,0.9887762069702148,-0.6290122270584106
1761369879370279200,2.294279052734375,-0.7337360382080078,1.0171632766723633,-0.723863959312439
1761369879388890600,2.312890625,-0.5117597579956055,0.9448449611663818,-0.16955405473709106
1761369879407500500,2.33150048828125,-0.1772165298461914,1.0616776943206787,0.4131609797477722
1761369879426112000,2.350112060546875,0.4436674118041992,1.1594784259796143,0.9724968075752258
1761369879444721700,2.3687216796875,0.7301216125488281,1.1527197360992432,1.4411216974258423
1761369879463333000,2.3873330078125,0.6941041946411133,1.250281572341919,1.2869350910186768
1761369879481943000,2.405943115234375,0.6844282150268555,1.2662513256072998,0.5738493800163269
1761369879500554500,2.424554443359375,0.6479377746582031,1.0482232570648193,-0.141666978597641
1761369879519164400,2.443164306640625,0.7677183151245117,0.7980992794036865,-0.3744298815727234
1761369879537775600,2.461775634765625,0.638514518737793,0.9040319919586182,-0.46015673875808716
1761369879556385500,2.480385498046875,0.30954837799072266,0.8222963809967041,-0.15982311964035034
1761369879574997000,2.4989970703125,0.29514312744140625,0.46976161003112793,0.14274351298809052
1761369879593607000,2.51760693359375,1.0544967651367188,-0.12256979942321777,0.13558748364448547
1761369879612218400,2.53621826171875,1.719822883605957,-1.0727615356445312,-0.010212838649749756
1761369879630828000,2.554828125,1.4376821517944336,-1.8750797510147095,-0.6486003398895264
1761369879649439500,2.573439453125,0.9779996871948242,-2.3667151927948,-1.268297791481018
1761369879668049400,2.59204931640625,0.9894170761108398,-2.4644885063171387,-1.776090383529663
1761369879686660900,2.610660888671875,1.2894248962402344,-2.030996322631836,-1.7480785846710205
1761369879705270800,2.629270751953125,0.8019285202026367,-1.3669695854187012,-0.4220188856124878
1761369879723882000,2.647882080078125,0.02224254608154297,-0.8957569599151611,1.1610260009765625
1761369879742492000,2.666491943359375,-1.0519094467163086,-0.5769579410552979,2.3237264156341553
1761369879761103400,2.685103271484375,-1.8176651000976562,-0.40459203720092773,2.459928274154663
1761369879779713300,2.70371337890625,-2.060851573944092,-0.45041561126708984,1.804701566696167
1761369879798324700,2.72232470703125,-1.6521515846252441,-1.057995080947876,1.511395812034607
1761369879816934700,2.7409345703125,-1.6210594177246094,-1.181760549545288,0.5617142915725708
1761369879835545900,2.7595458984375,-1.9421415328979492,-0.4467804431915283,-0.8682758808135986
1761369879854155800,2.77815576171875,-1.339766502380371,0.4313819408416748,-2.5698604583740234
1761369879872767200,2.796767333984375,-0.1871347427368164,0.23151731491088867,-2.777980327606201
1761369879891377200,2.815377197265625,1.0472793579101562,-0.749151349067688,-1.1819984912872314
1761369879909988600,2.833988525390625,1.9876909255981445,-0.2351517677307129,-0.7727916240692139
1761369879928598300,2.852598388671875,2.3477964401245117,0.5610544681549072,-0.45887744426727295
1761369879947209700,2.871209716796875,2.1120615005493164,0.7290124893188477,0.5045923590660095
1761369879965819600,2.889819580078125,1.7980337142944336,0.5732109546661377,1.3006172180175781
1761369879984431000,2.90843115234375,0.8597965240478516,0.601069450378418,1.1660982370376587
1761369880003041000,2.927041015625,-0.33535289764404297,0.5704300403594971,0.3380163908004761
1761369880021652500,2.945652587890625,-1.370173454284668,0.2054452896118164,-0.3520386219024658
1761369880040262400,2.964262451171875,-1.9434728622436523,-0.27532362937927246,-0.8134406805038452
1761369880058873600,2.98287353515625,-2.1061816215515137,-0.6763689517974854,-1.1806635856628418
1761369880077483500,3.0014833984375,-1.9219121932983398,-0.8438053131103516,-1.375905990600586
1761369880096095000,3.020094970703125,-1.498067855834961,-0.6931285858154297,-1.264884352684021
1761369880114705000,3.038704833984375,-1.2394952774047852,-0.12009501457214355,-1.1096481084823608
1761369880133316400,3.05731640625,-1.019556999206543,0.541205883026123,-0.6910796165466309
1761369880151926300,3.07592626953125,-0.8875970840454102,1.1678504943847656,-0.3009450435638428
1761369880170537500,3.094537353515625,-0.8282508850097656,1.560603380203247,0.044317007064819336
1761369880189147400,3.1131474609375,-0.6634845733642578,1.691835641860962,0.40494513511657715
1761369880207758800,3.1317587890625,0.38487720489501953,1.1299450397491455,1.1876541376113892
1761369880226368800,3.15036865234375,1.5205249786376953,0.7104017734527588,1.5414859056472778
1761369880244980200,3.168980224609375,2.223438262939453,0.8498468399047852,1.012603759765625
1761369880263590100,3.187590087890625,2.1962385177612305,0.7360217571258545,0.281582772731781
1761369880282201300,3.206201416015625,1.6917333602905273,0.5002424716949463,-0.1113666296005249
1761369880300811300,3.224811279296875,0.8776340484619141,0.4520127773284912,-0.36374974250793457
1761369880319422700,3.243422607421875,0.3365306854248047,0.5941338539123535,-0.19456040859222412
1761369880338032600,3.26203271484375,0.3399696350097656,0.6781542301177979,0.19814831018447876
1761369880356644000,3.28064404296875,0.9354772567749023,0.5169260501861572,0.2043534517288208
1761369880375254000,3.29925390625,1.5176410675048828,-0.05523276329040527,-0.3487054705619812
1761369880393865500,3.317865478515625,1.7715911865234375,-0.9411392211914062,-1.0648365020751953
1761369880412475400,3.336475341796875,1.6353788375854492,-1.73506760597229,-1.5841972827911377
1761369880431086600,3.355086669921875,1.1321096420288086,-2.307392120361328,-1.649388313293457
1761369880449696500,3.373696533203125,0.3617591857910156,-2.4440159797668457,-1.6211644411087036
1761369880468308000,3.392307861328125,-0.5869054794311523,-2.2302753925323486,-1.4222052097320557
1761369880486918000,3.41091796875,-1.5527396202087402,-1.7676079273223877,-0.8518941402435303
1761369880505529300,3.429529296875,-2.4511585235595703,-0.8969812393188477,-0.08117619156837463
1761369880524139300,3.44813916015625,-3.4565916061401367,0.2544236183166504,0.8358805179595947
1761369880542750700,3.466750732421875,-3.279233932495117,1.1778185367584229,1.8175406455993652
1761369880561360600,3.485360595703125,-1.8990769386291504,1.2110803127288818,2.477151870727539
1761369880579971800,3.503971923828125,-0.3791532516479492,0.5034830570220947,2.250309944152832
1761369880598581800,3.522581787109375,1.1635122299194336,-0.04254603385925293,1.6372050046920776
1761369880617193200,3.541193115234375,2.350099563598633,-0.1325829029083252,0.6398590803146362
1761369880635803100,3.55980322265625,2.3595619201660156,-0.8661007881164551,-0.2822170853614807
1761369880654414600,3.57841455078125,1.3133163452148438,-1.672087550163269,-0.6456758975982666
1761369880673024500,3.5970244140625,0.20556354522705078,-2.0894951820373535,-0.8363545536994934
1761369880691636000,3.615635986328125,-0.8029289245605469,-1.9331947565078735,-0.7453927397727966
1761369880710246000,3.634245849609375,-1.3323125839233398,-1.4457852840423584,-0.3335316777229309
1761369880728857000,3.652857177734375,-1.62717866897583,-0.7641808986663818,-0.08852869272232056
1761369880747467000,3.671467041015625,-2.224480628967285,0.09765505790710449,0.3183852732181549
1761369880766078500,3.690078369140625,-2.452615261077881,1.8280060291290283,1.1084752082824707
1761369880784688400,3.7086884765625,-1.395524024963379,3.0214052200317383,1.1573692560195923
1761369880803299800,3.7272998046875,-0.5052061080932617,3.2878620624542236,0.5193157196044922
1761369880821909800,3.74590966796875,0.11415576934814453,2.513833999633789,0.587864875793457
1761369880840521200,3.764521240234375,0.8512907028198242,1.9049670696258545,0.3867032825946808
1761369880859131100,3.783131103515625,1.1082696914672852,1.2517120838165283,0.2781485915184021
1761369880877742600,3.80174267578125,0.5546035766601562,0.5512099266052246,0.16776323318481445
1761369880896352500,3.8203525390625,-0.29092884063720703,0.016849040985107422,-0.13650667667388916
1761369880914963700,3.838963623046875,-0.9268064498901367,-0.29956674575805664,-0.3475443124771118
1761369880933573600,3.85757373046875,-1.1640911102294922,-0.42522096633911133,-0.4174278974533081
1761369880952185000,3.87618505859375,-0.8325710296630859,-0.1616206169128418,-0.41990983486175537
1761369880970795000,3.894794921875,-0.02541351318359375,0.35012316703796387,0.17337989807128906
1761369880989406500,3.913406494140625,0.7974443435668945,0.8053536415100098,0.9588314890861511
1761369881008016400,3.932016357421875,1.6389503479003906,0.9683160781860352,1.3940036296844482
1761369881026627800,3.9506279296875,2.3284521102905273,0.6040558815002441,1.3448100090026855
1761369881045237800,3.96923779296875,2.2696752548217773,-0.20938324928283691,0.8851271867752075
1761369881063849200,3.98784912109375,1.487584114074707,-0.985264778137207,0.31273216009140015
1761369881082459100,4.006459228515625,0.4072275161743164,-1.3552404642105103,-0.13617920875549316
1761369881101070300,4.0250703125,-0.29741477966308594,-1.3352324962615967,-0.4147377014160156
1761369881119680300,4.04368017578125,-0.37814903259277344,-1.3073967695236206,-0.4644596576690674
1761369881138291700,4.062291748046875,-0.20392513275146484,-1.6233148574829102,-0.09291064739227295
1761369881156901600,4.080901611328125,-0.06225395202636719,-2.108682155609131,0.32659173011779785
1761369881175513000,4.09951318359375,-0.05440521240234375,-2.16827654838562,0.3540022373199463
1761369881194123000,4.118123046875,-0.4850196838378906,-2.013824462890625,0.1981133222579956
1761369881212734500,4.136734375,-1.0189132690429688,-1.7597993612289429,0.006782889366149902
1761369881231344400,4.155344482421875,-1.5017366409301758,-1.3784741163253784,-0.2532632350921631
1761369881249955800,4.173955810546875,-2.0928874015808105,-0.6838188171386719,-0.7069292068481445
1761369881268565500,4.1925654296875,-2.4898152351379395,0.19801950454711914,-1.2068002223968506
1761369881287177000,4.211177001953125,-2.065957546234131,0.8326833248138428,-1.1098089218139648
1761369881305787000,4.229786865234375,-0.6181268692016602,0.9913914203643799,-0.3024580478668213
1761369881324398300,4.2483984375,1.0306682586669922,0.8630180358886719,0.3416879177093506
1761369881343008300,4.26700830078125,1.9784326553344727,0.6530001163482666,0.5182428359985352
1761369881361619700,4.28561962890625,2.308483123779297,0.6413326263427734,0.4693549871444702
1761369881380229600,4.304229736328125,1.8011178970336914,0.6816747188568115,0.2690873146057129
1761369881398841000,4.322841064453125,0.414581298828125,0.854102373123169,-0.04006314277648926
1761369881417451000,4.341450927734375,-0.6620893478393555,0.9482474327087402,-0.21860623359680176
1761369881436062500,4.3600625,-1.2406272888183594,0.8775968551635742,-0.3730912208557129
1761369881454672400,4.37867236328125,-1.389495849609375,0.7732455730438232,-0.6097748279571533
1761369881473283600,4.39728369140625,-1.3836431503295898,0.5663416385650635,-0.750823974609375
1761369881491893500,4.4158935546875,-1.1703195571899414,0.5604712963104248,-0.8148815631866455
1761369881510505000,4.4345048828125,-0.8334684371948242,0.6861050128936768,-0.6195089817047119
1761369881529115000,4.453114990234375,-0.44694042205810547,0.892798900604248,-0.18255138397216797
1761369881547726300,4.471726318359375,0.004298210144042969,1.1180119514465332,0.3397693634033203
1761369881566336300,4.490336181640625,0.34099769592285156,1.336488962173462,0.7033679485321045
1761369881584947700,4.50894775390625,0.6215696334838867,1.4128918647766113,0.8973318338394165
1761369881603557600,4.5275576171875,0.744537353515625,1.3034765720367432,0.8819853067398071
1761369881622169000,4.546169189453125,0.6243953704833984,1.0768458843231201,0.8558478355407715
1761369881640779000,4.564779052734375,0.6623163223266602,0.8710949420928955,1.0039844512939453
1761369881659390500,4.583390380859375,0.7729969024658203,0.6484801769256592,0.9907705783843994
1761369881678000400,4.60200048828125,0.6172475814819336,0.3504831790924072,0.6577706336975098
1761369881696611800,4.62061181640625,0.41315650939941406,0.1768956184387207,0.1902141571044922
1761369881715221500,4.639221435546875,0.535191535949707,0.09462010860443115,0.04562115669250488
1761369881733833000,4.6578330078125,1.060572624206543,-0.11548483371734619,0.17206311225891113
1761369881752443000,4.67644287109375,1.786118507385254,-0.4001479148864746,0.21477055549621582
1761369881771054300,4.695054443359375,2.3475303649902344,-0.8588705062866211,-0.0946037769317627
1761369881789664300,4.713664306640625,2.165452003479004,-1.5323309898376465,-0.5700923204421997
1761369881808275700,4.732275634765625,1.3057708740234375,-2.184987783432007,-1.0945444107055664
1761369881826885600,4.7508857421875,0.30291748046875,-2.646242618560791,-1.4562112092971802
1761369881845497000,4.7694970703125,-0.8481616973876953,-2.7081758975982666,-1.4599568843841553
1761369881864107000,4.78810693359375,-1.9864139556884766,-2.353224992752075,-0.9199466705322266
1761369881882718500,4.806718505859375,-2.6812586784362793,-1.3715753555297852,-0.11351251602172852
1761369881901328400,4.825328369140625,-3.0422182083129883,0.3021233081817627,1.0756782293319702
1761369881919939600,4.843939697265625,-2.986879348754883,1.5777654647827148,2.4893410205841064
1761369881938549500,4.862549560546875,-1.908015251159668,1.8197330236434937,3.795667886734009
1761369881957161000,4.881160888671875,0.1435871124267578,0.731964111328125,4.02848482131958
1761369881975771000,4.89977099609375,1.7441387176513672,-0.4434049129486084,2.56941556930542
1761369881994382300,4.91838232421875,2.9249067306518555,-1.1161105632781982,0.8814313411712646
1761369882012992300,4.9369921875,3.268045425415039,-1.3171578645706177,-0.3960282802581787
1761369882031603700,4.955603759765625,2.417984962463379,-1.1918834447860718,-0.7489970922470093
1761369882050213600,4.974213623046875,0.9403934478759766,-0.4500707983970642,-0.4977329969406128
1761369882068825000,4.9928251953125,-0.4814872741699219,0.47182559967041016,-0.002657294273376465
1761369882087435000,5.01143505859375,-1.4897441864013672,1.2099921703338623,0.5062330365180969
1761369882106046500,5.03004638671875,-1.9202790260314941,1.6158883571624756,0.9544874429702759
1761369882124656400,5.048656494140625,-1.9036355018615723,1.7080756425857544,1.0615075826644897
1761369882143267800,5.067267822265625,-1.493788719177246,1.6545368432998657,0.7652413249015808
1761369882161877500,5.08587744140625,-0.9132575988769531,1.572959065437317,0.5148324370384216
1761369882180489000,5.104489013671875,-0.49394702911376953,1.481914758682251,0.3144516944885254
1761369882199099000,5.123098876953125,-0.1247406005859375,1.2568540573120117,0.05138504505157471
1761369882217710300,5.14171044921875,0.1166067123413086,0.9121586084365845,-0.31048619747161865
1761369882236320300,5.1603203125,0.18605804443359375,0.7394094467163086,-0.29711127281188965
1761369882254931700,5.178931640625,0.014216423034667969,0.9826416969299316,0.28442394733428955
1761369882273541600,5.197541748046875,-0.25461864471435547,1.37349271774292,1.112175464630127
1761369882292153000,5.216153076171875,-0.4950380325317383,1.6452181339263916,1.4835319519042969
1761369882310763000,5.234762939453125,-0.5884485244750977,1.6515226364135742,1.1051548719406128
1761369882329374500,5.25337451171875,-0.7045040130615234,1.679227590560913,0.39246666431427
1761369882347984400,5.271984375,-0.3201265335083008,1.3867738246917725,-0.37529057264328003
1761369882366595800,5.290595947265625,1.1729726791381836,0.018401384353637695,-0.256233274936676
1761369882385205500,5.30920556640625,2.8957271575927734,-1.4792910814285278,0.015236079692840576
1761369882403817200,5.327817138671875,3.441225051879883,-2.7479803562164307,-0.10747486352920532
1761369882422427000,5.346427001953125,2.51202392578125,-3.555422067642212,-0.5598030090332031
1761369882441038300,5.365038330078125,1.0640993118286133,-3.507140636444092,-1.0235421657562256
1761369882459648300,5.383648193359375,0.10188102722167969,-3.1926302909851074,-0.7227063179016113
1761369882478259700,5.402259765625,-0.6622991561889648,-2.693763256072998,-0.1779940128326416
1761369882496869600,5.42086962890625,-0.10804557800292969,-1.912978172302246,0.49928975105285645
1761369882515481000,5.439481201171875,-0.4841156005859375,-1.3079930543899536,1.3804000616073608
1761369882534091000,5.458091064453125,-1.0140743255615234,-1.3197094202041626,1.7368003129959106
1761369882552702500,5.476702392578125,-1.3698768615722656,-1.0950275659561157,1.46199631690979
1761369882571312400,5.4953125,-1.7198052406311035,-0.48951220512390137,1.0471158027648926
1761369882589923800,5.513923828125,-1.216726303100586,0.43375730514526367,1.6270283460617065
1761369882608533800,5.53253369140625,0.5951900482177734,1.627349853515625,2.6174840927124023
1761369882627145200,5.551145263671875,1.7120676040649414,1.9903724193572998,3.396665096282959
1761369882645755000,5.5697548828125,1.6298561096191406,1.3979454040527344,3.4405276775360107
1761369882664366600,5.58836669921875,1.7420921325683594,0.5370032787322998,2.571754217147827
1761369882682976300,5.606976318359375,2.049649238586426,-0.18408441543579102,1.5335726737976074
1761369882701587700,5.625587646484375,1.3336362838745117,-0.8591806888580322,0.6573443412780762
1761369882720197600,5.64419775390625,0.30602169036865234,-1.2274138927459717,-0.16214919090270996
1761369882748113700,5.67211376953125,-0.9815139770507812,-1.1181267499923706,-0.907219648361206
1761369882766725000,5.69072509765625,-1.436246395111084,-1.0180413722991943,-1.0306075811386108
1761369882785335000,5.7093349609375,-1.7085237503051758,-0.8544576168060303,-0.8950732946395874
1761369882803946500,5.727946533203125,-1.65767240524292,-0.7720983028411865,-0.15137696266174316
1761369882822556400,5.746556396484375,-1.308680534362793,-0.6824760437011719,0.4345025420188904
1761369882841168000,5.76516796875,-1.0260124206542969,-0.401355504989624,0.8264167904853821
1761369882859777800,5.78377783203125,-0.8175678253173828,-0.11989474296569824,1.1888691186904907
1761369882878389200,5.80238916015625,-0.5358123779296875,0.10273313522338867,1.5992355346679688
1761369882896999200,5.820999267578125,0.11413192749023438,0.14749789237976074,2.0974724292755127
1761369882915610600,5.839610595703125,0.8666219711303711,0.10626578330993652,2.1304192543029785
1761369882934220500,5.858220458984375,0.9853343963623047,0.167008638381958,1.5133788585662842
1761369882952832000,5.87683203125,0.7516117095947266,0.012830495834350586,1.026087760925293
1761369882971441700,5.895441650390625,0.605316162109375,-0.19316577911376953,0.6611757874488831
1761369882990053000,5.91405322265625,0.46361732482910156,-0.44751954078674316,0.19191211462020874
1761369883008663000,5.9326630859375,0.19395065307617188,-0.7145617008209229,-0.292105495929718
1761369883027274500,5.9512744140625,-0.02681446075439453,-0.867027997970581,-0.8204277753829956
1761369883045884400,5.969884521484375,0.09896087646484375,-0.974433183670044,-1.30348801612854
1761369883064495900,5.988495849609375,0.4022550582885742,-1.0018563270568848,-1.796156406402588
1761369883083105800,6.007105712890625,0.6785202026367188,-1.0891623497009277,-2.1265292167663574
1761369883101717200,6.02571728515625,0.823979377746582,-1.1883538961410522,-2.156789779663086
1761369883120327200,6.0443271484375,0.833531379699707,-1.2921561002731323,-1.8641599416732788
1761369883138938600,6.062938720703125,0.5130300521850586,-1.173563838005066,-1.5936298370361328
1761369883157548500,6.081548583984375,-0.06110095977783203,-0.8627870082855225,-1.4216045141220093
1761369883176160000,6.100159912109375,-0.3005084991455078,-0.6744000911712646,-1.2515943050384521
1761369883194770000,6.11877001953125,1.0386943817138672,-0.9886226654052734,-0.14149737358093262
1761369883213381400,6.13738134765625,2.670088768005371,-1.404924750328064,1.1396890878677368
1761369883231991300,6.1559912109375,2.737997055053711,-1.5484696626663208,1.676870346069336
1761369883250602800,6.174602783203125,1.273268699645996,-1.3515863418579102,1.7111543416976929
1761369883269212700,6.193212646484375,-0.12611770629882812,-0.8211386203765869,1.3589128255844116
1761369883287824100,6.21182421875,-0.707036018371582,-0.9069676399230957,1.0046806335449219
1761369883306434000,6.23043408203125,-0.40807437896728516,-1.2448885440826416,0.5267512202262878
1761369883325045500,6.24904541015625,-0.1373119354248047,-1.4984993934631348,-0.001604914665222168
1761369883343655400,6.267655517578125,-0.17401504516601562,-1.5638729333877563,0.017773866653442383
1761369883362267000,6.286266845703125,-0.7307977676391602,-1.330030083656311,0.05206739902496338
1761369883380876800,6.304876708984375,-1.3097829818725586,-0.7997231483459473,-0.06206035614013672
1761369883399488300,6.32348828125,-1.0729141235351562,-0.24541020393371582,0.1498478651046753
1761369883418098000,6.342097900390625,-0.5264225006103516,-0.03977632522583008,0.43408203125
1761369883436709400,6.36070947265625,-0.1303081512451172,-0.08062458038330078,0.3861178159713745
1761369883455319300,6.3793193359375,-0.06897926330566406,-0.4949660301208496,0.6751985549926758
1761369883473930800,6.3979306640625,-0.3724031448364258,-0.9570555686950684,1.0003124475479126
1761369883492540700,6.416540771484375,-0.6261758804321289,-0.7545157670974731,0.9169673323631287
1761369883511152000,6.435152099609375,-0.5206766128540039,-0.21889662742614746,0.6268739104270935
1761369883529762000,6.453761962890625,-0.6616649627685547,0.0004596710205078125,0.8103442788124084
1761369883548373500,6.47237353515625,-0.7383909225463867,0.5130524635314941,1.0302718877792358
1761369883566983400,6.4909833984375,-0.3796091079711914,0.7782614231109619,1.492936134338379
1761369883585595000,6.509594970703125,0.4385061264038086,0.8799734115600586,1.632440209388733
1761369883604204800,6.528204833984375,0.9546728134155273,0.9062427282333374,1.2314114570617676
1761369883622816300,6.546816162109375,1.0916004180908203,0.9380948543548584,0.31836044788360596
1761369883641426200,6.56542626953125,1.174717903137207,0.48081445693969727,-0.23013055324554443
1761369883660037600,6.58403759765625,1.744746208190918,0.32508981227874756,-0.23151004314422607
1761369883678647600,6.6026474609375,1.6776399612426758,0.12347853183746338,-0.09145689010620117
1761369883697259000,6.621259033203125,0.8018579483032227,-0.0018752813339233398,-0.2755683660507202
1761369883715869000,6.639868896484375,-0.09863090515136719,-0.04694700241088867,-0.34822654724121094
1761369883734480400,6.65848046875,-0.7036991119384766,-0.07567667961120605,-0.40067243576049805
1761369883753090300,6.67709033203125,-1.1815500259399414,0.08886122703552246,-0.7331995368003845
1761369883771701800,6.69570166015625,-1.5138416290283203,0.1764531135559082,-0.9128103256225586
1761369883790311700,6.714311767578125,-1.1028633117675781,0.4614701271057129,-0.6302356123924255
1761369883808923100,6.732923095703125,-0.6624603271484375,0.6939055919647217,-0.17801782488822937
1761369883827533000,6.751532958984375,-0.04271697998046875,0.8007559776306152,0.11817320436239243
1761369883846144500,6.77014453125,0.7962102890014648,0.5668563842773438,0.9162752628326416
1761369883864754400,6.78875439453125,1.5253190994262695,0.2839551568031311,1.3192732334136963
1761369883883366000,6.807365966796875,1.5667943954467773,0.08880090713500977,1.0341861248016357
1761369883901975800,6.825975830078125,1.012497901916504,0.09319865703582764,0.7509813904762268
1761369883920587300,6.844587158203125,0.06429481506347656,0.04588603973388672,0.7723908424377441
1761369883939197200,6.863197265625,-0.2264413833618164,0.21034479141235352,0.9064418077468872
1761369883957808600,6.88180859375,-0.06086921691894531,0.11463642120361328,1.0325706005096436
1761369883976418600,6.90041845703125,-0.4164772033691406,-0.11712360382080078,0.6317903995513916
1761369883995030000,6.919030029296875,-0.47418689727783203,-0.13777917623519897,0.5420313477516174
1761369884013639700,6.9376396484375,-0.07419013977050781,-0.022300302982330322,0.7943958044052124
1761369884032251400,6.95625146484375,-0.19150924682617188,0.01019895076751709,0.6304605603218079
1761369884050861300,6.974861328125,-0.4787721633911133,0.17763346433639526,0.44921112060546875
1761369884069472800,6.99347265625,-0.5466794967651367,0.80000239610672,0.35199588537216187
1761369884088082400,7.01208251953125,-0.5178661346435547,1.10079026222229,0.7428212761878967
1761369884106694100,7.030694091796875,-0.38718414306640625,1.2832348346710205,0.7391493916511536
1761369884125303800,7.0493037109375,-0.19963741302490234,1.3968502283096313,0.5391761064529419
1761369884143915500,7.06791552734375,0.0737161636352539,1.2418997287750244,0.617948055267334
1761369884162525200,7.086525146484375,0.08579254150390625,0.9523522853851318,0.5176002383232117
1761369884181137000,7.105136962890625,0.19129657745361328,0.7837086915969849,0.22187566757202148
1761369884199746600,7.12374658203125,0.574336051940918,0.4569082260131836,-0.15807628631591797
1761369884218358000,7.14235791015625,0.9424247741699219,0.29690706729888916,0.0806388258934021
1761369884236968000,7.160968017578125,1.1907415390014648,0.36915916204452515,0.28307902812957764
1761369884255579600,7.17957958984375,1.5348691940307617,-0.026977241039276123,0.46407943964004517
1761369884274189300,7.198189208984375,1.9038829803466797,0.1336960792541504,0.5009058713912964
1761369884292800800,7.21680078125,1.8663835525512695,0.3459526300430298,0.7654702663421631
1761369884311410700,7.23541064453125,1.3276338577270508,0.999997615814209,0.8483209609985352
1761369884330022100,7.254022216796875,1.0920038223266602,1.3070855140686035,0.7660814523696899
1761369884348632000,7.272632080078125,0.7639188766479492,0.8970324993133545,1.3798649311065674
1761369884367243500,7.291243408203125,0.46820926666259766,0.627483606338501,1.4896341562271118
1761369884385853400,7.309853515625,0.2053689956665039,0.8247461318969727,1.0044745206832886
1761369884404465000,7.32846484375,-0.0910959243774414,0.3323862552642822,1.1985570192337036
1761369884423074800,7.34707470703125,-0.47193241119384766,-0.27240800857543945,1.2666130065917969
1761369884441686300,7.365686279296875,-0.8213825225830078,-0.9854564666748047,1.003440022468567
1761369884460296200,7.384296142578125,-1.1083173751831055,-1.6215018033981323,0.6401332020759583
1761369884478907600,7.40290771484375,-1.3802547454833984,-2.2263851165771484,0.6887325048446655
1761369884497517600,7.421517578125,-1.6233973503112793,-2.5670385360717773,0.7898758053779602
1761369884516129000,7.44012890625,-1.4015579223632812,-2.0620601177215576,0.6761757135391235
1761369884534739000,7.458739013671875,-1.083327293395996,-1.4790124893188477,0.5396565198898315
1761369884553350400,7.477350341796875,-0.8498153686523438,-1.3656426668167114,0.8783677816390991
1761369884571960300,7.495960205078125,-0.6863927841186523,-0.9921044111251831,0.9144786596298218
1761369884590571800,7.51457177734375,-0.24427127838134766,-0.6435855627059937,1.2088356018066406
1761369884609181700,7.533181640625,0.2409496307373047,-0.42503857612609863,1.4909398555755615
1761369884627793200,7.551793212890625,0.7813968658447266,-0.3778383731842041,1.52662992477417
1761369884646403000,7.570403076171875,1.3254661560058594,-0.3981006145477295,1.3900805711746216
1761369884665014500,7.5890146484375,1.7541618347167969,-0.4205210208892822,1.2094155550003052
1761369884683624400,7.60762451171875,1.7163019180297852,-0.5513131618499756,0.9618637561798096
1761369884702236000,7.62623583984375,1.1471452713012695,-0.6638760566711426,0.6482646465301514
1761369884720845800,7.644845703125,0.3271207809448242,-0.762153148651123,0.33161452412605286
1761369884739457300,7.663457275390625,-0.6002473831176758,-0.8401103019714355,-0.10985797643661499
1761369884758067200,7.682067138671875,-1.477149486541748,-0.7527577877044678,-0.6434658169746399
1761369884776678700,7.7006787109375,-1.8758964538574219,-0.44962167739868164,-1.1875636577606201
1761369884795288600,7.71928857421875,-1.3851709365844727,0.037319183349609375,-1.486786127090454
1761369884813900000,7.737900146484375,-0.6088638305664062,0.1452951431274414,-1.0751804113388062
1761369884832510000,7.756510009765625,0.2303333282470703,0.3835415840148926,-0.8359113931655884
1761369884851121400,7.775121337890625,0.7354803085327148,0.35323095321655273,-0.5520583391189575
1761369884869731300,7.7937314453125,1.011387825012207,0.26787567138671875,-0.4860799312591553
1761369884888342800,7.8123427734375,1.1211671829223633,0.10196590423583984,-0.5248733758926392
1761369884906952700,7.83095263671875,1.1009883880615234,-0.13610124588012695,-0.26937931776046753
1761369884925564200,7.849564208984375,0.8448314666748047,-0.49543190002441406,-0.16734439134597778
1761369884944174000,7.868174072265625,0.5437860488891602,-0.6852424144744873,-0.13358217477798462
1761369884962785500,7.88678564453125,-0.07964324951171875,-0.6376357078552246,0.014850258827209473
1761369884981395500,7.9053955078125,-1.2239785194396973,-0.49614381790161133,-0.08456394076347351
1761369885000007000,7.9240068359375,-2.012032985687256,-0.42584705352783203,-0.48320645093917847
1761369885018616800,7.942616943359375,-1.973860263824463,-0.4152956008911133,-0.877809464931488
1761369885037228300,7.961228271484375,-1.7402982711791992,0.09906673431396484,-1.6974525451660156
1761369885055838000,7.979837890625,-2.615154266357422,0.20861053466796875,-2.0170257091522217
1761369885074449700,7.99844970703125,-2.045783042907715,-0.1858227252960205,-0.9639596939086914
1761369885093059300,8.017059326171875,0.05818939208984375,-0.9142313003540039,0.3384767472743988
1761369885111671000,8.035671142578124,1.7317581176757812,-0.9723358154296875,0.2675836980342865
1761369885130280700,8.05428076171875,2.133392333984375,-0.6456055641174316,-0.16975200176239014
1761369885148892400,8.072892333984376,1.429305076599121,-0.5239467620849609,-0.6225579380989075
1761369885167502000,8.091502197265624,1.2665138244628906,-0.22600245475769043,-0.8164887428283691
1761369885186113500,8.110113525390625,1.5665998458862305,-0.15053558349609375,-0.7631796598434448
1761369885204723500,8.128723388671874,1.628244400024414,-0.34566617012023926,-0.04915577173233032
1761369885223335200,8.147335205078125,1.6647520065307617,-0.3734149932861328,0.13732728362083435
1761369885241944800,8.16594482421875,1.510976791381836,-0.465334415435791,0.2659287452697754
1761369885260556300,8.184556396484375,1.2070989608764648,-0.5242452621459961,0.42139607667922974
1761369885279166200,8.203166259765625,1.035578727722168,-0.5806069374084473,0.4866461157798767
1761369885297777700,8.221777587890625,0.7845544815063477,-0.732435941696167,0.34862571954727173
1761369885316387600,8.2403876953125,0.28786277770996094,-0.720618724822998,0.12607300281524658
1761369885334999000,8.2589990234375,0.08841705322265625,-0.4149622917175293,0.5369704961776733
1761369885353609000,8.27760888671875,-0.08789539337158203,-0.19063878059387207,0.25557076930999756
1761369885372220400,8.296220458984376,-0.3713665008544922,-0.18345427513122559,0.05064445734024048
1761369885390830300,8.314830322265625,-0.8797407150268555,-0.00797891616821289,-0.1286444067955017
1761369885409441800,8.33344189453125,-1.4159278869628906,-0.14056849479675293,-0.24439647793769836
1761369885428051700,8.3520517578125,-1.6143980026245117,-0.1418304443359375,-0.17406469583511353
1761369885446663200,8.3706630859375,-1.9097633361816406,-0.14514970779418945,-0.002061307430267334
1761369885465273000,8.389273193359376,-1.8429250717163086,0.09384489059448242,0.4814951419830322
1761369885483884500,8.407884521484375,-0.6057329177856445,1.2086540460586548,0.5785430073738098
1761369885502494500,8.426494384765626,0.3644380569458008,1.1267247200012207,1.3114988803863525
1761369885521106000,8.44510595703125,0.6145305633544922,0.5666167736053467,1.6900540590286255
1761369885539715800,8.4637158203125,0.45068931579589844,0.11344075202941895,1.5173711776733398
1761369885558327300,8.482327392578124,0.3802661895751953,-0.2049628496170044,1.0003236532211304
1761369885576937200,8.500937255859375,0.37507057189941406,-0.3389449715614319,0.38600772619247437
1761369885595548700,8.519548583984376,0.18997669219970703,-0.45086735486984253,-0.11767277121543884
1761369885614158600,8.53815869140625,0.0013170242309570312,-0.36493754386901855,-0.4294058084487915
1761369885632770000,8.55677001953125,-0.09948158264160156,-0.21840131282806396,-0.2812424898147583
1761369885651380000,8.5753798828125,-0.3686819076538086,-0.06131267547607422,-0.1701698750257492
1761369885669991400,8.593991455078125,-0.4701356887817383,0.052617430686950684,-0.420154333114624
1761369885688601300,8.612601318359374,-0.3744182586669922,0.3134270906448364,-0.5390464067459106
1761369885707212800,8.631212890625,-0.046364784240722656,0.5913785696029663,-0.12719345092773438
1761369885725822700,8.64982275390625,0.1837596893310547,0.5105414390563965,0.26768991351127625
1761369885744434200,8.66843408203125,0.24430084228515625,0.6446527242660522,-0.16198241710662842
1761369885763044000,8.687044189453125,0.24292469024658203,0.8254612684249878,-0.20048165321350098
1761369885781655600,8.705655517578125,0.2428274154663086,0.7671456336975098,0.23568472266197205
1761369885800265500,8.724265380859375,0.7639436721801758,0.7393912076950073,0.5525608062744141
1761369885818877000,8.742876953125,1.040816307067871,0.6513485908508301,0.811720073223114
1761369885837486800,8.76148681640625,0.6744298934936523,0.5488539934158325,1.0552736520767212
1761369885856098300,8.780098388671876,0.012724876403808594,0.7262829542160034,1.116132140159607
1761369885874708000,8.7987080078125,-0.23357009887695312,0.6642248630523682,1.0846617221832275
1761369885893319700,8.817319580078125,-0.09016799926757812,0.37642180919647217,0.9934790730476379
1761369885911929300,8.835929443359374,0.36751842498779297,0.16760802268981934,0.5249655246734619
1761369885930541000,8.854541015625,0.6880264282226562,0.14623987674713135,0.22952398657798767
1761369885949150700,8.873150634765626,1.0213327407836914,0.33217644691467285,0.07166576385498047
1761369885967762200,8.89176220703125,1.0878314971923828,0.7105462551116943,0.596032440662384
1761369885986372000,8.9103720703125,0.8845682144165039,1.0760746002197266,1.3493742942810059
1761369886004983600,8.928983642578125,0.5062885284423828,1.2297699451446533,1.651748776435852
1761369886023593500,8.947593505859375,0.6501951217651367,0.7541429996490479,1.6626967191696167
1761369886042205000,8.966204833984374,1.2909698486328125,0.05190849304199219,1.0558369159698486
1761369886060814800,8.98481494140625,1.897934913635254,-1.0435426235198975,0.33442065119743347
1761369886079426300,9.00342626953125,2.02200984954834,-2.074596643447876,-0.2992005944252014
1761369886098036200,9.0220361328125,1.1404342651367188,-2.496680498123169,-0.5350551009178162
1761369886116647700,9.040647705078126,0.14586353302001953,-2.3584203720092773,-0.5030801296234131
1761369886135257600,9.059257568359374,-0.6529598236083984,-2.0695300102233887,-0.16537082195281982
1761369886153869000,9.077869140625,-1.3118743896484375,-1.7759212255477905,0.33914852142333984
1761369886172479000,9.09647900390625,-1.9773335456848145,-1.7939152717590332,0.6150802969932556
1761369886191090400,9.11509033203125,-2.4235167503356934,-1.4319075345993042,0.37976711988449097
1761369886209700400,9.133700439453126,-2.994539260864258,-1.393553376197815,0.08373057842254639
1761369886228311800,9.152311767578125,-2.9428510665893555,-1.2910797595977783,-0.23827433586120605
1761369886246921700,9.170921630859375,-2.439159870147705,-0.5838055610656738,-0.6084465980529785
1761369886265533200,9.189533203125,-2.1779489517211914,-0.388455867767334,-0.3543351888656616
1761369886284143000,9.20814306640625,-1.659315586090088,-0.4736180305480957,-0.1034543514251709
1761369886302754600,9.226754638671874,-0.5398874282836914,-0.2044668197631836,-0.4570962190628052
1761369886321364500,9.245364501953125,0.48208141326904297,0.06640934944152832,-0.5476177930831909
1761369886339976000,9.263975830078126,0.9110746383666992,-0.15834856033325195,0.002650141716003418
1761369886358585900,9.2825859375,1.0916767120361328,-0.2956826686859131,0.7794569730758667
1761369886377197300,9.301197265625,1.2918434143066406,-0.1512136459350586,1.1810239553451538
1761369886395807200,9.31980712890625,1.6369800567626953,0.6939411163330078,0.562086284160614
1761369886414418700,9.338418701171875,1.379446029663086,0.9368441104888916,0.2270733118057251
1761369886433028600,9.357028564453126,0.8572769165039062,0.8772828578948975,0.21230125427246094
1761369886451640000,9.37564013671875,0.5372095108032227,0.8509624004364014,0.17447221279144287
1761369886470249700,9.394249755859375,0.340667724609375,0.911745548248291,0.1964399814605713
1761369886488861400,9.412861328125,-0.16988372802734375,0.9621610641479492,0.21621447801589966
1761369886507471000,9.43147119140625,-0.5602483749389648,1.1347763538360596,-0.0005422830581665039
1761369886526082800,9.450082763671874,-0.7188014984130859,1.2191376686096191,-0.13899409770965576
1761369886544692500,9.4686923828125,-0.5524606704711914,1.2095293998718262,-0.0723346471786499
1761369886563304200,9.48730419921875,-0.12912940979003906,1.144174575805664,-0.015284180641174316
1761369886581913900,9.505913818359375,0.12058830261230469,0.9400980472564697,0.06491959095001221
1761369886600525300,9.524525390625,0.2889833450317383,0.6980669498443604,0.05630207061767578
1761369886619135200,9.54313525390625,0.6801786422729492,0.2738664150238037,0.0999419093132019
1761369886637746700,9.56174658203125,1.2066097259521484,-0.26308226585388184,0.07071042060852051
1761369886656356600,9.580356689453126,1.5702571868896484,-0.9123172760009766,0.04588240385055542
1761369886674968000,9.598968017578125,1.570755958557129,-1.2460030317306519,-0.025337040424346924
1761369886693578000,9.617577880859375,1.206709861755371,-1.1424401998519897,0.12321069836616516
1761369886712189400,9.636189453125,0.7295436859130859,-0.656235933303833,0.3740103840827942
1761369886730799400,9.65479931640625,0.09900188446044922,-0.09372162818908691,0.47126755118370056
1761369886749410800,9.673410888671874,-0.3296680450439453,0.2143874168395996,0.6111459136009216
1761369886768020700,9.692020751953125,-0.36141395568847656,0.16219496726989746,0.8057045936584473
1761369886786632200,9.710632080078126,-0.012356758117675781,-0.36600255966186523,1.3407821655273438
1761369886805242000,9.7292421875,0.5894279479980469,-1.2447741031646729,1.742563247680664
1761369886823853600,9.747853515625,0.8591985702514648,-2.012585163116455,1.4684128761291504
1761369886842463500,9.76646337890625,0.7183980941772461,-2.331721544265747,0.5739490389823914
1761369886861075000,9.785074951171875,0.12256813049316406,-2.3285040855407715,-0.23825091123580933
1761369886879684900,9.803684814453124,-0.4978933334350586,-1.8820730447769165,-0.7486703991889954
1761369886898296300,9.82229638671875,-0.7967510223388672,-1.1348323822021484,-0.4937722682952881
1761369886916906200,9.84090625,-0.20405006408691406,0.6233859062194824,-0.44314759969711304
1761369886935517700,9.859517578125,-0.719843864440918,0.9860119819641113,0.47351697087287903
1761369886954127600,9.878127685546875,-0.8743152618408203,0.9551305770874023,0.8362400531768799
1761369886972739000,9.896739013671874,-0.8171606063842773,0.9884986877441406,0.8117525577545166
1761369886991348700,9.9153486328125,-0.1464557647705078,0.7378180027008057,0.8947288393974304
1761369887009960200,9.933960205078124,0.7809820175170898,0.12706279754638672,0.9758895039558411
1761369887028570000,9.952570068359375,1.55535888671875,-0.6768040657043457,1.2505472898483276
1761369887047181600,9.971181640625,1.7621269226074219,-1.3516596555709839,1.4979774951934814
1761369887065791500,9.98979150390625,1.3326911926269531,-1.7224235534667969,1.4779083728790283
1761369887084403000,10.00840283203125,0.3217496871948242,-1.7944461107254028,1.0873907804489136
1761369887103012900,10.027012939453124,-1.0665531158447266,-1.5900766849517822,0.5658289194107056
1761369887121624300,10.045624267578125,-2.3958449363708496,-1.1174664497375488,-0.07438230514526367
1761369887140234200,10.064234130859376,-2.947166919708252,-0.4354221820831299,-0.681687593460083
1761369887158845700,10.082845703125,-2.5293569564819336,0.160813570022583,-0.7727164030075073
1761369887177455600,10.10145556640625,-1.7576417922973633,0.5615618228912354,-0.5266580581665039
1761369887196067000,10.120067138671875,-1.097151756286621,0.8609597682952881,-0.30310237407684326
1761369887214677000,10.138677001953125,-0.5664443969726562,1.0241658687591553,-0.11368894577026367
1761369887233288400,10.157288330078124,0.07578563690185547,1.0573906898498535,0.15048277378082275
1761369887251898400,10.1758984375,0.9879512786865234,1.10420560836792,0.500342607498169
1761369887270509800,10.194509765625,1.86468505859375,0.9935078620910645,0.9695641994476318
1761369887289119700,10.21311962890625,2.544919013977051,0.8509695529937744,1.2381798028945923
1761369887307731200,10.231731201171876,2.758358955383301,0.7039616107940674,1.2802503108978271
1761369887326341000,10.250341064453124,2.531439781188965,0.5661866664886475,1.3068867921829224
1761369887344952600,10.26895263671875,1.656290054321289,0.6043329238891602,1.0858358144760132
1761369887363562200,10.287562255859376,0.606989860534668,0.8169288635253906,0.9327845573425293
1761369887382174000,10.306174072265625,0.0699615478515625,0.6829602718353271,1.1856086254119873
1761369887400783600,10.32478369140625,-0.21914386749267578,0.3013155460357666,1.2968478202819824
1761369887419395000,10.34339501953125,-0.5192403793334961,-0.12120437622070312,1.0839136838912964
1761369887438005000,10.3620048828125,-0.6754055023193359,-0.4830174446105957,0.5563961267471313
1761369887456616400,10.380616455078124,-0.5739526748657227,-0.8273074626922607,0.37834060192108154
1761369887475226400,10.399226318359375,-0.1141042709350586,-1.1462323665618896,0.604641854763031
1761369887493837800,10.417837890625,0.36201953887939453,-1.509009599685669,0.954075038433075
1761369887512447700,10.43644775390625,0.2953338623046875,-1.7629063129425049,1.1053688526153564
1761369887531059200,10.45505908203125,-0.28983020782470703,-1.6786370277404785,0.7049440145492554
1761369887549669000,10.473669189453124,-0.8060789108276367,-1.4241944551467896,0.20489490032196045
1761369887568280600,10.492280517578125,-0.8510904312133789,-1.1571712493896484,-0.06039285659790039
1761369887586890500,10.510890380859376,-0.4441375732421875,-1.0781199932098389,0.06331157684326172
1761369887605502000,10.529501953125,0.10479545593261719,-1.1140613555908203,0.19651758670806885
1761369887624111900,10.54811181640625,0.38611602783203125,-1.0408825874328613,0.243583083152771
1761369887642723300,10.566723388671875,0.37001514434814453,-0.9559652805328369,0.22594070434570312
1761369887661333200,10.585333251953125,0.059037208557128906,-0.8261804580688477,0.01436769962310791
1761369887679944700,10.60394482421875,-0.17380523681640625,-0.623260498046875,-0.29618287086486816
1761369887698554400,10.622554443359375,0.045187950134277344,-0.5015041828155518,-0.48541414737701416
1761369887717165800,10.641165771484374,0.30086803436279297,-0.6277694702148438,-0.17918217182159424
1761369887735775700,10.659775634765625,0.36572265625,-0.7234387397766113,-0.06859970092773438
1761369887754387200,10.67838720703125,0.1554574966430664,-0.7120857238769531,-0.09652185440063477
1761369887772997000,10.6969970703125,-0.49255847930908203,-0.6734428405761719,-0.2311098575592041
1761369887791608600,10.715608642578125,-1.3148155212402344,-0.379871129989624,-0.4823734760284424
1761369887810218500,10.734218505859374,-1.1381702423095703,-0.28305912017822266,-0.2965717315673828
1761369887828830000,10.752829833984375,0.11408329010009766,0.030779600143432617,0.2795679569244385
1761369887847440000,10.77143994140625,0.2691173553466797,0.12908148765563965,0.6601067781448364
1761369887866051300,10.79005126953125,0.49774742126464844,0.1941542625427246,0.5523662567138672
1761369887884661200,10.8086611328125,0.29119873046875,0.18799781799316406,0.5069514513015747
1761369887903272700,10.827272705078125,0.10958003997802734,0.3058021068572998,0.329242467880249
1761369887921882600,10.845882568359375,0.1515207290649414,0.3510308265686035,0.02741849422454834
