time,seconds_elapsed,z,y,x
1761311740815340300,0.19934033203125,0.04753541946411133,-0.18257761001586914,-0.2999591827392578
1761311740833953300,0.217953369140625,0.1902322769165039,-0.16757678985595703,-0.3075321912765503
1761311740852567800,0.23656787109375,0.6496963500976562,-0.07853507995605469,-0.21418917179107666
1761311740871180500,0.2551806640625,0.7521610260009766,-0.16704654693603516,-0.06140565872192383
1761311740889795000,0.273795166015625,0.41967201232910156,-0.20492219924926758,-0.017333507537841797
1761311740908408000,0.292407958984375,0.049243927001953125,0.07805395126342773,-0.15765142440795898
1761311740927022300,0.311022216796875,-0.07734012603759766,0.25136470794677734,-0.08370757102966309
1761311740945635300,0.32963525390625,0.040009498596191406,0.20851421356201172,0.11755621433258057
1761311740964249600,0.34824951171875,0.33878326416015625,-0.00875234603881836,0.3009028434753418
1761311740982862600,0.366862548828125,0.4687786102294922,-0.2641615867614746,0.5819498300552368
1761311741001477000,0.38547705078125,0.4358406066894531,-0.45953845977783203,1.0196962356567383
1761311741020089900,0.40408984375,0.3122081756591797,-0.5445175170898438,1.3942607641220093
1761311741038704400,0.422704345703125,0.117431640625,-0.5997200012207031,1.563614010810852
1761311741057317400,0.4413173828125,-0.23318958282470703,-0.9014077186584473,1.447778344154358
1761311741075931600,0.459931640625,-0.5925064086914062,-1.2476978302001953,1.243164300918579
1761311741094544600,0.478544677734375,-0.7280683517456055,-1.3990302085876465,0.9994077086448669
1761311741113159200,0.4971591796875,-0.7995162010192871,-1.2055912017822266,0.7722604870796204
1761311741131772000,0.51577197265625,-0.857666015625,-0.8382296562194824,0.7614415287971497
1761311741150386400,0.534386474609375,-0.7469305992126465,-0.4890608787536621,0.826036810874939
1761311741168999400,0.55299951171875,-0.585625171661377,-0.24526119232177734,1.0849796533584595
1761311741187613700,0.57161376953125,-0.33328771591186523,0.09369993209838867,1.2830597162246704
1761311741206226700,0.590226806640625,0.024568557739257812,0.3733248710632324,1.2750294208526611
1761311741224841000,0.608841064453125,0.4129018783569336,0.3437080383300781,1.2741930484771729
1761311741243454000,0.627453857421875,0.6538848876953125,0.1467418670654297,1.1118173599243164
1761311741262068500,0.646068359375,0.46059131622314453,0.06463050842285156,0.6845894455909729
1761311741280681200,0.66468115234375,0.012763023376464844,0.16394758224487305,0.186920166015625
1761311741299295700,0.683295654296875,-0.38732481002807617,0.11882400512695312,-0.05266904830932617
1761311741317908700,0.70190869140625,-0.613072395324707,0.11413812637329102,-0.17487317323684692
1761311741336523000,0.72052294921875,-0.7258992195129395,0.18129682540893555,-0.11856770515441895
1761311741355136000,0.739135986328125,-0.8100695610046387,0.22452688217163086,-0.03791016340255737
1761311741373750500,0.75775048828125,-0.8580646514892578,0.24183320999145508,0.004431545734405518
1761311741392363300,0.77636328125,-0.8192124366760254,0.24445533752441406,0.08110541105270386
1761311741410977800,0.794977783203125,-0.6919665336608887,0.2964181900024414,0.10014474391937256
1761311741429590800,0.8135908203125,-0.6804471015930176,0.3153691291809082,0.11031186580657959
1761311741448205000,0.832205078125,-0.5776453018188477,0.3184022903442383,0.09872722625732422
1761311741466818000,0.850818115234375,-0.34860658645629883,0.33742380142211914,0.16754114627838135
1761311741485432600,0.8694326171875,-0.2268657684326172,0.48059558868408203,-0.031068086624145508
1761311741504045300,0.88804541015625,-0.28382158279418945,0.49603796005249023,-0.2001129388809204
1761311741522659800,0.906659912109375,-0.17995595932006836,0.49320077896118164,-0.29053664207458496
1761311741541272800,0.92527294921875,-0.0738840103149414,0.4260077476501465,-0.21085405349731445
1761311741559887000,0.94388720703125,-0.11092519760131836,0.42344045639038086,-0.18022775650024414
1761311741578500000,0.9625,-0.14536046981811523,0.4299945831298828,-0.14600372314453125
1761311741597114600,0.981114501953125,-0.14879274368286133,0.3768577575683594,-0.18110334873199463
1761311741615727400,0.999727294921875,-0.21130943298339844,0.32842493057250977,-0.1191025972366333
1761311741634342000,1.018341796875,-0.2259688377380371,0.37711191177368164,0.1557624340057373
1761311741652955000,1.036954833984375,-0.2509589195251465,0.3197298049926758,0.1922999620437622
1761311741671569200,1.055569091796875,-0.26548147201538086,0.24281597137451172,0.16138160228729248
1761311741690182100,1.07418212890625,-0.09479713439941406,0.3107171058654785,0.04360342025756836
1761311741708796400,1.09279638671875,0.22962093353271484,0.41586828231811523,-0.016370177268981934
1761311741727409400,1.111409423828125,0.7640843391418457,0.5760335922241211,-0.15203404426574707
1761311741746024000,1.13002392578125,0.9869823455810547,0.6546411514282227,-0.2883714437484741
1761311741764637000,1.148636962890625,0.6942338943481445,0.7708544731140137,-0.4922053813934326
1761311741783251200,1.167251220703125,0.12452173233032227,0.9789066314697266,-1.0478565692901611
1761311741801864200,1.1858642578125,-0.15935230255126953,0.977353572845459,-1.404048204421997
1761311741820478500,1.204478515625,0.3856821060180664,0.4903693199157715,-0.990623950958252
1761311741839091500,1.223091552734375,1.3827829360961914,-0.4376668930053711,-0.026227355003356934
1761311741857706000,1.2417060546875,2.1619062423706055,-1.2258448600769043,0.3624509572982788
1761311741876318700,1.260318603515625,2.1317152976989746,-2.4401438236236572,0.6293386816978455
1761311741894933200,1.278933349609375,1.5127263069152832,-3.1846516132354736,0.5117181539535522
1761311741913546200,1.297546142578125,0.4437394142150879,-3.040709972381592,-0.23641908168792725
1761311741932160500,1.316160400390625,-0.4886188507080078,-2.52394962310791,-1.0427587032318115
1761311741950773500,1.3347734375,-1.2379770278930664,-1.9829096794128418,-1.6337007284164429
1761311741969388000,1.353387939453125,-1.847257137298584,-1.5778694152832031,-1.8573287725448608
1761311741988000800,1.372000732421875,-2.265425205230713,-1.023324966430664,-2.061880111694336
1761311742006615300,1.390615234375,-2.4430131912231445,-0.5501794815063477,-2.282245635986328
1761311742025228300,1.409228271484375,-2.083292007446289,-0.2775702476501465,-1.9601473808288574
1761311742043842600,1.427842529296875,-1.0148096084594727,-0.2935662269592285,-0.9993094205856323
1761311742062455600,1.44645556640625,0.4082808494567871,-0.5275516510009766,0.028718113899230957
1761311742081070000,1.465070068359375,1.5366473197937012,-1.039320945739746,0.7756381630897522
1761311742099682800,1.483682861328125,2.051431655883789,-1.4594531059265137,0.9011839628219604
1761311742118297300,1.50229736328125,2.04306697845459,-1.568357229232788,0.3836185932159424
1761311742136910300,1.520910400390625,1.476811408996582,-1.2848281860351562,-0.5477380752563477
1761311742155524600,1.539524658203125,0.6798906326293945,-0.9761862754821777,-0.941335916519165
1761311742174137600,1.5581376953125,-0.004130363464355469,-0.641636848449707,-1.0245251655578613
1761311742192752000,1.576752197265625,-0.4975261688232422,-0.18308448791503906,-1.096373438835144
1761311742211364900,1.59536474609375,-0.9553060531616211,0.14375829696655273,-1.0310229063034058
1761311742229979400,1.6139794921875,-1.1807079315185547,0.45436906814575195,-0.8438788652420044
1761311742248592100,1.632592041015625,-1.151477336883545,0.7844228744506836,-0.5845158100128174
1761311742267206700,1.65120654296875,-0.9211134910583496,0.949099063873291,-0.37277841567993164
1761311742285819600,1.669819580078125,-0.4320030212402344,0.9283075332641602,-0.4232720136642456
1761311742304434000,1.688433837890625,0.014062881469726562,0.815709114074707,-0.5634474754333496
1761311742323047000,1.707046875,0.3631715774536133,0.7330188751220703,-0.6876094341278076
1761311742341661400,1.725661376953125,0.4938993453979492,0.6235170364379883,-0.7717024087905884
1761311742360274200,1.744274169921875,0.45478343963623047,0.5998411178588867,-0.793851375579834
1761311742378888700,1.762888671875,0.35742664337158203,0.5173211097717285,-0.647964358329773
1761311742397501700,1.781501708984375,0.3736152648925781,0.3948845863342285,-0.48169219493865967
1761311742416116000,1.800115966796875,0.29246997833251953,0.16971302032470703,-0.33759331703186035
1761311742434729000,1.81872900390625,-0.12946319580078125,0.0027484893798828125,-0.3209623098373413
1761311742453343500,1.837343505859375,-0.5080962181091309,-0.16229629516601562,-0.4013833999633789
1761311742471956200,1.855956298828125,-0.6513471603393555,-0.4141120910644531,-0.5229295492172241
1761311742490570800,1.87457080078125,-0.7846465110778809,-0.5037870407104492,-0.6272841691970825
1761311742509183500,1.89318359375,-0.6738376617431641,-0.12051105499267578,-0.8475004434585571
1761311742527798000,1.911798095703125,-0.12551212310791016,0.4464550018310547,-0.9693787097930908
1761311742546411000,1.930410888671875,0.20202922821044922,0.6687674522399902,-0.8193182945251465
1761311742565025300,1.949025390625,0.31589221954345703,0.6605415344238281,-0.5937179327011108
1761311742583638300,1.96763818359375,0.5758132934570312,0.7473349571228027,-0.47775888442993164
1761311742602252800,1.986252685546875,1.0279431343078613,0.5996308326721191,-0.30874770879745483
1761311742620865500,2.004865478515625,1.6487855911254883,0.0598907470703125,-0.29071754217147827
1761311742639480000,2.02347998046875,1.8708624839782715,-0.5269999504089355,-0.4810181260108948
1761311742658093000,2.042093017578125,1.385946273803711,-1.0867104530334473,-0.6597544550895691
1761311742676707300,2.060707275390625,0.5803318023681641,-1.4174270629882812,-0.8746139407157898
1761311742695320300,2.0793203125,-0.03758668899536133,-1.5642585754394531,-1.1356980800628662
1761311742713934600,2.0979345703125,-0.5244255065917969,-1.6459264755249023,-1.312311053276062
1761311742732547600,2.116547607421875,-1.0782957077026367,-1.4621028900146484,-1.526926040649414
1761311742751162000,2.135162109375,-1.3038930892944336,-1.0523858070373535,-1.5068989992141724
1761311742769774800,2.15377490234375,-1.263021469116211,-0.554725170135498,-1.1790481805801392
1761311742788389400,2.172389404296875,-0.9528946876525879,-0.1257915496826172,-0.82828688621521
1761311742807002400,2.19100244140625,-0.4922142028808594,-0.12377119064331055,-0.5404272079467773
1761311742825616600,2.20961669921875,0.240509033203125,-0.32283735275268555,-0.14798808097839355
1761311742844229600,2.228229736328125,0.9297313690185547,-0.6731476783752441,0.22756677865982056
1761311742862844000,2.246843994140625,1.2407102584838867,-1.0085644721984863,0.28552043437957764
1761311742881457000,2.265456787109375,0.9063282012939453,-1.1330924034118652,0.03393411636352539
1761311742900071400,2.284071533203125,0.16553783416748047,-0.9139480590820312,-0.3720892667770386
1761311742918684200,2.30268408203125,-0.44510841369628906,-0.6094245910644531,-0.710365891456604
1761311742937298700,2.321298583984375,-0.7913565635681152,-0.3513798713684082,-0.8888522386550903
1761311742955911400,2.339911376953125,-0.7410149574279785,-0.23770666122436523,-0.6881107091903687
1761311742974526000,2.35852587890625,-0.5786881446838379,-0.13068199157714844,-0.1290910243988037
1761311742993139000,2.377138916015625,-0.5209736824035645,-0.01089620590209961,0.38488543033599854
1761311743011753200,2.395753173828125,-0.625678539276123,-0.020782947540283203,0.6015043258666992
1761311743030366200,2.4143662109375,-0.68182373046875,-0.05477142333984375,0.6007198095321655
1761311743048980700,2.432980712890625,-0.5893082618713379,-0.09186363220214844,0.5519312024116516
1761311743067593500,2.451593505859375,-0.34192848205566406,-0.0499725341796875,0.48093801736831665
1761311743086208000,2.4702080078125,-0.25266361236572266,0.05985260009765625,0.32239091396331787
1761311743104821000,2.488821044921875,-0.29845714569091797,0.2790713310241699,0.18397033214569092
1761311743123435300,2.507435302734375,-0.35590171813964844,0.40842580795288086,0.18135881423950195
1761311743142048300,2.52604833984375,-0.3802633285522461,0.5017175674438477,0.17069852352142334
1761311743160662500,2.54466259765625,-0.5172128677368164,0.5186333656311035,0.20964491367340088
1761311743179275500,2.563275634765625,-0.7723393440246582,0.5824627876281738,0.22185742855072021
1761311743197890000,2.58189013671875,-1.0821928977966309,0.647770881652832,0.17022907733917236
1761311743216502800,2.600502685546875,-1.1332783699035645,0.7428865432739258,-0.07902777194976807
1761311743235117300,2.619117431640625,-0.6556148529052734,0.7929601669311523,-0.2644970417022705
1761311743253730000,2.63772998046875,0.08027839660644531,0.6916971206665039,-0.24099433422088623
1761311743272344600,2.656344482421875,1.0266189575195312,0.5866885185241699,0.005830049514770508
1761311743290957600,2.67495751953125,1.8439416885375977,0.5622653961181641,-0.018342971801757812
1761311743309571800,2.69357177734375,2.2489395141601562,0.7098808288574219,-0.361163854598999
1761311743328184800,2.712184814453125,2.1571693420410156,0.8734421730041504,-0.42826569080352783
1761311743346799000,2.730799072265625,1.8744802474975586,1.1799507141113281,-0.14042329788208008
1761311743365412000,2.749412109375,1.9523162841796875,1.1689057350158691,0.1895444393157959
1761311743384026600,2.768026611328125,2.3184995651245117,0.6861810684204102,0.3410177230834961
1761311743402639400,2.786639404296875,2.3943862915039062,-0.09958457946777344,0.5034391283988953
1761311743421254000,2.80525390625,2.0678491592407227,-0.7917299270629883,0.40656495094299316
1761311743439866600,2.82386669921875,1.5294342041015625,-1.2652714252471924,0.0647052526473999
1761311743458481200,2.842481201171875,0.9446201324462891,-1.6034889221191406,-0.44459831714630127
1761311743477094100,2.86109423828125,0.16178607940673828,-1.769054651260376,-0.7510349750518799
1761311743495708400,2.87970849609375,-0.9183511734008789,-1.620309591293335,-0.7366286516189575
1761311743514321400,2.8983212890625,-1.9404678344726562,-1.3093304634094238,-0.6978998184204102
1761311743532936000,2.91693603515625,-2.507143497467041,-0.9576570987701416,-0.8405265808105469
1761311743551548700,2.935548583984375,-2.705681324005127,-0.6365852355957031,-0.8802632093429565
1761311743570163200,2.9541630859375,-2.6403427124023438,-0.3926668167114258,-0.8763692378997803
1761311743588776000,2.97277587890625,-2.1580605506896973,-0.25655221939086914,-0.7410908937454224
1761311743607390500,2.991390380859375,-1.3694171905517578,-0.27964019775390625,-0.42707324028015137
1761311743626003200,3.010003173828125,-0.6471681594848633,-0.3905298709869385,-0.09634518623352051
1761311743644617700,3.02861767578125,-0.12082290649414062,-0.47487401962280273,-0.01867067813873291
1761311743663230700,3.047230712890625,0.17503070831298828,-0.48989176750183105,-0.41028785705566406
1761311743681845000,3.065844970703125,0.34206390380859375,-0.4325404167175293,-0.9528207778930664
1761311743700458000,3.0844580078125,0.3412008285522461,-0.4383409023284912,-1.2415237426757812
1761311743719072300,3.103072265625,0.29477787017822266,-0.28226280212402344,-1.3881521224975586
1761311743737685200,3.121685302734375,0.4286355972290039,-0.09183454513549805,-1.343576192855835
1761311743756299800,3.1402998046875,0.7239933013916016,-0.02001810073852539,-0.8764662742614746
1761311743774912500,3.15891259765625,0.7818536758422852,0.1144106388092041,-0.34593069553375244
1761311743793527000,3.177527099609375,0.5288400650024414,0.20925235748291016,0.02825641632080078
1761311743812140000,3.19614013671875,0.16040897369384766,0.2181868553161621,0.18173682689666748
1761311743830754300,3.21475439453125,-0.06451416015625,0.14396333694458008,0.2474045753479004
1761311743849367300,3.2333671875,-0.19838809967041016,-0.005091667175292969,0.16920912265777588
1761311743867981600,3.251981689453125,-0.4312906265258789,-0.13369035720825195,-0.03981590270996094
1761311743886594600,3.270594482421875,-0.6944379806518555,-0.10540390014648438,-0.3541332483291626
1761311743905208800,3.289208740234375,-0.6947002410888672,0.0021691322326660156,-0.6100785732269287
1761311743923821800,3.30782177734375,-0.4696969985961914,0.21065998077392578,-0.7106888294219971
1761311743942436400,3.326436279296875,-0.14777565002441406,0.4048609733581543,-0.671532392501831
1761311743961049000,3.345049072265625,0.13409900665283203,0.5556316375732422,-0.6388694047927856
1761311743979663600,3.36366357421875,0.5755615234375,0.6745262145996094,-0.43857884407043457
1761311743998276400,3.3822763671875,1.0669488906860352,0.6012225151062012,-0.02847754955291748
1761311744016891000,3.400890869140625,1.1212730407714844,0.4585714340209961,0.19999980926513672
1761311744035503900,3.41950390625,0.6385717391967773,0.5602340698242188,-0.031075716018676758
1761311744054118100,3.4381181640625,-0.06763076782226562,0.8383779525756836,-0.5792815685272217
1761311744072731100,3.456731201171875,-0.45459842681884766,1.0019893646240234,-0.7828273773193359
1761311744091345400,3.475345458984375,-0.4162731170654297,0.9650211334228516,-0.31394362449645996
1761311744109958400,3.49395849609375,0.0015583038330078125,0.8461751937866211,0.14936435222625732
1761311744128572700,3.51257275390625,0.7074975967407227,0.5141196250915527,0.41149526834487915
1761311744147185700,3.531185546875,1.4572057723999023,0.16621971130371094,0.6057844161987305
1761311744165800200,3.54980029296875,1.9859199523925781,-0.2926301956176758,0.770936131477356
1761311744184413000,3.568412841796875,2.1221790313720703,-0.7290830612182617,0.8015921711921692
1761311744203027500,3.58702734375,1.6693248748779297,-1.0817489624023438,0.6679898500442505
1761311744221640200,3.60564013671875,0.8856201171875,-1.1768443584442139,0.32695579528808594
1761311744240254700,3.624254638671875,0.0872640609741211,-1.0063846111297607,-0.00022411346435546875
1761311744258867700,3.64286767578125,-0.5866308212280273,-0.7440824508666992,-0.13086986541748047
1761311744277482000,3.66148193359375,-1.043757438659668,-0.4081554412841797,-0.0012974739074707031
1761311744296095000,3.680094970703125,-1.195061206817627,-0.15964412689208984,0.3057684898376465
1761311744314709200,3.698709228515625,-1.1138944625854492,-0.1304950714111328,0.6729143857955933
1761311744333322200,3.717322265625,-0.7919774055480957,-0.2434859275817871,0.8746264576911926
1761311744351936800,3.735936767578125,-0.44602012634277344,-0.48830461502075195,0.9307196140289307
1761311744370549500,3.754549560546875,-0.3305368423461914,-0.7253599166870117,0.6512037515640259
1761311744389164000,3.7731640625,-0.5356416702270508,-0.8377251625061035,0.21126043796539307
1761311744407776800,3.79177685546875,-0.9036569595336914,-0.6971421241760254,-0.2844287157058716
1761311744426391300,3.810391357421875,-1.195580005645752,-0.40988588333129883,-0.5126947164535522
1761311744445004000,3.829004150390625,-1.2488784790039062,-0.1703205108642578,-0.5320950746536255
1761311744463618600,3.84761865234375,-1.1219573020935059,-0.05682229995727539,-0.4567089080810547
1761311744482231600,3.8662314453125,-1.0027432441711426,0.06428241729736328,-0.29469501972198486
1761311744500845800,3.884845703125,-0.900841236114502,0.18439769744873047,0.06881916522979736
1761311744519458800,3.903458740234375,-0.7404665946960449,0.29943180084228516,0.33354413509368896
1761311744538073000,3.922072998046875,-0.5509185791015625,0.3188352584838867,0.44800204038619995
1761311744556686000,3.94068603515625,-0.5200662612915039,0.28376340866088867,0.4152287244796753
1761311744575300600,3.959300537109375,-0.5640792846679688,0.2952756881713867,0.19697201251983643
1761311744593913300,3.977913330078125,-0.44843482971191406,0.2857232093811035,-0.02734541893005371
1761311744612527900,3.99652783203125,-0.2658357620239258,0.3786497116088867,-0.2590353488922119
1761311744631140600,4.015140625,-0.12282848358154297,0.4733090400695801,-0.24452149868011475
1761311744649755100,4.033755126953125,0.019083023071289062,0.6186647415161133,-0.12120556831359863
1761311744668368100,4.0523681640625,0.02669811248779297,0.789118766784668,-0.06444704532623291
1761311744686982400,4.070982421875,-0.09579658508300781,0.9361124038696289,0.0065460205078125
1761311744705595400,4.089595458984375,-0.13643932342529297,1.0227251052856445,0.08555448055267334
1761311744724209700,4.108209716796875,-0.0047473907470703125,0.9741549491882324,0.2523397207260132
1761311744742822700,4.12682275390625,0.24433517456054688,0.8460078239440918,0.35066115856170654
1761311744761437000,4.14543701171875,0.5055265426635742,0.7155013084411621,0.27601122856140137
1761311744780050000,4.1640498046875,0.5387468338012695,0.6966457366943359,0.04950451850891113
1761311744798664200,4.182664306640625,0.4052267074584961,0.7796883583068848,-0.26913249492645264
1761311744817277200,4.201277099609375,0.33744335174560547,0.8896355628967285,-0.4690784215927124
1761311744835891700,4.2198916015625,0.27548789978027344,1.0260915756225586,-0.41809380054473877
1761311744854504400,4.23850439453125,0.3463096618652344,1.0092458724975586,-0.03047657012939453
1761311744873119000,4.257118896484375,0.6616725921630859,0.6006350517272949,0.6099733114242554
1761311744891732000,4.27573193359375,1.1853933334350586,0.002322673797607422,1.0248003005981445
1761311744910346200,4.29434619140625,1.6221904754638672,-0.8483090400695801,1.249338984489441
1761311744928959200,4.312959228515625,1.599125862121582,-1.461698055267334,0.9577866792678833
1761311744947573500,4.331573486328125,1.1401872634887695,-1.509232759475708,0.42552852630615234
1761311744966186500,4.3501865234375,0.43886852264404297,-1.3095295429229736,0.015378713607788086
1761311744984800800,4.36880078125,-0.11800193786621094,-1.097856044769287,-0.20693373680114746
1761311745003413800,4.387413818359375,-0.41475582122802734,-1.030904769897461,-0.1607069969177246
1761311745022028000,4.406028076171875,-0.638707160949707,-1.1623716354370117,0.15318596363067627
1761311745040641000,4.42464111328125,-0.7747516632080078,-1.0885491371154785,0.20677638053894043
1761311745059255600,4.443255615234375,-0.8988633155822754,-0.8884453773498535,-0.016745567321777344
1761311745077868300,4.461868408203125,-0.9142951965332031,-0.7142772674560547,-0.1606309413909912
1761311745096482800,4.48048291015625,-0.5763506889343262,-0.5326199531555176,-0.25515270233154297
1761311745115095800,4.499095703125,-0.11293411254882812,-0.6078357696533203,-0.14307212829589844
1761311745133710000,4.5177099609375,0.30124473571777344,-0.667421817779541,0.0980081558227539
1761311745152323000,4.536322998046875,0.5988245010375977,-0.6593036651611328,0.2456580400466919
1761311745170937300,4.554937255859375,0.5417137145996094,-0.4388093948364258,0.37004244327545166
1761311745189550300,4.57355029296875,0.1518230438232422,-0.3162984848022461,0.5437676906585693
1761311745208164600,4.59216455078125,-0.3959474563598633,-0.23479795455932617,0.46612751483917236
1761311745226777600,4.610777587890625,-0.8275909423828125,0.1836867332458496,0.010158419609069824
1761311745245392100,4.62939208984375,-1.0707497596740723,0.10974836349487305,0.08903849124908447
1761311745264004900,4.6480048828125,-1.1364336013793945,0.05307626724243164,0.2966129779815674
1761311745282619400,4.666619384765625,-0.9442915916442871,0.07890510559082031,-0.057639241218566895
1761311745301232000,4.685232177734375,-0.6549959182739258,0.4413032531738281,0.19122838973999023
1761311745319846700,4.7038466796875,-0.44924449920654297,0.26682281494140625,0.13509953022003174
1761311745338459600,4.722459716796875,-0.25783729553222656,0.4853949546813965,0.8350042700767517
1761311745357074000,4.741073974609375,0.054978370666503906,0.7813272476196289,0.6576849222183228
1761311745375687000,4.75968701171875,0.2662534713745117,0.6724915504455566,0.5917309522628784
1761311745394301200,4.77830126953125,0.3853445053100586,0.4561777114868164,0.587958812713623
1761311745412914200,4.7969140625,0.6323041915893555,0.16836214065551758,0.4051856994628906
1761311745431528700,4.81552880859375,0.7294654846191406,0.01471853256225586,0.6858214139938354
1761311745450141400,4.834141357421875,0.5828981399536133,0.3138270378112793,-0.0639880895614624
1761311745468756000,4.852755859375,0.34967803955078125,0.7332606315612793,-0.4948478937149048
1761311745487369000,4.871368896484375,0.21181869506835938,0.7681770324707031,-0.07138693332672119
1761311745505983200,4.889983154296875,0.25522327423095703,1.102386474609375,0.11318802833557129
1761311745524596200,4.90859619140625,0.4763765335083008,1.156968116760254,0.6989878416061401
1761311745543210500,4.92721044921875,0.778721809387207,1.0512666702270508,0.8188873529434204
1761311745561823500,4.945823486328125,1.100259780883789,0.45232105255126953,1.3701610565185547
1761311745580437800,4.964437744140625,1.2389602661132812,-0.21389389038085938,1.3989124298095703
1761311745599050800,4.98305078125,0.9187126159667969,-1.0743358135223389,1.3362960815429688
1761311745617665300,5.001665283203125,0.4991750717163086,-1.288989543914795,0.6112377643585205
1761311745636278000,5.020278076171875,0.23897266387939453,-1.2850806713104248,0.45990562438964844
1761311745654892500,5.038892578125,0.0101776123046875,-0.9001450538635254,0.07673370838165283
1761311745673505300,5.05750537109375,-0.4154806137084961,-0.4410438537597656,-0.20004570484161377
1761311745692119800,5.076119873046875,-0.7989320755004883,-0.07825422286987305,0.617878794670105
1761311745710732800,5.09473291015625,-0.9513111114501953,0.37251806259155273,0.9073585271835327
1761311745729347000,5.11334716796875,-0.6874814033508301,0.3880133628845215,1.7210956811904907
1761311745747960000,5.1319599609375,0.043251991271972656,0.3581066131591797,1.9455718994140625
1761311745766574300,5.15057421875,0.48049354553222656,0.24167394638061523,2.4661505222320557
1761311745785187300,5.169187255859375,0.42609405517578125,-0.4121122360229492,1.9331188201904297
1761311745803801900,5.1878017578125,-0.015310287475585938,-0.16383123397827148,1.5274840593338013
1761311745822414800,5.206414794921875,-0.4875764846801758,0.15025568008422852,0.43245255947113037
1761311745841029000,5.225029052734375,-0.9025959968566895,0.25734567642211914,0.24120616912841797
1761311745859642000,5.24364208984375,-1.2863163948059082,0.45078516006469727,0.5319293737411499
1761311745878256400,5.26225634765625,-1.4108471870422363,0.779545783996582,0.7575023174285889
1761311745896869400,5.280869384765625,-1.2652487754821777,0.9948086738586426,0.9631507992744446
1761311745915484000,5.29948388671875,-0.949486255645752,1.0817289352416992,1.3568203449249268
1761311745934096600,5.3180966796875,-0.6133222579956055,1.3516583442687988,0.8862321376800537
1761311745952711200,5.336711181640625,-0.23407936096191406,1.0723729133605957,1.1634151935577393
1761311745971324200,5.35532421875,0.12901592254638672,0.7906317710876465,1.2971833944320679
1761311745989938400,5.3739384765625,0.1958179473876953,0.9402761459350586,0.6247966289520264
1761311746008551400,5.392551513671875,0.09619808197021484,0.6914892196655273,0.5764344930648804
1761311746027165700,5.411165771484375,0.08097171783447266,0.39545249938964844,0.34944939613342285
1761311746045778700,5.42977880859375,0.09196758270263672,0.3041343688964844,0.2541670799255371
1761311746064393200,5.448393310546875,0.049612998962402344,0.21247100830078125,-0.2604644298553467
1761311746083006000,5.467005859375,0.20762252807617188,0.33625221252441406,-0.3949720859527588
1761311746101620500,5.485620361328125,0.7155361175537109,0.25954675674438477,-0.23624014854431152
1761311746120233500,5.5042333984375,1.325235366821289,0.21816110610961914,0.10412454605102539
1761311746138847700,5.52284765625,1.6211175918579102,0.36774635314941406,0.24990630149841309
1761311746157460700,5.541460693359375,1.3756303787231445,0.7010059356689453,-0.1866316795349121
1761311746176075300,5.5600751953125,0.8568639755249023,0.9534554481506348,-0.2576892375946045
1761311746194688000,5.57868798828125,0.5788116455078125,1.216719150543213,-0.3595542907714844
1761311746213302500,5.597302490234375,0.5245285034179688,1.1836628913879395,-0.01657700538635254
1761311746231915500,5.61591552734375,0.6299257278442383,0.9402103424072266,0.35225510597229004
1761311746250529800,5.63452978515625,0.8944549560546875,0.3169703483581543,0.9426872730255127
1761311746269142800,5.653142822265625,1.1651573181152344,-0.43631410598754883,1.4115231037139893
1761311746287757000,5.671757080078125,1.046248435974121,-1.2613070011138916,1.422878623008728
1761311746306370000,5.6903701171875,0.5235929489135742,-1.695122241973877,0.7619469165802002
1761311746324984600,5.708984619140625,-0.30786943435668945,-1.617443323135376,-0.007103681564331055
1761311746343597600,5.72759765625,-0.9688057899475098,-1.2790026664733887,-0.6427099704742432
1761311746362211800,5.7462119140625,-1.435379981994629,-1.0982656478881836,-0.7682328224182129
1761311746380824800,5.764824951171875,-1.581303596496582,-0.9339227676391602,-0.566807746887207
1761311746399439400,5.783439453125,-1.2083330154418945,-0.7437138557434082,-0.08291792869567871
1761311746418052000,5.802052001953125,-0.5319361686706543,-0.6606974601745605,0.6458581686019897
1761311746436666600,5.82066650390625,0.14083576202392578,-0.6274442672729492,1.5761371850967407
1761311746455279600,5.839279541015625,0.5918464660644531,-0.6762762069702148,2.1441562175750732
1761311746473894000,5.857893798828125,0.7160406112670898,-0.8690323829650879,2.0056018829345703
1761311746492507000,5.8765068359375,0.6096963882446289,-1.0408835411071777,1.1660984754562378
1761311746511121400,5.895121337890625,0.3537139892578125,-1.13212251663208,0.38295602798461914
1761311746529734100,5.913734130859375,0.05874919891357422,-1.0116047859191895,0.04370450973510742
1761311746548348700,5.9323486328125,-0.24708080291748047,-0.706367015838623,-0.016225814819335938
1761311746566961700,5.950961669921875,-0.4699697494506836,-0.3728647232055664,0.08421158790588379
1761311746585576200,5.969576171875,-0.6804790496826172,-0.2565150260925293,0.34818220138549805
1761311746604189000,5.98818896484375,-0.8118228912353516,-0.09939908981323242,0.5059401988983154
1761311746622803500,6.006803466796875,-0.9094223976135254,-0.11754322052001953,0.4286684989929199
1761311746641416400,6.02541650390625,-1.0283317565917969,-0.09785747528076172,0.06755471229553223
1761311746660030700,6.04403076171875,-1.0213804244995117,-0.0009312629699707031,-0.1928410530090332
1761311746678643700,6.062643798828125,-0.7338762283325195,0.0856022834777832,-0.3034021854400635
1761311746697258200,6.08125830078125,-0.17005538940429688,0.1740894317626953,-0.3484773635864258
1761311746715871200,6.099871337890625,0.3532371520996094,0.21777868270874023,-0.45690083503723145
1761311746734485500,6.118485595703125,0.5817394256591797,0.36434030532836914,-0.47028470039367676
1761311746753098500,6.137098388671875,0.5618419647216797,0.574979305267334,-0.3187978267669678
1761311746771713000,6.155713134765625,0.41521739959716797,0.7529759407043457,-0.25294017791748047
1761311746790325800,6.17432568359375,0.41620349884033203,0.8420982360839844,-0.1989436149597168
1761311746808940300,6.192940185546875,0.5211105346679688,0.8111410140991211,-0.11664867401123047
1761311746827553300,6.21155322265625,0.5901632308959961,0.7471170425415039,0.005564451217651367
1761311746846167800,6.230167724609375,0.6185398101806641,0.6789531707763672,0.06356000900268555
1761311746864780500,6.248780517578125,0.6122341156005859,0.5904641151428223,0.008903026580810547
1761311746883395000,6.26739501953125,0.5699748992919922,0.47245073318481445,-0.014791727066040039
1761311746902008000,6.286008056640625,0.6842317581176758,0.3376193046569824,0.06954073905944824
1761311746920622600,6.30462255859375,0.7836580276489258,0.24757719039916992,0.33233046531677246
1761311746939235300,6.3232353515625,0.6021327972412109,0.33625364303588867,0.5414760112762451
1761311746957849900,6.341849853515625,0.2562999725341797,0.38590097427368164,0.467793345451355
1761311746976462800,6.360462890625,0.038802146911621094,0.43094301223754883,0.34380900859832764
1761311746995077400,6.379077392578125,0.03341197967529297,0.4564933776855469,0.5703495740890503
1761311747013690400,6.3976904296875,0.3582124710083008,0.3175487518310547,1.1030621528625488
1761311747032304600,6.4163046875,1.0924053192138672,-0.16912269592285156,1.6446534395217896
1761311747050917600,6.434917724609375,1.4892826080322266,-0.7937831878662109,1.7484569549560547
1761311747069532200,6.4535322265625,1.1128883361816406,-1.3385000228881836,1.5131378173828125
1761311747088145200,6.472145263671875,0.35843753814697266,-1.1752495765686035,0.7533723711967468
1761311747106759400,6.490759521484375,-0.2422637939453125,-0.9249868392944336,0.14701330661773682
1761311747125372400,6.509372314453125,-0.49140167236328125,-0.762263298034668,-0.021277546882629395
1761311747143987000,6.527987060546875,-0.4483819007873535,-0.692713737487793,0.1641312837600708
1761311747162600000,6.546599853515625,-0.2278280258178711,-0.5946216583251953,0.4891788959503174
1761311747181214200,6.565214111328125,0.08559799194335938,-0.5226254463195801,0.6942161321640015
1761311747199827200,6.5838271484375,0.3545198440551758,-0.5704936981201172,0.8337467312812805
1761311747218441700,6.602441650390625,0.5207719802856445,-0.7623724937438965,0.812681257724762
1761311747237054700,6.6210546875,0.5536489486694336,-0.8569059371948242,0.573344349861145
1761311747255669200,6.639669189453125,0.3773317337036133,-0.9828512668609619,0.30916309356689453
1761311747274282200,6.6582822265625,-0.021597862243652344,-0.9989454746246338,-0.1012880802154541
1761311747292896500,6.676896484375,-0.4254169464111328,-0.796938419342041,-0.4296855926513672
1761311747311509500,6.695509521484375,-0.9471206665039062,-0.3905982971191406,-0.5177047252655029
1761311747330124000,6.7141240234375,-1.289414882659912,0.13781356811523438,-0.5021400451660156
1761311747348737000,6.732737060546875,-1.3656806945800781,0.5901756286621094,-0.3087559938430786
1761311747367351600,6.7513515625,-1.12249755859375,0.8509235382080078,-0.09333491325378418
1761311747385964300,6.76996435546875,-0.588599681854248,0.8777265548706055,0.2909051179885864
1761311747404578800,6.788578857421875,-0.10288810729980469,0.6714110374450684,0.7037683725357056
1761311747423191800,6.80719189453125,0.33425235748291016,0.4026055335998535,0.7931118011474609
1761311747441806300,6.825806396484375,0.5439834594726562,0.17744874954223633,0.4679063558578491
1761311747460419300,6.84441943359375,0.31524658203125,0.04871511459350586,0.045416951179504395
1761311747479033600,6.86303369140625,0.017792701721191406,-0.06353902816772461,-0.33329153060913086
1761311747497646600,6.881646484375,-0.1266183853149414,-0.1759033203125,-0.566718578338623
1761311747516261000,6.90026123046875,-0.042016029357910156,-0.23583602905273438,-0.6270008087158203
1761311747534874000,6.9188740234375,0.08622264862060547,-0.2481551170349121,-0.6849842071533203
1761311747553488600,6.937488525390625,0.2292022705078125,-0.16939067840576172,-0.9138059616088867
1761311747572101600,6.9561015625,0.42856693267822266,-0.04526090621948242,-0.9041659832000732
1761311747590716000,6.9747158203125,0.7171812057495117,0.05979204177856445,-0.40687036514282227
1761311747609329000,6.993328857421875,1.0495290756225586,0.35416555404663086,-0.08794546127319336
1761311747627943400,7.011943359375,1.290475845336914,0.6879005432128906,-0.0993962287902832
1761311747646556400,7.030556396484375,0.9799175262451172,1.0615696907043457,-0.4464151859283447
1761311747665171000,7.0491708984375,0.5931911468505859,1.132814884185791,-0.5236937999725342
1761311747683784000,7.067783935546875,0.7471485137939453,0.7185268402099609,-0.2038581371307373
1761311747702398200,7.086398193359375,1.450068473815918,0.03564167022705078,0.1969701051712036
1761311747721011200,7.10501123046875,1.9356250762939453,-0.8125572204589844,0.4339202642440796
1761311747739625700,7.123625732421875,2.0754776000976562,-1.5710277557373047,0.3144805431365967
1761311747758238700,7.14223876953125,1.5288667678833008,-2.2262208461761475,0.2966345548629761
1761311747776853200,7.160853271484375,0.5217132568359375,-2.2413153648376465,0.21944189071655273
1761311747795466200,7.17946630859375,-0.696721076965332,-2.070585012435913,-0.2402021884918213
1761311747814080800,7.198080810546875,-1.831019401550293,-1.7427787780761719,-0.9450147151947021
1761311747832693800,7.21669384765625,-2.597601890563965,-1.4053215980529785,-1.5616068840026855
1761311747851308000,7.23530810546875,-2.7007393836975098,-1.032918930053711,-1.8625328540802002
1761311747869921000,7.253921142578125,-2.405458450317383,-0.8284873962402344,-1.456728458404541
1761311747888535600,7.27253564453125,-1.7304363250732422,-0.49203062057495117,-0.830664873123169
1761311747907148500,7.2911484375,-0.6498479843139648,-0.30817270278930664,-0.021120548248291016
1761311747925763000,7.30976318359375,0.36718177795410156,-0.46352386474609375,0.6013039946556091
1761311747944376000,7.3283759765625,1.391402244567871,-0.7776498794555664,0.7852601408958435
1761311747962990600,7.346990478515625,1.8505887985229492,-1.1543011665344238,0.6157246828079224
1761311747981603600,7.365603515625,1.6074304580688477,-1.2013006210327148,-0.042218565940856934
1761311748000217900,7.3842177734375,0.8945226669311523,-0.9950032234191895,-0.6507663726806641
1761311748018830800,7.402830810546875,0.16158390045166016,-0.7490901947021484,-1.0534054040908813
1761311748037445400,7.4214453125,-0.37653636932373047,-0.5445218086242676,-1.3495814800262451
1761311748056058400,7.440058349609375,-0.5768008232116699,-0.34486913681030273,-1.4469385147094727
1761311748074673000,7.4586728515625,-0.6926569938659668,-0.29815149307250977,-1.2657395601272583
1761311748093286000,7.477285888671875,-0.6983227729797363,-0.1522812843322754,-1.0918642282485962
1761311748111900400,7.495900390625,-0.538658618927002,-0.0237579345703125,-0.7117629051208496
1761311748130513400,7.514513427734375,-0.4081106185913086,0.07833242416381836,-0.3993273973464966
1761311748149128000,7.5331279296875,-0.12912940979003906,0.29424571990966797,-0.2089301347732544
1761311748167741000,7.551740966796875,0.09498119354248047,0.33350419998168945,-0.08405649662017822
1761311748186355200,7.570355224609375,0.23786640167236328,0.3538355827331543,-0.13539648056030273
1761311748204968200,7.58896826171875,0.4633626937866211,0.40600061416625977,-0.3533940315246582
1761311748223582700,7.607582763671875,0.6479387283325195,0.34090471267700195,-0.5045751333236694
1761311748242195700,7.62619580078125,0.711151123046875,0.3241410255432129,-0.48103463649749756
1761311748260810200,7.644810302734375,0.5751972198486328,0.24050235748291016,-0.2513458728790283
1761311748279423200,7.66342333984375,0.38577938079833984,0.1981205940246582,-0.029127836227416992
1761311748298037800,7.682037841796875,0.18258285522460938,0.0902857780456543,-0.05395197868347168
1761311748316650800,7.700650634765625,0.03269195556640625,-0.007514476776123047,-0.35764050483703613
1761311748335265300,7.719265380859375,-0.05186176300048828,0.0657649040222168,-0.7830121517181396
1761311748353878300,7.737878173828125,-0.18720531463623047,0.17940187454223633,-1.0730838775634766
1761311748372492800,7.756492919921875,-0.18073177337646484,0.3593764305114746,-1.309679388999939
1761311748391105500,7.77510546875,-0.17278242111206055,0.4792032241821289,-1.2151734828948975
1761311748409720000,7.793719970703125,0.047013282775878906,0.6080312728881836,-0.85477614402771
1761311748428333000,7.8123330078125,0.7618751525878906,0.43848609924316406,-0.5214264392852783
1761311748446947600,7.830947509765625,1.7458534240722656,0.15303850173950195,0.015958666801452637
1761311748465560600,7.849560546875,2.4203672409057617,-0.3277726173400879,0.8501850366592407
1761311748484175000,7.868175048828125,2.3589067459106445,-0.9394779205322266,1.3755013942718506
1761311748502788000,7.8867880859375,1.6912527084350586,-1.1689810752868652,0.8734241127967834
1761311748521402600,7.905402587890625,0.8203668594360352,-1.282670021057129,0.11307883262634277
1761311748540015600,7.924015625,0.03256988525390625,-1.1998958587646484,-0.45944011211395264
1761311748558630100,7.942630126953125,-0.5286955833435059,-0.9246115684509277,-0.6288866996765137
1761311748577243100,7.9612431640625,-0.7766051292419434,-0.5924601554870605,-0.424360990524292
1761311748595857700,7.979857666015625,-0.5973639488220215,-0.36612749099731445,0.16306638717651367
1761311748614470700,7.998470703125,-0.1591176986694336,-0.3052372932434082,0.9145852327346802
1761311748633085200,8.017085205078125,0.31574344635009766,-0.41396093368530273,1.3286031484603882
1761311748651698200,8.0356982421875,0.7511672973632812,-0.8980221748352051,1.5079739093780518
1761311748670312700,8.054312744140624,0.8662185668945312,-1.3445563316345215,1.137047529220581
1761311748688925400,8.072925537109375,0.5155658721923828,-1.380936622619629,0.3382011651992798
1761311748707540000,8.0915400390625,-0.13179492950439453,-1.1727995872497559,-0.3208129405975342
1761311748726153000,8.110153076171875,-0.710874080657959,-0.8366670608520508,-0.7247140407562256
1761311748744767500,8.128767578125,-0.9382476806640625,-0.5035147666931152,-0.8329921960830688
1761311748763380500,8.14738037109375,-0.934363842010498,-0.2775425910949707,-0.7268701791763306
1761311748781995000,8.1659951171875,-0.7841525077819824,-0.038576602935791016,-0.4461463689804077
1761311748800608000,8.18460791015625,-0.6863393783569336,0.16895818710327148,-0.13771426677703857
1761311748819222500,8.203222412109374,-0.6132187843322754,0.2508859634399414,-0.022060155868530273
1761311748837835500,8.22183544921875,-0.5726757049560547,0.22649812698364258,-0.0008025169372558594
1761311748856450000,8.240449951171875,-0.4669656753540039,0.1447453498840332,0.05969130992889404
1761311748875063000,8.25906298828125,-0.39248132705688477,0.09792566299438477,0.04556453227996826
1761311748893677600,8.277677490234375,-0.5005860328674316,0.03141021728515625,-0.2585104703903198
1761311748912290600,8.29629052734375,-0.6343917846679688,0.008937835693359375,-0.545857310295105
1761311748930905000,8.314905029296876,-0.5985779762268066,-0.032930850982666016,-0.6805137395858765
1761311748949518000,8.33351806640625,-0.47144031524658203,-0.09226131439208984,-0.6125768423080444
1761311748968132600,8.352132568359375,-0.3404378890991211,-0.12613391876220703,-0.6053643226623535
1761311748986745600,8.37074560546875,-0.2765622138977051,-0.09445524215698242,-0.711930513381958
1761311749005359900,8.38935986328125,-0.25050830841064453,-0.016808032989501953,-0.8832236528396606
1761311749023973000,8.40797314453125,-0.1515974998474121,0.09090042114257812,-0.8419032096862793
1761311749042587400,8.42658740234375,0.10314655303955078,0.10482597351074219,-0.5529794692993164
1761311749061200400,8.445200439453124,0.27752685546875,0.1326894760131836,-0.3304182291030884
1761311749079815000,8.46381494140625,0.3572225570678711,0.17219305038452148,-0.3241804838180542
1761311749098428000,8.482427978515625,0.43813228607177734,0.1659860610961914,-0.29040563106536865
1761311749117042400,8.50104248046875,0.403533935546875,0.18276262283325195,-0.407615065574646
1761311749135655400,8.519655517578125,0.2162933349609375,0.43187522888183594,-0.7775589227676392
1761311749154270000,8.53827001953125,-0.07038545608520508,0.6329836845397949,-0.9054127931594849
1761311749172883000,8.556883056640626,-0.18791437149047852,0.7130928039550781,-0.7512547969818115
1761311749191497500,8.57549755859375,-0.17267847061157227,0.5298962593078613,-0.5825068950653076
1761311749210110500,8.5941103515625,0.0049686431884765625,0.4252347946166992,-0.5735868215560913
1761311749228725000,8.61272509765625,0.33761024475097656,0.13352537155151367,-0.3759082555770874
1761311749247338000,8.631337890625,1.0846948623657227,-0.22088098526000977,-0.14679837226867676
1761311749265952500,8.649952392578125,1.815260887145996,-0.5654592514038086,0.06322669982910156
1761311749284565500,8.6685654296875,2.2236433029174805,-1.0592761039733887,0.3469315767288208
1761311749303180000,8.687179931640625,2.1780595779418945,-1.5018057823181152,0.5755497217178345
1761311749321793000,8.70579296875,1.4488916397094727,-1.6739914417266846,0.4202888011932373
1761311749340407600,8.724407470703126,0.4011058807373047,-1.5244417190551758,-0.10533928871154785
1761311749359020500,8.7430205078125,-0.5140161514282227,-1.2435617446899414,-0.7265758514404297
1761311749377635000,8.761635009765625,-1.0645685195922852,-1.0431413650512695,-1.0675408840179443
1761311749396248000,8.780248046875,-1.2547574043273926,-0.8447566032409668,-1.0525633096694946
1761311749414862600,8.798862548828126,-1.0019540786743164,-0.7816667556762695,-0.6885417699813843
1761311749433475600,8.8174755859375,-0.5541272163391113,-0.8061556816101074,-0.14571881294250488
1761311749452090000,8.836090087890625,-0.21204185485839844,-0.8437914848327637,0.20612049102783203
1761311749470703000,8.854703125,-0.12624406814575195,-0.6751041412353516,0.31065118312835693
1761311749489317600,8.873317626953124,-0.008954048156738281,-0.5275850296020508,0.22405993938446045
1761311749507930600,8.8919306640625,0.12993240356445312,-0.5227622985839844,0.04065525531768799
1761311749526545200,8.910545166015625,0.2587289810180664,-0.4982762336730957,-0.26746177673339844
1761311749545158000,8.929157958984375,0.3463287353515625,-0.5119228363037109,-0.48412370681762695
1761311749563772400,8.9477724609375,0.5815305709838867,-0.45504045486450195,-0.5149142742156982
1761311749582385400,8.966385498046876,0.7265310287475586,-0.4450254440307617,-0.38040125370025635
1761311749601000000,8.985,0.5906133651733398,-0.3910808563232422,-0.2664097547531128
1761311749619613000,9.003613037109375,0.29204654693603516,-0.34817028045654297,-0.16656863689422607
1761311749638227500,9.0222275390625,0.04851531982421875,-0.3635067939758301,-0.10645854473114014
1761311749656840400,9.04084033203125,-0.15370845794677734,-0.3671998977661133,-0.15600550174713135
1761311749675455000,9.059455078125,-0.26981258392333984,-0.39815282821655273,-0.15604174137115479
1761311749694068000,9.07806787109375,-0.36330223083496094,-0.3573431968688965,-0.15186893939971924
1761311749712682500,9.0966826171875,-0.6089038848876953,-0.30597782135009766,-0.2765768766403198
1761311749731295500,9.11529541015625,-0.9036288261413574,-0.17915058135986328,-0.3943009376525879
1761311749749910000,9.133909912109376,-1.0051937103271484,-0.023681163787841797,-0.41468918323516846
1761311749768523000,9.15252294921875,-0.8652963638305664,0.08093595504760742,-0.3830004930496216
1761311749787137500,9.171137451171875,-0.6747217178344727,0.06893444061279297,-0.4027634859085083
1761311749805750500,9.18975048828125,-0.3691434860229492,0.005383014678955078,-0.4170726537704468
1761311749824365000,9.208364990234376,0.08452749252319336,-0.10913705825805664,-0.31089556217193604
1761311749842978000,9.22697802734375,0.49427127838134766,-0.20131540298461914,-0.35901737213134766
1761311749861592600,9.245592529296875,0.6993627548217773,-0.023223400115966797,-0.6873272657394409
1761311749880205600,9.26420556640625,0.4494600296020508,0.25220537185668945,-1.0796126127243042
1761311749898820000,9.282820068359374,-0.07354259490966797,0.5018110275268555,-1.3179858922958374
1761311749917433000,9.30143310546875,-0.17467737197875977,0.6592845916748047,-1.1550427675247192
1761311749936047600,9.320047607421875,0.38604068756103516,0.6792244911193848,-0.6606564521789551
1761311749954660600,9.33866064453125,1.3282718658447266,0.4121708869934082,-0.019633889198303223
1761311749973275100,9.357275146484374,2.0634288787841797,-0.035303592681884766,0.7529748678207397
1761311749991888100,9.37588818359375,2.416553497314453,-0.42662906646728516,1.3873296976089478
1761311750010502700,9.394502685546875,2.294923782348633,-0.9057579040527344,1.371567726135254
1761311750029115600,9.41311572265625,1.3778657913208008,-1.4624900817871094,0.626480221748352
1761311750047730200,9.431730224609375,0.35515880584716797,-1.7239561080932617,-0.4464583396911621
1761311750066343200,9.45034326171875,-0.5265007019042969,-1.4928946495056152,-1.360076904296875
1761311750084957700,9.468957763671876,-1.2975082397460938,-1.1539082527160645,-1.5349458456039429
1761311750103570700,9.48757080078125,-1.7291340827941895,-0.7703475952148438,-1.3171839714050293
1761311750122185200,9.506185302734375,-1.7101407051086426,-0.38630151748657227,-0.6974040269851685
1761311750140798200,9.524798095703124,-1.247488021850586,-0.2451944351196289,0.2567150592803955
1761311750159412700,9.543412841796876,-0.4755091667175293,-0.32106637954711914,0.8183826804161072
1761311750178025700,9.562025634765625,0.1388387680053711,-0.6654510498046875,0.8282870650291443
1761311750196640300,9.58064013671875,0.7734079360961914,-1.030184268951416,0.4345296621322632
1761311750215253200,9.599253173828124,1.2188329696655273,-1.2650947570800781,-0.17318737506866455
1761311750233867800,9.61786767578125,1.1558895111083984,-1.1660399436950684,-0.8176107406616211
1761311750252480800,9.636480712890625,0.7852563858032227,-0.8592057228088379,-1.0390255451202393
1761311750271095300,9.65509521484375,0.3237762451171875,-0.5428543090820312,-0.7721917629241943
1761311750289708300,9.673708251953125,-0.2559947967529297,-0.3168172836303711,-0.45341312885284424
1761311750308322800,9.69232275390625,-0.743690013885498,-0.08109807968139648,-0.20894849300384521
1761311750326935800,9.710935791015626,-0.7806096076965332,0.08677864074707031,0.06199800968170166
1761311750345550300,9.72955029296875,-0.6122870445251465,0.12987661361694336,0.28250551223754883
1761311750364163300,9.748163330078125,-0.5673179626464844,0.10668611526489258,0.19129431247711182
1761311750382777900,9.76677783203125,-0.4608464241027832,0.05782318115234375,0.023184657096862793
1761311750401390800,9.785390869140626,-0.05419635772705078,-0.0007143020629882812,-0.29691481590270996
1761311750420005400,9.80400537109375,0.2533884048461914,-0.050786495208740234,-0.38289833068847656
1761311750438618400,9.822618408203125,0.2931175231933594,-0.012867450714111328,-0.21335339546203613
1761311750457233000,9.84123291015625,0.1805553436279297,0.009745597839355469,0.044225215911865234
1761311750475846000,9.859845947265624,0.05881023406982422,0.047315120697021484,0.07535350322723389
1761311750494460400,9.87846044921875,0.02344226837158203,0.05142021179199219,0.10393273830413818
1761311750513073400,9.897073486328125,-0.11080074310302734,0.11116170883178711,0.12862300872802734
1761311750531688000,9.91568798828125,-0.3169670104980469,0.17757415771484375,0.1320110559463501
1761311750550301000,9.934301025390624,-0.4769449234008789,0.24557256698608398,0.08596360683441162
1761311750568915500,9.95291552734375,-0.45151329040527344,0.3606233596801758,-0.03969144821166992
1761311750587528400,9.971528564453125,-0.021856307983398438,0.46492481231689453,-0.11610352993011475
1761311750606143000,9.99014306640625,0.45650482177734375,0.6152515411376953,-0.06486952304840088
1761311750624756000,10.008755859375,0.6642160415649414,0.7446603775024414,0.1224055290222168
1761311750643370500,10.02737060546875,0.7458992004394531,0.6674389839172363,0.6032928228378296
1761311750661983500,10.0459833984375,0.7759933471679688,0.37210941314697266,0.9202846884727478
1761311750680598000,10.064597900390625,0.9710016250610352,-0.03383922576904297,0.8010836839675903
1761311750699211000,10.0832109375,1.1045122146606445,-0.47536420822143555,0.5177899599075317
1761311750717825500,10.101825439453124,0.8573102951049805,-0.7979464530944824,0.28828752040863037
1761311750736438500,10.1204384765625,0.3713998794555664,-0.7767791748046875,0.09130024909973145
1761311750755053000,10.139052978515625,0.31981849670410156,-0.8090229034423828,-0.14861524105072021
1761311750773666000,10.157666015625,0.3248720169067383,-0.8647332191467285,-0.3364506959915161
1761311750792280600,10.176280517578125,0.12260627746582031,-0.8718533515930176,-0.478840708732605
1761311750810893600,10.1948935546875,-0.16581344604492188,-0.9217243194580078,-0.3601560592651367
1761311750829508000,10.213508056640626,-0.15854454040527344,-0.9388408660888672,-0.17503952980041504
1761311750848121000,10.23212109375,-0.020447731018066406,-0.9818367958068848,-0.10546731948852539
1761311750866735600,10.250735595703125,-0.02220630645751953,-0.9741764068603516,-0.3754410743713379
1761311750885348600,10.2693486328125,-0.09928131103515625,-0.8200874328613281,-0.6511871814727783
1761311750903963100,10.287963134765626,-0.2484722137451172,-0.731438159942627,-0.7397468090057373
1761311750922576100,10.306576171875,-0.3656125068664551,-0.7451543807983398,-0.8654422760009766
1761311750941190700,10.325190673828125,-0.37126684188842773,-0.7037649154663086,-0.9793827533721924
1761311750959803600,10.3438037109375,-0.14677190780639648,-0.6187095642089844,-0.784548282623291
1761311750978418200,10.362418212890624,0.19812297821044922,-0.5061564445495605,-0.41094446182250977
1761311750997031200,10.38103125,0.43776607513427734,-0.3683738708496094,-0.11252093315124512
1761311751015645700,10.399645751953125,0.6450366973876953,-0.2859973907470703,0.07644915580749512
1761311751034258700,10.4182587890625,0.7400989532470703,-0.48110532760620117,-0.014984846115112305
1761311751052873200,10.436873291015624,0.6600790023803711,-0.6483588218688965,-0.3086416721343994
1761311751071486200,10.455486328125,0.40838146209716797,-0.7408990859985352,-0.4118804931640625
1761311751090100700,10.474100830078125,-0.050963401794433594,-0.6685924530029297,-0.3088407516479492
1761311751108713700,10.492713623046875,-0.6070637702941895,-0.49377918243408203,-0.2862124443054199
1761311751127328300,10.511328369140625,-1.1227383613586426,-0.22332096099853516,-0.5574307441711426
1761311751145941200,10.529941162109376,-1.3169231414794922,-0.09928226470947266,-0.7481374740600586
1761311751164555800,10.5485556640625,-1.2117271423339844,-0.09460592269897461,-0.7449510097503662
1761311751183168800,10.567168701171875,-0.8582291603088379,-0.03788900375366211,-0.595653772354126
1761311751201783300,10.585783203125,-0.340576171875,0.007085323333740234,-0.35350823402404785
1761311751220396300,10.604396240234376,0.06554317474365234,0.11002254486083984,-0.18108868598937988
1761311751239010800,10.6230107421875,0.34222984313964844,0.24247503280639648,-0.14560890197753906
1761311751257624000,10.6416240234375,0.4334888458251953,0.3193325996398926,-0.37937402725219727
1761311751276238600,10.660238525390625,0.48934173583984375,0.3805694580078125,-0.5627837181091309
1761311751294851600,10.6788515625,0.7785816192626953,0.31936025619506836,-0.4545712471008301
1761311751313466000,10.697466064453126,1.1342582702636719,0.2783489227294922,0.024784088134765625
1761311751332079000,10.7160791015625,1.2005481719970703,0.25489234924316406,0.26373565196990967
1761311751350693600,10.734693603515625,1.0698890686035156,0.19338321685791016,0.03839278221130371
1761311751369306600,10.753306640625,0.8054332733154297,0.051294803619384766,-0.02309870719909668
1761311751387921200,10.771921142578124,0.7598400115966797,-0.06428766250610352,0.040907859802246094
1761311751406534100,10.7905341796875,0.7161340713500977,-0.13458681106567383,0.17932987213134766
1761311751425148700,10.809148681640625,0.401885986328125,-0.045418739318847656,0.16807222366333008
1761311751443761700,10.82776171875,0.10491085052490234,0.0925607681274414,-0.0031919479370117188
1761311751462376200,10.846376220703124,0.20136260986328125,0.1342635154724121,-0.03168606758117676
1761311751480989200,10.8649892578125,0.5075817108154297,0.22354459762573242,-0.11463022232055664
1761311751499603700,10.883603759765625,0.5671596527099609,-0.19305801391601562,0.027299165725708008
1761311751518216700,10.902216796875,0.647425651550293,-0.5505127906799316,0.47254252433776855
1761311751536831200,10.920831298828125,0.8078250885009766,-0.6415414810180664,1.0294348001480103
1761311751555444200,10.9394443359375,0.4805908203125,-0.7510986328125,1.273895263671875
1761311751574058800,10.958058837890626,-0.09757041931152344,-0.455263614654541,0.8756670951843262
1761311751592671700,10.976671630859375,-0.42300844192504883,-0.18847894668579102,0.3374786376953125
