time,seconds_elapsed,z,y,x
1761370116314448100,0.1294482421875,-0.35978904366493225,-0.1740151196718216,0.9504019618034363
1761370116342365000,0.157364990234375,-0.4581354558467865,0.35497862100601196,0.8538880944252014
1761370116360977000,0.175976806640625,-0.46424391865730286,0.5712185502052307,0.7604284882545471
1761370116379587300,0.19458740234375,-0.5063923597335815,0.40751147270202637,0.5167004466056824
1761370116398199600,0.213199462890625,-0.684148907661438,-0.1990598440170288,0.007253811229020357
1761370116416810000,0.23181005859375,-0.8191461563110352,-1.056078553199768,-0.5285356044769287
1761370116435422000,0.250421875,-0.8796200752258301,-2.250361204147339,-0.987892746925354
1761370116454032400,0.269032470703125,-0.6713211536407471,-3.0157530307769775,-1.3702831268310547
1761370116472644600,0.28764453125,-0.28160059452056885,-1.817881464958191,-1.501615285873413
1761370116491255000,0.306255126953125,0.15393351018428802,-0.015194825828075409,-1.2340642213821411
1761370116509867000,0.324866943359375,0.12583453953266144,0.7361472845077515,-0.9445225596427917
1761370116528477400,0.3434775390625,0.23273280262947083,1.2352858781814575,-0.5144860744476318
1761370116547089400,0.36208935546875,0.47829338908195496,0.6261947751045227,-0.2701472043991089
1761370116565700000,0.3807001953125,0.7575269341468811,-0.7494332194328308,-0.27197974920272827
1761370116584312000,0.39931201171875,0.9132930040359497,-1.7012096643447876,-0.35261157155036926
1761370116602922500,0.417922607421875,0.8815289735794067,-1.7494665384292603,-0.4130854606628418
1761370116621534500,0.436534423828125,0.7404232621192932,-1.4788612127304077,-0.6024481058120728
1761370116640145200,0.455145263671875,0.5540384650230408,-1.1611442565917969,-1.2261232137680054
1761370116658757000,0.473757080078125,0.1844758689403534,-0.8606074452400208,-2.472862482070923
1761370116677367600,0.492367431640625,-0.4196520745754242,-0.6199336051940918,-4.015938758850098
1761370116695979500,0.5109794921875,-0.4844018816947937,-0.26930728554725647,-4.787438869476318
1761370116714590200,0.529590087890625,0.020157959312200546,0.3366532027721405,-4.424595832824707
1761370116733202200,0.5482021484375,0.5008947253227234,0.4808131456375122,-3.5553600788116455
1761370116751812600,0.5668125,0.6402443051338196,0.2688491642475128,-2.700173854827881
1761370116770424600,0.585424560546875,-0.856407880783081,0.3103867769241333,-2.086196184158325
1761370116789035300,0.60403515625,-2.7739336490631104,1.0366841554641724,-1.223679780960083
1761370116807647200,0.622647216796875,-2.885718822479248,0.5987066626548767,-0.6097782850265503
1761370116826257700,0.641257568359375,-2.460569143295288,0.43499961495399475,-0.3831539452075958
1761370116844869600,0.65986962890625,-1.784895658493042,0.8357154130935669,-0.3593308925628662
1761370116863480300,0.678480224609375,-0.8008207678794861,1.1258678436279297,-0.3709369897842407
1761370116882092300,0.69709228515625,0.11483928561210632,0.38491013646125793,-0.06184828653931618
1761370116900702700,0.71570263671875,0.2852656841278076,-0.09704835712909698,0.7243884801864624
1761370116919314700,0.734314697265625,0.25350162386894226,0.24991288781166077,1.8966044187545776
1761370116937925400,0.75292529296875,0.12827792763710022,0.3653630316257477,2.982156276702881
1761370116956537300,0.771537353515625,-0.12766708433628082,-0.7011762857437134,3.288801670074463
1761370116975147800,0.790147705078125,-0.6591041684150696,-1.5601038932800293,3.3217873573303223
1761370116993760000,0.808760009765625,-1.1276240348815918,-1.6963227987289429,3.465947389602661
1761370117012370400,0.827370361328125,-1.2345223426818848,-1.5265072584152222,3.523977756500244
1761370117030982400,0.845982421875,-1.502684235572815,-1.479472041130066,3.297964334487915
1761370117049592800,0.8645927734375,-1.7714570760726929,-0.990717887878418,3.0334675312042236
1761370117068205000,0.883205078125,-1.6150801181793213,-1.2930872440338135,2.1146769523620605
1761370117086815500,0.9018154296875,-1.133732557296753,-1.9999139308929443,0.5221980214118958
1761370117105427500,0.920427490234375,-0.5998520255088806,-2.18438982963562,-0.9982771277427673
1761370117124038000,0.939037841796875,-0.10262233763933182,-1.1782480478286743,-2.0672597885131836
1761370117142650000,0.957650146484375,0.4752391576766968,0.15889663994312286,-2.3244266510009766
1761370117161260500,0.976260498046875,0.6726191639900208,0.664678156375885,-2.334200143814087
1761370117179872500,0.99487255859375,0.0397050715982914,0.9267316460609436,-2.2547898292541504
1761370117198483000,1.01348291015625,-0.6627692580223083,0.6408551335334778,-1.6702091693878174
1761370117217095200,1.03209521484375,-0.9260444641113281,-0.41407808661460876,-1.1809204816818237
1761370117235705600,1.05070556640625,-1.3145432472229004,-1.851478099822998,-1.6268389225006104
1761370117254317600,1.069317626953125,-1.41594398021698,-2.5588390827178955,-1.962804913520813
1761370117272928300,1.08792822265625,-1.050046443939209,-1.8062753677368164,-1.5889664888381958
1761370117291540200,1.106540283203125,-0.8313631415367126,-1.1031137704849243,-0.7398887276649475
1761370117310150700,1.125150634765625,-0.5473191738128662,-1.125104308128357,0.2271588295698166
1761370117328763000,1.143762939453125,-0.3787252902984619,-1.3211863040924072,0.5441885590553284
1761370117347373300,1.162373291015625,-0.26877278089523315,-1.18618905544281,0.44095537066459656
1761370117365985300,1.1809853515625,0.0794101431965828,-0.5454102754592896,0.2919086217880249
1761370117384595700,1.199595703125,0.37567105889320374,0.33237725496292114,0.19356222450733185
1761370117403208000,1.2182080078125,0.4721849262714386,0.8644252419471741,0.27175068855285645
1761370117421818400,1.236818359375,0.3127537965774536,0.8864157199859619,0.5118136405944824
1761370117440430300,1.255430419921875,0.09407047927379608,0.5785487294197083,0.9290223121643066
1761370117459040800,1.274040771484375,0.07330167293548584,0.21570543944835663,1.4525184631347656
1761370117477653000,1.292653076171875,0.08796200156211853,0.17722205817699432,1.8037556409835815
1761370117496263400,1.311263427734375,-0.005497625097632408,0.3384857475757599,1.9576891660690308
1761370117514875400,1.32987548828125,-0.18142163753509521,0.10269869863986969,1.9130972623825073
1761370117533486000,1.348486083984375,-0.34818294644355774,-0.3853682577610016,1.842849850654602
1761370117552098000,1.36709814453125,-0.3897205591201782,-1.0334771871566772,2.0077786445617676
1761370117570708500,1.38570849609375,-0.3646758198738098,-1.4384689331054688,2.1806483268737793
1761370117589320700,1.40432080078125,-0.3268032968044281,-1.4299170970916748,2.1317806243896484
1761370117607931100,1.42293115234375,-0.2901524603366852,-1.083566665649414,2.018162965774536
1761370117626543000,1.441543212890625,-0.32252734899520874,-0.42873841524124146,1.8880524635314941
1761370117645153500,1.460153564453125,-0.19119518995285034,-0.2668638825416565,1.6211122274398804
1761370117663765800,1.478765869140625,-0.16615045070648193,-0.5765634775161743,0.8673267364501953
1761370117682376200,1.497376220703125,-0.09956810623407364,-0.19661645591259003,0.14164020121097565
1761370117700988200,1.51598828125,-0.16615045070648193,0.4948626458644867,-0.11987877637147903
1761370117719598600,1.5345986328125,-0.4324798583984375,0.3403182923793793,-0.24693500995635986
1761370117738210800,1.5532109375,-0.4593571424484253,-0.5961105823516846,-0.439351886510849
1761370117756821200,1.5718212890625,-0.5338805317878723,-1.249717116355896,-1.0996778011322021
1761370117775433500,1.59043359375,-0.9553651213645935,-1.1403754949569702,-2.5070698261260986
1761370117794044000,1.6090439453125,-1.4128897190093994,-0.5093702673912048,-3.947524070739746
1761370117812655900,1.62765576171875,-1.290109395980835,0.2450261116027832,-4.531494140625
1761370117831266300,1.646266357421875,-0.7721109390258789,0.6463527679443359,-3.962184429168701
1761370117849878500,1.66487841796875,-0.19302773475646973,0.4936409294605255,-2.444763422012329
1761370117868489000,1.683489013671875,-0.07574506103992462,0.09109259396791458,-0.9341381788253784
1761370117887101200,1.70210107421875,-0.24372805655002594,-0.20516832172870636,0.06528430432081223
1761370117905711600,1.720711669921875,-0.051922015845775604,0.07276718318462372,0.5130353569984436
1761370117924323600,1.739323486328125,0.21318569779396057,0.535178542137146,0.5533512830734253
1761370117942934000,1.75793408203125,0.2858765125274658,0.7850151062011719,0.42873841524124146
1761370117961546200,1.776546142578125,0.12644538283348083,0.9065737128257751,0.36398860812187195
1761370117980156700,1.79515673828125,-0.0922379344701767,0.8864157199859619,0.37315133213996887
1761370117998768600,1.8137685546875,-0.2211267054080963,0.8790855407714844,0.45683738589286804
1761370118017379300,1.83237939453125,-0.1832541823387146,0.8955784440040588,0.6828508973121643
1761370118035991300,1.8509912109375,-0.02076880633831024,0.8406021595001221,1.1104439496994019
1761370118054601700,1.869601806640625,0.015271181240677834,0.6316924095153809,1.5991218090057373
1761370118073214000,1.8882138671875,-0.21990501880645752,0.37147149443626404,1.9198166131973267
1761370118091824400,1.906824462890625,-0.38544461131095886,0.21631628274917603,2.211190700531006
1761370118110436400,1.925436279296875,-0.4190412163734436,-0.14164020121097565,2.399331569671631
1761370118129046800,1.944046875,-0.38666632771492004,-0.37803810834884644,2.1672096252441406
1761370118147659000,1.962658935546875,-0.2877090573310852,0.04222481697797775,1.731064796447754
1761370118166269400,1.98126953125,-0.2235700935125351,0.6542937755584717,1.268653392791748
1761370118184881700,1.999881591796875,-0.3139754831790924,0.7489750981330872,0.8190698027610779
1761370118203492000,2.0184921875,-0.3158080279827118,0.5150206089019775,0.5301390886306763
1761370118222104000,2.03710400390625,0.04214845970273018,0.25357797741889954,0.09888090193271637
1761370118240714500,2.055714599609375,0.6701757907867432,0.37208232283592224,-0.728893518447876
1761370118259326700,2.07432666015625,1.2278794050216675,0.9945356845855713,-2.1130733489990234
1761370118277937200,2.092937255859375,1.8943136930465698,1.6775392293930054,-3.6390461921691895
1761370118296549000,2.111549072265625,2.390932559967041,1.990293025970459,-4.340909481048584
1761370118315159800,2.130159912109375,1.9474574327468872,0.877863883972168,-3.788092851638794
1761370118333771800,2.148771728515625,0.9902597665786743,-1.2790378332138062,-2.632293462753296
1761370118352382200,2.16738232421875,0.021379653364419937,-2.4372806549072266,-2.1967594623565674
1761370118370994400,2.185994384765625,-0.5192201733589172,-1.614469289779663,-2.351303815841675
1761370118389604900,2.20460498046875,-0.546097457408905,0.049554985016584396,-2.4832468032836914
1761370118408216800,2.223216796875,-0.29626092314720154,1.0000332593917847,-2.2492923736572266
1761370118426827500,2.24182763671875,-0.36223241686820984,0.8357154130935669,-1.6854803562164307
1761370118445439500,2.260439453125,-0.6193991303443909,0.018401773646473885,-0.8779402375221252
1761370118464050000,2.2790498046875,-0.684759795665741,-0.49593162536621094,0.08422056585550308
1761370118482662100,2.297662109375,-0.5650337338447571,-0.4995967149734497,0.7573742270469666
1761370118501272600,2.3162724609375,-0.24617144465446472,-0.15507884323596954,1.1532032489776611
1761370118519884500,2.334884521484375,-0.09468132257461548,0.2828986346721649,1.2906439304351807
1761370118538495200,2.3534951171875,-0.26877278089523315,0.39834877848625183,1.2472738027572632
1761370118557107200,2.372107177734375,-0.5558710098266602,0.4966951906681061,1.3443984985351562
1761370118575717600,2.390717529296875,-0.6487197875976562,0.715989351272583,1.5917916297912598
1761370118594329900,2.409329833984375,-0.5454866290092468,0.9187906384468079,1.6968573331832886
1761370118612940300,2.427940185546875,-0.4593571424484253,1.0091960430145264,1.6675366163253784
1761370118631552300,2.44655224609375,-0.4062134325504303,0.9994224905967712,1.8312437534332275
1761370118650163000,2.465162841796875,-0.40254834294319153,1.3043116331100464,2.1867568492889404
1761370118668775000,2.48377490234375,-0.5198310017585754,1.196115255355835,2.3223648071289062
1761370118687385300,2.50238525390625,-0.8105943202972412,0.6848361492156982,2.225851058959961
1761370118705997600,2.52099755859375,-1.0671501159667969,0.6921663284301758,2.258225917816162
1761370118724608000,2.53960791015625,-1.1141854524612427,0.7459208369255066,2.084134578704834
1761370118743220000,2.558219970703125,-1.106244444847107,0.5315134525299072,1.4714547395706177
1761370118761830700,2.57683056640625,-1.1276240348815918,0.6023717522621155,0.9155836701393127
1761370118780442600,2.595442626953125,-0.9248227477073669,1.1533559560775757,0.639480710029602
1761370118799053000,2.614052978515625,-0.5815265774726868,1.3311889171600342,0.2625879645347595
1761370118817665300,2.632665283203125,-0.42698222398757935,0.6872795224189758,-0.11254860460758209
1761370118836275700,2.651275634765625,-0.3139754831790924,0.03245126083493233,-0.125987246632576
1761370118854887700,2.6698876953125,-0.29748260974884033,-0.4586699306964874,0.07322531193494797
1761370118873498400,2.688498291015625,-0.337798535823822,-0.7488223910331726,0.280913382768631
1761370118892110300,2.7071103515625,-0.31092125177383423,-0.9601755142211914,0.10560022294521332
1761370118910720800,2.725720703125,-0.12339114397764206,-0.7726454138755798,-0.34283801913261414
1761370118929333000,2.7443330078125,0.030542362481355667,-0.9241355657577515,-0.9359707236289978
1761370118947943400,2.762943359375,-0.12522368133068085,-1.1049463748931885,-1.3037008047103882
1761370118966555400,2.781555419921875,-0.3011476993560791,-0.7543200254440308,-1.4918416738510132
1761370118985166000,2.800166015625,-0.22601348161697388,-0.2137201875448227,-1.7086925506591797
1761370119003778000,2.818778076171875,0.23945212364196777,0.0067956759594380856,-1.6641006469726562
1761370119022388500,2.837388427734375,0.6756734251976013,0.05688514932990074,-1.3574553728103638
1761370119041000700,2.856000732421875,0.8442672491073608,-0.3456631898880005,-0.7154548764228821
1761370119059611100,2.874611083984375,0.665289044380188,-0.4085804522037506,0.15568970143795013
1761370119078223400,2.893223388671875,0.38544461131095886,-0.21982865035533905,1.1281585693359375
1761370119096833800,2.911833740234375,0.08735115826129913,-0.3969743549823761,1.6168363094329834
1761370119115445800,2.93044580078125,-0.21623992919921875,-0.5405234694480896,1.5600275993347168
1761370119134056200,2.94905615234375,-0.4752391576766968,-0.44400960206985474,1.1043355464935303
1761370119152668400,2.96766845703125,-0.605960488319397,-0.18256697058677673,0.652919352054596
1761370119171278800,2.98627880859375,-0.5955760478973389,0.31527355313301086,0.45439401268959045
1761370119189891000,3.00489111328125,-0.46851983666419983,0.7208760976791382,0.676742434501648
1761370119208501500,3.02350146484375,-0.5033381581306458,1.1429716348648071,1.1538140773773193
1761370119227113500,3.042113525390625,-0.5405998229980469,1.0537878274917603,1.652876377105713
1761370119245724000,3.060723876953125,-0.6981984376907349,0.4453839957714081,1.9094321727752686
1761370119264336100,3.079336181640625,-1.0048437118530273,-0.29740625619888306,2.032823324203491
1761370119282946600,3.097946533203125,-1.5430002212524414,-0.07689040154218674,2.018162965774536
1761370119301558800,3.116558837890625,-2.0548901557922363,0.637190043926239,1.874613881111145
1761370119320169200,3.135169189453125,-2.1490371227264404,0.9982007741928101,1.6956356763839722
1761370119338781200,3.15378125,-1.8343743085861206,0.7349256277084351,1.5807963609695435
1761370119357391600,3.1723916015625,-1.1685508489608765,0.348259299993515,1.3010282516479492
1761370119376003800,3.19100390625,-0.726908266544342,0.34153997898101807,0.7585959434509277
1761370119394614300,3.2096142578125,-0.18997350335121155,0.20959696173667908,-0.08689302206039429
1761370119413226500,3.2282265625,0.11422843486070633,-0.12636902928352356,-0.913369357585907
1761370119431837000,3.2468369140625,0.20219044387340546,-0.7292752861976624,-1.4441956281661987
1761370119450449000,3.265448974609375,0.010995250195264816,-1.1452622413635254,-1.6353908777236938
1761370119469059300,3.284059326171875,-0.2999260127544403,-0.6785749197006226,-1.6750959157943726
1761370119487671600,3.302671630859375,-0.3695625960826874,0.07154548168182373,-1.6726524829864502
1761370119506282000,3.321281982421875,-0.056808795779943466,-0.07200361788272858,-1.7508409023284912
1761370119524894200,3.339894287109375,0.34940463304519653,-1.3089693784713745,-1.6769284009933472
1761370119543504600,3.358504638671875,0.4990622103214264,-1.6975445747375488,-1.2120736837387085
1761370119562116600,3.37711669921875,0.5045598149299622,-1.0432507991790771,-0.5859552621841431
1761370119580727000,3.39572705078125,0.3927747905254364,0.19799086451530457,-0.252432644367218
1761370119599339300,3.41433935546875,0.53143709897995,1.0201913118362427,-0.27625566720962524
1761370119617949700,3.43294970703125,0.6775059700012207,1.1777899265289307,-0.4234698712825775
1761370119636561700,3.451561767578125,0.6994964480400085,0.9365051984786987,-0.2939702570438385
1761370119655172400,3.47017236328125,0.5216635465621948,0.46187686920166016,0.08727480471134186
1761370119673784300,3.488784423828125,0.1966928243637085,-0.352993369102478,0.4769953489303589
1761370119692394800,3.507394775390625,0.011606098152697086,-0.7873057723045349,0.8117396235466003
1761370119711007000,3.526007080078125,-0.11300674080848694,-0.5197546482086182,1.1275477409362793
1761370119729617400,3.544617431640625,-0.2919849753379822,0.09475768357515335,1.4005963802337646
1761370119748229600,3.563229736328125,-0.19058434665203094,0.4258368909358978,1.5526974201202393
1761370119766840000,3.581840087890625,-0.10262233763933182,0.5076904296875,1.6040085554122925
1761370119785452000,3.6004521484375,-0.10140064358711243,0.40812233090400696,1.5930132865905762
1761370119804062500,3.6190625,-0.16431790590286255,0.05688514932990074,1.5111597776412964
1761370119822674700,3.6376748046875,-0.21257483959197998,-0.5338041186332703,1.4170893430709839
1761370119841285000,3.65628515625,-0.23823043704032898,-0.9003124833106995,1.47084379196167
1761370119859897300,3.6748974609375,-0.26694026589393616,-0.6987329125404358,1.4720655679702759
1761370119878507800,3.6935078125,-0.29259583353996277,-0.045737188309431076,1.2191747426986694
1761370119897119700,3.71211962890625,-0.07757759839296341,0.30549997091293335,0.7249993681907654
1761370119915730200,3.730730224609375,0.18936264514923096,0.4679853618144989,0.2882435619831085
1761370119934342400,3.74934228515625,0.41171106696128845,0.4117874205112457,-0.09605573117733002
1761370119952952800,3.767952880859375,0.30969956517219543,-0.3438306450843811,-0.6164975762367249
1761370119971565000,3.78656494140625,0.13560809195041656,-1.2527713775634766,-1.0654703378677368
1761370119990175500,3.805175537109375,0.036039989441633224,-1.6382923126220703,-1.5162756443023682
1761370120008787500,3.823787353515625,-0.14843589067459106,-1.2081794738769531,-1.987238883972168
1761370120027398100,3.842398193359375,-0.05803048983216286,0.0037414394319057465,-2.3763484954833984
1761370120046010000,3.861010009765625,0.37078428268432617,0.9542197585105896,-2.4899661540985107
1761370120064620500,3.87962060546875,0.6084802150726318,0.9493330121040344,-2.025111436843872
1761370120083232800,3.898232666015625,0.4593571424484253,0.4007921516895294,-0.9671239256858826
1761370120101843200,3.91684326171875,-0.043981000781059265,0.18882815539836884,0.11231953650712967
1761370120120455200,3.935455078125,-0.5259394645690918,0.5003602504730225,0.935130774974823
1761370120139065900,3.95406591796875,-0.5283828973770142,0.38002336025238037,0.9772792458534241
1761370120157677800,3.972677734375,-0.11178504675626755,-0.0811663269996643,0.597943127155304
1761370120176288300,3.991288330078125,0.2498365342617035,-0.2149418741464615,0.1984490007162094
1761370120194900500,4.009900390625,0.25716668367385864,0.037948887795209885,0.13858596980571747
1761370120213511000,4.028510986328125,-0.022601349279284477,0.2816769480705261,0.33588963747024536
1761370120232123000,4.047122802734375,-0.17836740612983704,0.6304707527160645,0.7421030402183533
1761370120250733600,4.065733642578125,-0.2339545041322708,0.9444462060928345,1.161755084991455
1761370120269345500,4.084345458984375,-0.2498365342617035,1.0708916187286377,1.491001844406128
1761370120287956000,4.1029560546875,-0.18936264514923096,0.9261208176612854,1.6461570262908936
1761370120306568200,4.121568115234375,-0.10934165865182877,0.7471425533294678,1.6766993999481201
1761370120325178600,4.1401787109375,0.0018325417768210173,0.5919873714447021,1.634550929069519
1761370120343790600,4.15879052734375,0.0916270911693573,0.5736619234085083,1.6376051902770996
1761370120362401300,4.1774013671875,0.15149012207984924,0.2859528660774231,1.5588058233261108
1761370120381013200,4.19601318359375,0.15515519678592682,-0.3823140263557434,1.2967523336410522
1761370120399623700,4.214623779296875,0.10201149433851242,-1.018206000328064,0.9748358726501465
1761370120418236000,4.23323583984375,0.043981000781059265,-1.1324344873428345,0.8239566087722778
1761370120436846300,4.251846435546875,-0.13377554714679718,-0.6645254492759705,0.7408813834190369
1761370120455458300,4.270458251953125,-0.17714570462703705,-0.2259371280670166,0.37315133213996887
1761370120474069000,4.289069091796875,0.1325538605451584,-0.20394663512706757,-0.32634514570236206
1761370120492681000,4.307680908203125,0.31092125177383423,-1.079290747642517,-1.3696722984313965
1761370120511291400,4.32629150390625,0.12888877093791962,-1.915006160736084,-2.308544397354126
1761370120529903600,4.344903564453125,0.03420744836330414,-1.8520889282226562,-2.8925907611846924
1761370120548514000,4.36351416015625,-0.2107423096895218,-0.8074637055397034,-3.166250467300415
1761370120567126000,4.3821259765625,-0.5815265774726868,0.5302917957305908,-3.1448707580566406
1761370120585736700,4.40073681640625,-0.5851916670799255,0.3000023663043976,-3.1699154376983643
1761370120604348700,4.4193486328125,-0.30969956517219543,-1.0420290231704712,-2.8760979175567627
1761370120622959000,4.437958984375,-0.3500154912471771,-1.8429261445999146,-2.033663272857666
1761370120641571300,4.4565712890625,-0.5375455617904663,-1.6828842163085938,-1.0917367935180664
1761370120660181800,4.475181640625,-0.49112120270729065,-0.828843355178833,-0.45645561814308167
1761370120678793700,4.493793701171875,0.03787253051996231,-0.24792763590812683,-0.2829749882221222
1761370120697404400,4.512404296875,0.6720083355903625,0.022677704691886902,-0.12843063473701477
1761370120716016400,4.531016357421875,1.03424072265625,0.062993623316288,0.13919681310653687
1761370120734626800,4.549626708984375,1.061728835105896,-0.08544225990772247,0.47882789373397827
1761370120753239000,4.568239013671875,0.8558733463287354,-0.09216158092021942,0.8929823637008667
1761370120771849500,4.586849365234375,0.6384117603302002,-0.006642963737249374,1.2191747426986694
1761370120790461400,4.60546142578125,0.4434750974178314,-0.1349208950996399,1.3431767225265503
1761370120809071900,4.62407177734375,0.265718549489975,-0.23387815058231354,1.3266838788986206
1761370120827684000,4.64268408203125,0.08551861345767975,-0.30901235342025757,1.2228398323059082
1761370120846294500,4.66129443359375,-0.09040539711713791,-0.14408360421657562,1.232613444328308
1761370120864906800,4.67990673828125,-0.1435490995645523,0.2340308576822281,1.4036506414413452
1761370120883517200,4.69851708984375,-0.051922015845775604,0.46432027220726013,1.5740770101547241
1761370120902129200,4.717129150390625,-0.0012216945178806782,0.16989189386367798,1.4732872247695923
1761370120920739600,4.735739501953125,-0.12705622613430023,-0.3694862425327301,1.1892433166503906
1761370120939351800,4.754351806640625,-0.17470231652259827,-0.253425270318985,1.1324344873428345
1761370120957962200,4.772962158203125,-0.023212196305394173,-0.07566870748996735,1.0255361795425415
1761370120976574500,4.791574462890625,-0.004275931045413017,0.10880716890096664,0.8728243708610535
1761370120995185000,4.810184814453125,0.08796200156211853,0.5168531537055969,0.616268515586853
1761370121013796900,4.828796875,0.7251520752906799,1.0049201250076294,0.3047364354133606
1761370121032407300,4.8474072265625,1.3439403772354126,-0.02680092304944992,-0.32695600390434265
1761370121051019500,4.86601953125,0.8619818091392517,-1.69387948513031,-1.209019422531128
1761370121069630000,4.8846298828125,-0.25472331047058105,-1.8258224725723267,-1.7551169395446777
1761370121088242200,4.9032421875,-0.7977665066719055,-0.699343740940094,-2.0354957580566406
1761370121106852600,4.9218525390625,-0.555260181427002,0.6836144328117371,-2.3421411514282227
1761370121125464600,4.940464599609375,-0.3384093940258026,1.1484692096710205,-2.8003528118133545
1761370121144075000,4.959074951171875,-0.5076140761375427,0.7349256277084351,-2.891979932785034
1761370121162687200,4.977687255859375,-0.7959339618682861,0.13690614700317383,-2.44781756401062
1761370121181297700,4.996297607421875,-0.809983491897583,0.00007635590736754239,-1.7117466926574707
1761370121199910000,5.014909912109375,-0.5015056133270264,0.1674485057592392,-1.0465340614318848
1761370121218520300,5.033520263671875,-0.09529217332601547,0.5449520945549011,-0.5303681492805481
1761370121237132300,5.05213232421875,0.018936265259981155,1.1539667844772339,-0.10644013434648514
1761370121255742700,5.07074267578125,-0.04092676565051079,1.077610969543457,0.05978667363524437
1761370121274355000,5.08935498046875,-0.19424942135810852,0.5083012580871582,0.19661645591259003
1761370121292965400,5.10796533203125,-0.38910970091819763,-0.012751436792314053,0.5606814026832581
1761370121311577300,5.126577392578125,-0.6474980711936951,-0.1599656194448471,1.0866209268569946
1761370121330188000,5.14518798828125,-0.8228112459182739,-0.06100837141275406,1.4079265594482422
1761370121348800000,5.163800048828125,-0.7977665066719055,0.23464170098304749,1.3981530666351318
1761370121367410400,5.182410400390625,-0.5809157490730286,0.5718293786048889,1.239332675933838
1761370121386022700,5.201022705078125,-0.38849884271621704,0.7251520752906799,1.1513707637786865
1761370121404633000,5.219633056640625,-0.3665083646774292,0.6084802150726318,1.2649883031845093
1761370121423245000,5.2382451171875,-0.4819584786891937,0.4576009511947632,1.445188283920288
1761370121441855700,5.256855712890625,-0.4599680006504059,-0.021914144977927208,1.6033977270126343
1761370121460467700,5.2754677734375,-0.3915531039237976,-0.7085064649581909,1.588126540184021
1761370121479078100,5.294078125,-0.4709632396697998,-0.7891383171081543,1.374329924583435
1761370121497690400,5.3126904296875,-0.4947862923145294,-0.37803810834884644,0.9644514918327332
1761370121516300800,5.33130078125,-0.4355340898036957,0.05199837312102318,0.15813308954238892
1761370121534912800,5.349912841796875,-0.09407047927379608,0.6536829471588135,-0.6739172339439392
1761370121553523500,5.3685234375,0.5106683373451233,0.7453100085258484,-1.421594262123108
1761370121572135400,5.387135498046875,0.6775059700012207,0.036727190017700195,-1.9304300546646118
1761370121590745900,5.405745849609375,0.20707722008228302,-0.6510868072509766,-2.554105043411255
1761370121609358000,5.424358154296875,-0.4056025743484497,-0.3438306450843811,-3.20717716217041
1761370121627968500,5.442968505859375,-0.39949411153793335,0.3256579339504242,-3.4362449645996094
1761370121646580500,5.46158056640625,0.10934165865182877,-0.2638096511363983,-3.042248487472534
1761370121665191200,5.480191162109375,0.19119518995285034,-1.3358465433120728,-1.9976232051849365
1761370121683803100,5.49880322265625,-0.29626092314720154,-2.464157819747925,-0.752105712890625
1761370121702413600,5.51741357421875,-0.8722898960113525,-2.7274329662323,0.36093437671661377
1761370121721025800,5.53602587890625,-1.0915840864181519,-2.0035789012908936,0.8355627059936523
1761370121739636200,5.55463623046875,-0.9535325765609741,-1.2155096530914307,0.3193967640399933
1761370121758248200,5.573248291015625,-0.8472451567649841,-0.643756628036499,-0.7710419297218323
1761370121776858600,5.591858642578125,-0.813648521900177,0.14545799791812897,-1.4057122468948364
1761370121795470800,5.610470947265625,-0.767224133014679,0.7636354565620422,-1.099066972732544
1761370121814081300,5.629081298828125,-0.916270911693573,0.8491540551185608,-0.06368082761764526
1761370121832693500,5.647693603515625,-1.2522368431091309,0.4136199355125427,0.9430717825889587
1761370121851304000,5.666303955078125,-1.475196123123169,-0.006642963737249374,1.5239875316619873
1761370121869916000,5.684916015625,-1.3444747924804688,-0.17829103767871857,1.7139610052108765
1761370121888526300,5.7035263671875,-0.8643488883972168,0.12102411687374115,1.9369202852249146
1761370121907138600,5.722138671875,-0.49051034450531006,0.5168531537055969,2.2936551570892334
1761370121925749000,5.7407490234375,-0.2596100866794586,0.48569992184638977,2.465914011001587
1761370121944361000,5.75936083984375,-0.07207997888326645,0.16500511765480042,2.385282278060913
1761370121962971600,5.7779716796875,-0.10262233763933182,-0.1587439328432083,1.9906748533248901
1761370121981583600,5.79658349609375,-0.2113531529903412,-0.41041299700737,1.4329713582992554
1761370122000194000,5.815194091796875,0.012827792204916477,-0.13797512650489807,1.190464973449707
1761370122018806300,5.83380615234375,0.4422534108161926,0.5895439386367798,1.4128133058547974
1761370122037416700,5.852416748046875,0.8149465918540955,0.8693119883537292,1.443355679512024
1761370122056028700,5.871028564453125,0.8693119883537292,0.5339568853378296,0.7066739201545715
1761370122074639400,5.889639404296875,0.4575245976448059,-0.250981867313385,-0.6317687630653381
1761370122093251300,5.908251220703125,-0.053143709897994995,-0.62054443359375,-1.8052064180374146
1761370122111861800,5.92686181640625,-0.062306419014930725,-0.6388698816299438,-2.8376145362854004
1761370122130474000,5.945473876953125,0.1960819661617279,-1.0853992700576782,-3.37393856048584
1761370122149084400,5.96408447265625,0.47707170248031616,-0.5606814026832581,-2.6603925228118896
1761370122167696400,5.9826962890625,0.5967977643013,-0.20272493362426758,-1.3079767227172852
1761370122186306800,6.001306884765625,0.3127537965774536,-0.40186113119125366,-0.24021568894386292
1761370122204919000,6.0199189453125,-0.18019993603229523,-0.6382590532302856,0.05062396824359894
1761370122223529500,6.038529541015625,-0.624285876750946,-0.597943127155304,-0.2585411071777344
1761370122242141400,6.057141357421875,-0.8148702383041382,-0.05673243850469589,-0.5865660905838013
1761370122260752000,6.075751953125,-0.7715001106262207,0.7911235690116882,-0.6586460471153259
1761370122279364000,6.094364013671875,-0.7336275577545166,1.4698512554168701,-0.46073153614997864
1761370122297974500,6.112974609375,-0.8112051486968994,1.657381296157837,-0.03924693539738655
1761370122316586800,6.131586669921875,-1.0085088014602661,1.4356437921524048,0.49226653575897217
1761370122335197200,6.150197265625,-1.1783243417739868,1.1478583812713623,1.001102328300476
1761370122353809200,6.16880908203125,-1.226581335067749,0.8485432267189026,1.2979741096496582
1761370122372419600,6.187419677734375,-1.1483927965164185,0.27801185846328735,1.3126343488693237
1761370122391031800,6.20603173828125,-1.037218689918518,-0.4079696238040924,1.3443984985351562
1761370122409642200,6.224642333984375,-1.09219491481781,-0.6987329125404358,1.698078989982605
1761370122428254500,6.24325439453125,-1.1361758708953857,-0.6468108892440796,2.196530342102051
1761370122446865000,6.261864990234375,-1.009730577468872,-0.6382590532302856,2.5080626010894775
1761370122465476900,6.280476806640625,-0.897334635257721,-1.3572262525558472,2.3577940464019775
1761370122484087300,6.29908740234375,-0.9883508682250977,-1.9883078336715698,1.9644083976745605
1761370122502699500,6.317699462890625,-1.1318999528884888,-2.473320484161377,1.11105477809906
1761370122521310000,6.33631005859375,-1.2406307458877563,-2.8648736476898193,-0.037414394319057465
1761370122539922000,6.354921875,-1.1490037441253662,-2.4232311248779297,-0.724006712436676
1761370122558532400,6.373532470703125,-0.7886037826538086,-1.8753011226654053,-1.1375503540039062
1761370122577144600,6.39214453125,-0.6193991303443909,-1.1538140773773193,-1.7960436344146729
1761370122595755000,6.410755126953125,-0.4459185004234314,0.30244573950767517,-2.1307878494262695
1761370122614367000,6.429366943359375,-0.04581354558467865,1.4350329637527466,-2.091082811355591
1761370122632977700,6.447977783203125,0.2730487287044525,-0.09277242422103882,-2.761869430541992
1761370122651589600,6.466589599609375,0.2229592502117157,-3.0414085388183594,-4.320751667022705
1761370122670200000,6.485199951171875,0.1441599577665329,-4.608919143676758,-5.380037307739258
1761370122688812300,6.503812255859375,0.208298921585083,-3.952181816101074,-5.084311008453369
1761370122707422700,6.522422607421875,0.16309621930122375,-1.832541823387146,-4.1338324546813965
1761370122726034700,6.54103466796875,0.26816195249557495,0.8717554211616516,-2.734992265701294
1761370122744645000,6.55964501953125,0.6023717522621155,2.7691233158111572,-1.1289983987808228
1761370122763257300,6.57825732421875,0.8351045846939087,3.532071590423584,0.39086589217185974
1761370122781867800,6.59686767578125,0.8864157199859619,3.401961088180542,1.6272207498550415
1761370122800479700,6.615479736328125,0.6579588651657104,3.2358107566833496,2.196530342102051
1761370122819090400,6.63409033203125,0.21990501880645752,3.3518717288970947,2.069474220275879
1761370122837702400,6.652702392578125,-0.3164188861846924,2.253568172454834,1.4525184631347656
1761370122856312800,6.671312744140625,-0.6707102656364441,1.0892170667648315,1.046915888786316
1761370122874925000,6.689925048828125,-0.7886037826538086,0.9114604592323303,0.8722135424613953
1761370122893535500,6.708535400390625,-0.6340594291687012,0.9920923113822937,0.8233457207679749
1761370122912147500,6.7271474609375,-0.29442837834358215,1.3965495824813843,0.9082534909248352
1761370122930758000,6.7457578125,0.06902574002742767,1.3586770296096802,1.2631558179855347
1761370122949370000,6.7643701171875,0.15393351018428802,0.4539358615875244,1.4671787023544312
1761370122967980500,6.78298046875,-0.03542914241552353,-0.11720632016658783,1.7469468116760254
1761370122986592500,6.801592529296875,-0.4367557764053345,-0.4470638334751129,2.199584722518921
1761370123005203200,6.820203125,-0.9822424054145813,-0.7097281813621521,2.696279764175415
1761370123023815200,6.838815185546875,-1.2613996267318726,-0.46661093831062317,2.6235125064849854
1761370123042425600,6.857425537109375,-0.7262973785400391,-0.4776062071323395,1.8544559478759766
1761370123061037800,6.876037841796875,0.06169557198882103,-0.26930728554725647,0.9424609541893005
1761370123079648300,6.894648193359375,0.34696123003959656,-0.6455891728401184,-0.14492350816726685
1761370123098260200,6.91326025390625,0.10078980028629303,-1.4054832458496094,-1.589577317237854
1761370123116870700,6.93187060546875,-0.395218163728714,-1.2649883031845093,-2.6286284923553467
1761370123135483000,6.95048291015625,-0.4446968138217926,-0.7989118695259094,-3.1039440631866455
1761370123154093300,6.96909326171875,0.04337015375494957,-0.7683694958686829,-3.021479606628418
1761370123172705300,6.987705322265625,0.46851983666419983,-0.33588963747024536,-2.2437946796417236
1761370123191316000,7.00631591796875,0.3683409094810486,0.5644991993904114,-1.1589299440383911
1761370123209928000,7.024927978515625,0.2376195788383484,1.0061417818069458,-0.23838314414024353
1761370123228538400,7.043538330078125,0.09040539711713791,0.8870265483856201,0.22043950855731964
1761370123247150600,7.062150634765625,-0.021379653364419937,0.4942517876625061,0.3853682577610016
1761370123265761000,7.080760986328125,-0.10995250940322876,-0.03474193811416626,0.3963635265827179
1761370123284373000,7.099373046875,-0.2486148327589035,-0.3939201235771179,0.5454102754592896
1761370123302983400,7.1179833984375,-0.5399889945983887,-0.07933378964662552,1.032866358757019
1761370123321595600,7.136595703125,-0.8441908955574036,0.6194754838943481,1.6186689138412476
1761370123340206000,7.1552060546875,-1.0213366746902466,1.5413203239440918,2.073139190673828
1761370123358818300,7.173818359375,-1.096470832824707,2.0929155349731445,2.370621919631958
1761370123377428700,7.1924287109375,-1.0653176307678223,1.5773603916168213,2.5923593044281006
1761370123396040700,7.211040771484375,-0.8680139780044556,0.7086591720581055,2.82883358001709
1761370123414651100,7.229651123046875,-0.5821374654769897,0.3268796503543854,3.123872995376587
1761370123433263400,7.248263427734375,-0.41110020875930786,0.7306496500968933,3.4708340167999268
1761370123451873800,7.266873779296875,-0.4049917459487915,0.9047411680221558,3.7151730060577393
1761370123470485800,7.28548583984375,-0.6022953987121582,-0.6272637844085693,3.4488437175750732
1761370123489096400,7.304096435546875,-1.2736165523529053,-2.299229145050049,2.657109260559082
1761370123507708400,7.32270849609375,-1.5289506912231445,-1.7451906204223633,1.7652722597122192
1761370123526318800,7.34131884765625,-1.1551121473312378,-0.5173112750053406,0.7097281813621521
1761370123544931000,7.35993115234375,-0.9174925684928894,0.19127154350280762,-0.24876753985881805
1761370123563541500,7.37854150390625,-0.8307522535324097,0.1674485057592392,-1.006829023361206
1761370123582153500,7.397153564453125,-0.7824953198432922,-0.8355627059936523,-1.6109569072723389
1761370123600764000,7.415763916015625,-0.4611896872520447,-1.4091482162475586,-1.8308619260787964
1761370123619376000,7.434376220703125,-0.17653486132621765,-1.6407357454299927,-1.8876707553863525
1761370123637986600,7.452986572265625,-0.2999260127544403,-1.3896011114120483,-1.7661120891571045
1761370123656598500,7.4715986328125,-0.3365768492221832,-1.1415971517562866,-1.68242609500885
1761370123675209000,7.490208984375,0.07330167293548584,-1.7012096643447876,-1.6708199977874756
1761370123693821200,7.5088212890625,0.4349232614040375,-2.1532366275787354,-1.3739482164382935
1761370123712431600,7.527431640625,0.3255815804004669,-1.9595980644226074,-0.7759287357330322
1761370123731043800,7.5460439453125,-0.13744063675403595,-1.4170893430709839,-0.1510319858789444
1761370123749654300,7.564654296875,-0.6548282504081726,-0.7384379506111145,0.37498384714126587
1761370123768266200,7.583266357421875,-0.6658235192298889,0.0489441379904747,0.6138251423835754
1761370123786876700,7.601876708984375,-0.4459185004234314,0.4007921516895294,0.5588488578796387
1761370123805489000,7.620489013671875,-0.18081079423427582,0.10758547484874725,0.5478536486625671
1761370123824099300,7.639099365234375,0.020157959312200546,-0.227769672870636,0.7311078310012817
1761370123842711300,7.657711181640625,-0.06719319522380829,-0.5105919241905212,1.0786799192428589
1761370123861321700,7.67632177734375,-0.2608317732810974,-0.5276956558227539,1.43480384349823
1761370123879934000,7.694933837890625,-0.3268032968044281,-0.2149418741464615,1.6821969747543335
1761370123898544400,7.71354443359375,-0.2107423096895218,0.3006131947040558,1.8501800298690796
1761370123917156400,7.73215625,-0.08857285231351852,0.6176429390907288,1.9039345979690552
1761370123935767000,7.75076708984375,-0.07452336698770523,0.4160633385181427,1.9302009344100952
1761370123954379000,7.76937890625,-0.24617144465446472,0.02023431472480297,2.116509437561035
1761370123972989400,7.787989501953125,-0.4092676639556885,0.2193705290555954,2.4066617488861084
1761370123991601700,7.8066015625,-0.3946073353290558,0.29511559009552,2.3083155155181885
1761370124010212000,7.825212158203125,-0.3029802441596985,-0.7653152346611023,1.7157936096191406
1761370124028824000,7.843823974609375,-0.17653486132621765,-1.0621870756149292,1.508716344833374
1761370124047434500,7.8624345703125,-0.20035789906978607,-0.4232407808303833,1.5728553533554077
1761370124066046700,7.881046630859375,-0.15943112969398499,0.849764883518219,1.5239875316619873
1761370124084657200,7.8996572265625,-0.0653606578707695,1.2475028038024902,1.060354471206665
1761370124103269000,7.91826904296875,-0.23028941452503204,0.2566322088241577,-0.0850604772567749
1761370124121879800,7.9368798828125,-0.47951510548591614,-0.7170583009719849,-1.468018651008606
1761370124140491800,7.95549169921875,-0.7140804529190063,-0.8807653784751892,-3.015981912612915
1761370124159102200,7.974102294921875,-0.7513421177864075,-0.6712448000907898,-4.353126525878906
1761370124177714400,7.99271435546875,-0.4062134325504303,-0.5331932902336121,-4.7849955558776855
1761370124196324900,8.011324951171876,-0.05619794875383377,-0.9314656853675842,-4.094127178192139
1761370124214936800,8.029936767578125,-0.08735115826129913,-1.2845354080200195,-2.6989521980285645
1761370124233547300,8.04854736328125,-0.4862344264984131,-0.9785009622573853,-1.333632230758667
1761370124252159500,8.067159423828125,-1.1771026849746704,-0.3719296157360077,-0.6763606071472168
1761370124270770000,8.08577001953125,-1.8111621141433716,0.1668376624584198,-0.5914528369903564
1761370124289382100,8.104382080078125,-1.9595980644226074,0.5211290717124939,-0.5847335457801819
1761370124307992600,8.12299267578125,-1.8331526517868042,0.5461738109588623,-0.5883986353874207
1761370124326604500,8.1416044921875,-1.6083608865737915,0.5131880640983582,-0.5150969624519348
1761370124345215000,8.160215087890625,-1.2840009927749634,0.31649523973464966,-0.30191126465797424
1761370124363827200,8.1788271484375,-0.9199360013008118,-0.0952158197760582,0.13247749209403992
1761370124382437600,8.197437744140625,-0.6951441764831543,-0.47088688611984253,0.6614712476730347
1761370124401049600,8.216049560546875,-0.6175665855407715,-0.6052733063697815,1.1550358533859253
1761370124419660300,8.234660400390625,-0.7146912813186646,-0.45500484108924866,1.5062730312347412
1761370124438272300,8.253272216796875,-0.916270911693573,-0.11048699915409088,1.7640504837036133
1761370124456882700,8.271882568359375,-0.9608627557754517,0.35558944940567017,2.052981376647949
1761370124475495000,8.290494873046875,-0.8515210747718811,0.46004435420036316,2.2686104774475098
1761370124494105300,8.309105224609375,-0.92054682970047,-0.07505785673856735,2.1690423488616943
1761370124512717300,8.32771728515625,-0.9718579649925232,-0.6150468587875366,1.8349088430404663
1761370124531327700,8.34632763671875,-0.896723747253418,-0.5759525895118713,1.3871577978134155
1761370124549940000,8.36493994140625,-0.6273401379585266,0.3409291207790375,0.8031877875328064
1761370124568550400,8.38355029296875,-0.2748812735080719,1.1991695165634155,0.027411770075559616
1761370124587162400,8.402162353515624,0.06902574002742767,1.0360733270645142,-0.5780141949653625
1761370124605773000,8.42077294921875,0.3390202224254608,-0.43973368406295776,-1.0098832845687866
1761370124624385000,8.439385009765624,0.4349232614040375,-2.132467746734619,-1.6647114753723145
1761370124642995500,8.457995361328125,-0.14782503247261047,-2.6981122493743896,-2.966503381729126
1761370124661607700,8.476607666015624,-0.4477510452270508,-1.6779974699020386,-4.343964099884033
1761370124680218000,8.495218017578125,-0.4459185004234314,-0.20333577692508698,-4.874790191650391
1761370124698830000,8.513830078125,-0.5161659121513367,0.9041302800178528,-4.176591873168945
1761370124717440500,8.5324404296875,-0.9083298444747925,0.5577799081802368,-2.9481780529022217
1761370124736052700,8.551052734375,-1.332257866859436,-0.9620080590248108,-1.562089204788208
1761370124754663200,8.5696630859375,-1.461146593093872,-2.2601349353790283,-0.22311195731163025
1761370124773275100,8.588275146484374,-1.2009257078170776,-2.4336154460906982,0.9491803050041199
1761370124791885600,8.606885498046875,-0.9297095537185669,-1.7354170083999634,1.708463430404663
1761370124810497800,8.625497802734374,-0.730573296546936,-0.9797226190567017,2.015108823776245
1761370124829108200,8.644108154296875,-0.6792621612548828,-0.5264739990234375,1.990064024925232
1761370124847720400,8.662720458984374,-0.7287407517433167,-0.46783265471458435,1.7726024389266968
1761370124866330600,8.68133056640625,-0.8179244995117188,-0.6504759788513184,1.5911808013916016
1761370124884942800,8.69994287109375,-0.7959339618682861,-0.8074637055397034,1.5740770101547241
1761370124903553300,8.71855322265625,-0.5656445622444153,-0.8135721683502197,1.7854301929473877
1761370124922165500,8.73716552734375,-0.22784602642059326,-0.7127823829650879,2.165987968444824
1761370124940776000,8.75577587890625,-0.18630841374397278,-0.6382590532302856,2.4872937202453613
1761370124959388000,8.774387939453124,-0.41293275356292725,-0.5301390886306763,2.5160036087036133
1761370124977998300,8.792998291015625,-0.6047387719154358,-0.1721825748682022,2.0016701221466064
1761370124996610600,8.811610595703126,-0.7959339618682861,-0.03290939703583717,0.8581640720367432
1761370125015221000,8.830220947265625,-1.1202938556671143,-0.8441145420074463,-0.7844805717468262
1761370125033833000,8.8488330078125,-1.235133171081543,-0.8966473937034607,-1.5486505031585693
1761370125052443400,8.867443359375,-0.8429692387580872,0.8479323387145996,-0.9457442760467529
1761370125071055600,8.8860556640625,-0.12827792763710022,2.001288414001465,0.22288289666175842
1761370125089666000,8.904666015625,0.10995250940322876,1.3879976272583008,0.9760575890541077
1761370125108278300,8.9232783203125,-0.5253286361694336,-0.8123505115509033,1.0585219860076904
1761370125126888700,8.941888671875,-1.456870675086975,-2.8447155952453613,0.33955472707748413
1761370125145500700,8.960500732421876,-1.9198929071426392,-3.5508551597595215,-0.9585720896720886
1761370125164111000,8.979111083984375,-1.1477819681167603,-2.854489326477051,-2.5260062217712402
1761370125182723300,8.997723388671876,0.6536829471588135,-2.5563957691192627,-4.519277095794678
1761370125201333800,9.016333740234375,1.3463836908340454,-0.29923880100250244,-4.94687032699585
1761370125219945700,9.03494580078125,0.72026526927948,0.061771929264068604,-3.692800760269165
1761370125238556200,9.05355615234375,-0.7036960124969482,-0.2882435619831085,-1.5382660627365112
1761370125257168400,9.07216845703125,-1.8435369729995728,-1.0029348134994507,0.41041299700737
1761370125275778800,9.09077880859375,-2.468510150909424,-1.8111621141433716,1.0853992700576782
1761370125294390800,9.109390869140626,-2.2815909385681152,-1.4800828695297241,0.8068528771400452
1761370125313001500,9.12800146484375,-1.7005987167358398,-0.718280017375946,0.31328830122947693
1761370125331613400,9.146613525390626,-1.0763128995895386,-0.3798706531524658,-0.045355409383773804
1761370125350224000,9.165223876953124,-0.5680879354476929,0.023899398744106293,0.2375432252883911
1761370125368836000,9.183836181640626,-0.32130566239356995,0.3109976053237915,1.3120235204696655
1761370125387446500,9.202446533203124,-0.32191649079322815,-0.5234197378158569,2.3437445163726807
1761370125406058500,9.22105859375,-0.2504473626613617,-1.1037245988845825,3.0530145168304443
1761370125424669000,9.2396689453125,-0.288930743932724,-0.8795437216758728,3.2991859912872314
1761370125443281200,9.25828125,-0.3243598937988281,-0.31206658482551575,3.0652315616607666
1761370125461891600,9.2768916015625,-0.27121618390083313,0.4148416519165039,2.552654266357422
1761370125480503600,9.295503662109375,-0.11300674080848694,1.0116394758224487,2.136056423187256
1761370125499114200,9.3141142578125,-0.3133646547794342,0.33237725496292114,1.2888113260269165
1761370125517726200,9.332726318359375,-0.7922688722610474,-0.7793647646903992,-0.025197450071573257
1761370125536336600,9.351336669921874,-0.2241809368133545,-1.1452622413635254,-0.8443436026573181
1761370125554948900,9.369948974609375,0.8045622110366821,-0.227769672870636,-0.7032378911972046
1761370125573559300,9.388559326171874,0.9346726536750793,0.004963133949786425,-0.5780141949653625
1761370125592171300,9.407171142578125,0.29748260974884033,-0.41407808661460876,-0.8602256774902344
1761370125610781700,9.42578173828125,-0.3054236173629761,-1.0145409107208252,-1.26399564743042
1761370125629394000,9.444393798828125,-0.07635590434074402,-2.0212936401367188,-1.3928844928741455
1761370125648004400,9.46300439453125,0.3530697226524353,-1.9626522064208984,-1.3892194032669067
1761370125666616300,9.4816162109375,0.07024743407964706,0.0165692325681448,-1.4386980533599854
1761370125685227000,9.50022705078125,-0.4196520745754242,1.964026689529419,-1.1882506608963013
1761370125703839000,9.5188388671875,-0.6865923404693604,1.893168330192566,-0.7154548764228821
1761370125722449400,9.537449462890624,-0.7226322889328003,0.2566322088241577,-0.3208475112915039
1761370125741061600,9.5560615234375,-0.5955760478973389,-1.2375001907348633,0.027411770075559616
1761370125759672000,9.574672119140626,-0.6255075931549072,-1.5008517503738403,0.20333577692508698
1761370125778284000,9.593283935546875,-0.7238540053367615,-0.04023956134915352,0.3963635265827179
1761370125796894500,9.61189453125,-0.8020424246788025,1.29331636428833,0.6297071576118469
1761370125815506700,9.630506591796875,-0.7849387526512146,1.389830231666565,0.8593857288360596
1761370125834117000,9.6491171875,-0.684759795665741,0.6292490363121033,1.0994486808776855
1761370125852729300,9.667729248046875,-0.8148702383041382,0.6781167984008789,1.3010282516479492
1761370125871339800,9.68633984375,-0.8710681796073914,1.3592878580093384,1.217953085899353
1761370125889951700,9.70495166015625,-0.41354358196258545,1.7483975887298584,1.0982270240783691
1761370125908562200,9.723562255859376,0.3640649616718292,1.2810994386672974,1.2008494138717651
1761370125927174400,9.74217431640625,0.8974109888076782,0.43683215975761414,1.3804384469985962
1761370125945784800,9.760784912109376,0.8858048915863037,-0.0695602297782898,1.443355679512024
1761370125964396800,9.779396728515625,0.46546560525894165,-0.3603235185146332,1.070128083229065
1761370125983007200,9.79800732421875,0.30664533376693726,-0.6095492243766785,0.19234053790569305
1761370126001619500,9.816619384765625,0.337798535823822,-0.6333722472190857,-1.1546540260314941
1761370126020230000,9.83522998046875,0.18814095854759216,-0.04695888236165047,-2.488133668899536
1761370126038842000,9.853842041015625,0.39643988013267517,-0.4769953489303589,-3.0697364807128906
1761370126057452500,9.87245263671875,0.6713975071907043,-1.6150801181793213,-2.5620460510253906
1761370126076064500,9.891064453125,0.10934165865182877,-1.7164808511734009,-1.5718626976013184
1761370126094675000,9.909675048828126,-0.6890357136726379,-0.48188212513923645,-0.9243646264076233
1761370126113287200,9.928287109375,-1.2039799690246582,0.9157363772392273,-1.0508099794387817
1761370126131897600,9.946897705078126,-1.3573026657104492,1.7575602531433105,-1.4093773365020752
1761370126150509600,9.965509521484375,-1.4868022203445435,1.0782217979431152,-1.417318344116211
1761370126169120000,9.9841201171875,-1.1636639833450317,-0.3419981002807617,-0.8180772066116333
1761370126187732200,10.002732177734375,-0.5338805317878723,-1.0114866495132446,0.27175068855285645
1761370126206342700,10.0213427734375,-0.40010493993759155,-1.1984059810638428,1.1813021898269653
1761370126224955000,10.039954833984375,-0.633448600769043,-0.829454243183136,1.7524443864822388
1761370126243565300,10.0585654296875,-0.971247136592865,-0.2760266065597534,1.9656301736831665
1761370126262177300,10.07717724609375,-1.1624423265457153,0.056274302303791046,1.811085820198059
1761370126280787700,10.09578759765625,-1.0231691598892212,0.3097759187221527,1.6180580854415894
1761370126299400000,10.11439990234375,-0.7708892226219177,0.24746949970722198,1.4213652610778809
1761370126318010400,10.13301025390625,-0.4813476502895355,-0.2271588295698166,1.3175212144851685
1761370126336622300,10.151622314453125,-0.19974705576896667,-0.2546469569206238,1.4024289846420288
1761370126355232800,10.170232666015625,-0.031153209507465363,0.2871745824813843,1.5215442180633545
1761370126373845000,10.188844970703125,-0.03665083646774292,0.7508076429367065,1.245441198348999
1761370126392455400,10.207455322265625,-0.32130566239356995,0.25418880581855774,0.45500484108924866
1761370126411067400,10.2260673828125,-0.7000309824943542,-1.0554677248001099,-0.7820371985435486
1761370126429678000,10.244677978515625,-0.8130376935005188,-1.8551430702209473,-1.584079623222351
