time,seconds_elapsed,z,y,x
1761310849783471900,0.254471923828125,0.1350994110107422,0.5111045837402344,-0.24631476402282715
1761310849802084000,0.273083984375,0.16240501403808594,0.3554954528808594,-0.33787572383880615
1761310849820697600,0.291697509765625,0.4012937545776367,0.2090897560119629,-0.35689830780029297
1761310849839309600,0.3103095703125,0.6165828704833984,0.047458648681640625,-0.34040021896362305
1761310849857923300,0.32892333984375,0.7820844650268555,-0.008390426635742188,-0.4363202452659607
1761310849876535300,0.347535400390625,0.7685232162475586,-0.04448127746582031,-0.41569268703460693
1761310849895148800,0.366148681640625,0.7776918411254883,0.050501346588134766,-0.19185352325439453
1761310849913761000,0.384760986328125,0.7002935409545898,0.13758563995361328,0.07879757881164551
1761310849932374500,0.40337451171875,0.4609222412109375,0.28986406326293945,0.3272351026535034
1761310849950986500,0.421986572265625,0.055809974670410156,0.4913339614868164,0.3724631071090698
1761310849969600000,0.44060009765625,-0.2441844940185547,0.560091495513916,0.22082459926605225
1761310849988212200,0.459212158203125,-0.43306875228881836,0.46057939529418945,0.13322412967681885
1761310850006825700,0.47782568359375,-0.6538786888122559,0.4361839294433594,0.2967226505279541
1761310850025437700,0.496437744140625,-0.7629208564758301,0.4245891571044922,0.4523795545101166
1761310850044051500,0.515051513671875,-0.5978574752807617,0.23731613159179688,0.5593189001083374
1761310850062663400,0.533663330078125,-0.38719606399536133,-0.010021686553955078,0.652992844581604
1761310850081277000,0.55227685546875,-0.22766399383544922,-0.15165948867797852,0.4745476245880127
1761310850099889200,0.57088916015625,-0.1421656608581543,-0.2644481658935547,0.24376562237739563
1761310850118502700,0.589502685546875,-0.10079002380371094,-0.41257333755493164,0.02747863531112671
1761310850137114600,0.608114501953125,-0.10908317565917969,-0.4688601493835449,-0.15085852146148682
1761310850155728400,0.626728271484375,-0.02810525894165039,-0.3998394012451172,-0.024570465087890625
1761310850174340400,0.64534033203125,0.07113075256347656,-0.3137779235839844,0.20031613111495972
1761310850192953900,0.663953857421875,-0.07878303527832031,-0.3787674903869629,0.09259241819381714
1761310850211566000,0.682566162109375,-0.3854713439941406,-0.36813783645629883,-0.1765521764755249
1761310850230179600,0.7011796875,-0.5588512420654297,-0.34346675872802734,-0.33305221796035767
1761310850248791600,0.71979150390625,-0.5867042541503906,-0.24814605712890625,-0.35362792015075684
1761310850267405300,0.7384052734375,-0.5533699989318848,-0.11242151260375977,-0.23677682876586914
1761310850286017300,0.757017333984375,-0.38629579544067383,-0.061219215393066406,-0.19916588068008423
1761310850304630800,0.775630859375,-0.23624563217163086,-0.17742061614990234,-0.21775054931640625
1761310850323243000,0.794242919921875,-0.10351800918579102,-0.2137613296508789,-0.3098260164260864
1761310850341856500,0.8128564453125,-0.12662649154663086,-0.18649053573608398,-0.3730088472366333
1761310850360468700,0.83146875,-0.15740156173706055,-0.23744869232177734,-0.4746933579444885
1761310850379082200,0.850082275390625,-0.2326669692993164,-0.35164356231689453,-0.47609925270080566
1761310850397694200,0.868694091796875,-0.017705917358398438,-0.3001823425292969,-0.43151170015335083
1761310850416308000,0.887307861328125,0.3759040832519531,-0.19343090057373047,-0.2323591709136963
1761310850434920000,0.905919921875,0.6841659545898438,-0.29592418670654297,-0.14055776596069336
1761310850453533400,0.924533447265625,0.5625858306884766,-0.3600749969482422,-0.2553771734237671
1761310850472145700,0.943145751953125,0.3170318603515625,-0.1677098274230957,-0.44992291927337646
1761310850490759200,0.96175927734375,0.058834075927734375,-0.11879444122314453,-0.47999870777130127
1761310850509371400,0.980371337890625,-0.16556262969970703,-0.14219045639038086,-0.3345876932144165
1761310850527985000,0.99898486328125,-0.3579902648925781,-0.07956266403198242,-0.2729603052139282
1761310850546596900,1.017596923828125,-0.2771949768066406,0.012217998504638672,-0.5667763948440552
1761310850565210600,1.036210693359375,-0.22630023956298828,-0.20429277420043945,-0.5065534710884094
1761310850583822600,1.054822509765625,-0.18814563751220703,-0.21393871307373047,-0.4458492398262024
1761310850602436400,1.073436279296875,-0.4206418991088867,-0.1186971664428711,-0.06411391496658325
1761310850621048300,1.09204833984375,-0.5914177894592285,0.19139719009399414,0.17701441049575806
1761310850639661800,1.110661865234375,-0.4845290184020996,0.37686586380004883,0.41082704067230225
1761310850658274000,1.129274169921875,-0.19540834426879883,0.3677706718444824,0.3535654544830322
1761310850676887600,1.147887451171875,-0.049124717712402344,0.24208641052246094,0.16384226083755493
1761310850695499800,1.166499755859375,0.15342140197753906,0.21258926391601562,-0.022824883460998535
1761310850714113300,1.18511328125,0.20092010498046875,0.21106290817260742,-0.016144394874572754
1761310850732725200,1.203725341796875,0.35065460205078125,0.2652111053466797,0.03722459077835083
1761310850751339000,1.222339111328125,0.43764781951904297,0.2574310302734375,0.06880462169647217
1761310850769951000,1.240950927734375,0.31516551971435547,0.2627115249633789,0.2006911039352417
1761310850788564700,1.259564697265625,0.09911346435546875,0.32674455642700195,0.24943429231643677
1761310850807176700,1.2781767578125,-0.11542987823486328,0.3081226348876953,0.25984513759613037
1761310850825790200,1.296790283203125,-0.19316482543945312,0.20054912567138672,0.21242046356201172
1761310850844402400,1.31540234375,-0.006154060363769531,0.10797834396362305,0.08809506893157959
1761310850863016000,1.334015869140625,0.1110372543334961,-0.07584619522094727,0.052337646484375
1761310850881628200,1.352628173828125,0.0716238021850586,-0.17553472518920898,-0.011504530906677246
1761310850900241700,1.37124169921875,-0.018018722534179688,-0.22739553451538086,-0.09645980596542358
1761310850918854000,1.38985400390625,-0.03791999816894531,-0.23802471160888672,-0.1582546830177307
1761310850937467400,1.40846728515625,-0.06611156463623047,-0.3143482208251953,-0.21118056774139404
1761310850956079600,1.42707958984375,-0.09906482696533203,-0.36519718170166016,-0.3679533004760742
1761310850974693000,1.445693115234375,-0.12675094604492188,-0.3209662437438965,-0.39843207597732544
1761310850993305000,1.46430517578125,0.007342338562011719,-0.2604823112487793,-0.2572290301322937
1761310851011918800,1.4829189453125,0.06728172302246094,-0.26089048385620117,-0.142309308052063
1761310851030530800,1.50153076171875,-0.06479740142822266,-0.26569461822509766,-0.11951631307601929
1761310851049144300,1.520144287109375,-0.24050617218017578,-0.1896042823791504,-0.038065552711486816
1761310851067756500,1.538756591796875,-0.3040027618408203,-0.08674001693725586,-0.05606657266616821
1761310851086370000,1.5573701171875,-0.26897525787353516,-0.13018369674682617,-0.17116641998291016
1761310851104982300,1.575982177734375,-0.11840152740478516,-0.09778547286987305,-0.2182217836380005
1761310851123595800,1.594595703125,0.1009359359741211,-0.04214143753051758,-0.12290197610855103
1761310851142208000,1.6132080078125,0.29860496520996094,-0.030225276947021484,-0.058365464210510254
1761310851160821500,1.631821533203125,0.31386566162109375,0.0062160491943359375,-0.01690274477005005
1761310851179433700,1.650433837890625,0.2212238311767578,0.06524181365966797,-0.002264261245727539
1761310851198047200,1.669047119140625,0.1807241439819336,0.12480735778808594,0.13375598192214966
1761310851216659200,1.6876591796875,0.16466808319091797,0.18994808197021484,0.261345773935318
1761310851235273000,1.70627294921875,0.0805826187133789,0.20556354522705078,0.26761627197265625
1761310851253885000,1.724885009765625,0.06411266326904297,0.20383548736572266,0.2409118115901947
1761310851272498700,1.743498779296875,0.055103302001953125,0.20694255828857422,0.23190277814865112
1761310851291110700,1.762110595703125,0.15653514862060547,0.1688241958618164,0.1989782452583313
1761310851309724200,1.78072412109375,0.21057701110839844,0.0716238021850586,0.2133694291114807
1761310851328336400,1.79933642578125,0.08075618743896484,0.04544973373413086,0.16975325345993042
1761310851346950000,1.817949951171875,-0.09693527221679688,0.05200958251953125,0.16186565160751343
1761310851365562000,1.83656201171875,-0.30328941345214844,0.07086896896362305,0.19102489948272705
1761310851384175600,1.855175537109375,-0.39749908447265625,0.07265663146972656,0.08095431327819824
1761310851402787800,1.873787841796875,-0.34905147552490234,0.05453968048095703,-0.011437833309173584
1761310851421401300,1.8924013671875,-0.1826000213623047,0.012650489807128906,-0.04466545581817627
1761310851440013600,1.911013671875,-0.0059757232666015625,-0.0636301040649414,-0.007010042667388916
1761310851458627000,1.929626953125,0.09351253509521484,-0.09908151626586914,-0.02367842197418213
1761310851477239300,1.9482392578125,0.14784908294677734,-0.1064462661743164,-0.1543039083480835
1761310851495852800,1.966852783203125,0.18695068359375,-0.09832429885864258,-0.2266274094581604
1761310851514464800,1.98546484375,0.10231590270996094,-0.08496284484863281,-0.2112237811088562
1761310851533078500,2.00407861328125,0.009463310241699219,-0.05811643600463867,-0.1854952573776245
1761310851551690500,2.0226904296875,-0.022182464599609375,-0.0577998161315918,-0.1388474702835083
1761310851570304300,2.04130419921875,0.04786396026611328,-0.025958538055419922,-0.1575831174850464
1761310851588916200,2.059916259765625,0.10840702056884766,-0.04223203659057617,-0.1691684126853943
1761310851607529700,2.07852978515625,0.18369579315185547,-0.0413661003112793,-0.06747865676879883
1761310851626142000,2.097141845703125,0.09230613708496094,-0.040264129638671875,-0.019952595233917236
1761310851644755500,2.11575537109375,-0.05030059814453125,-0.02599191665649414,-0.08883005380630493
1761310851663367700,2.13436767578125,-0.02421855926513672,-0.006926536560058594,-0.08773607015609741
1761310851681981200,2.152981201171875,0.03416252136230469,0.0009222030639648438,0.05840402841567993
1761310851700593400,2.171593505859375,-0.08763504028320312,0.03978538513183594,0.08624434471130371
1761310851719207000,2.19020703125,-0.2190561294555664,0.07054615020751953,-0.05235016345977783
1761310851737819100,2.208819091796875,-0.09197521209716797,0.07028865814208984,-0.05049318075180054
1761310851756432600,2.2274326171875,0.22224998474121094,0.022857189178466797,0.06574010848999023
1761310851775044900,2.246044921875,0.2794513702392578,-0.03940773010253906,0.1004871129989624
1761310851793658400,2.264658447265625,0.07645606994628906,-0.00826406478881836,-0.01995849609375
1761310851812270600,2.2832705078125,-0.16410350799560547,-0.021598339080810547,-0.12391674518585205
1761310851830884000,2.301884033203125,-0.14810943603515625,-0.022198200225830078,-0.083934485912323
1761310851849496000,2.32049609375,0.10633182525634766,-0.06667470932006836,-0.019579291343688965
1761310851868109800,2.33910986328125,0.17543983459472656,-0.0973348617553711,0.008618772029876709
1761310851886721800,2.3577216796875,0.031907081604003906,-0.08611726760864258,-0.05967229604721069
1761310851905335600,2.37633544921875,-0.10765838623046875,-0.051154136657714844,-0.08817863464355469
1761310851923947500,2.394947509765625,-0.13994121551513672,-0.05181884765625,-0.10767608880996704
1761310851942561300,2.413561279296875,-0.03696727752685547,-0.0868692398071289,-0.015778064727783203
1761310851961173200,2.43217333984375,0.04600715637207031,-0.11557579040527344,0.004757225513458252
1761310851979787000,2.450787109375,0.014113426208496094,-0.11201667785644531,0.03149688243865967
1761310851998399000,2.46939892578125,0.049102783203125,-0.09175443649291992,0.0038558244705200195
1761310852017012500,2.488012451171875,0.009572982788085938,-0.07658529281616211,-0.03941994905471802
1761310852035624700,2.506624755859375,-0.11522197723388672,-0.03589296340942383,-0.06607627868652344
1761310852054238200,2.52523828125,-0.25103092193603516,-0.032691001892089844,-0.10154169797897339
1761310852072850400,2.543850341796875,-0.35333728790283203,-0.03609180450439453,-0.0663716197013855
1761310852091464000,2.5624638671875,-0.1879100799560547,-0.016232013702392578,0.013567745685577393
1761310852110076200,2.581076171875,0.08032989501953125,-0.017609596252441406,0.147874116897583
1761310852128689700,2.599689697265625,0.09846210479736328,0.0011396408081054688,0.17999112606048584
1761310852147302000,2.618302001953125,0.07325553894042969,0.047118186950683594,0.05723381042480469
1761310852165915400,2.636915283203125,0.14084434509277344,0.004112720489501953,0.0091017484664917
1761310852184527600,2.655527587890625,0.1512432098388672,0.019265174865722656,0.007280945777893066
1761310852203141000,2.67414111328125,0.042830467224121094,0.04983043670654297,-0.0007586479187011719
1761310852221753000,2.692753173828125,-0.04689502716064453,0.08210468292236328,0.017404258251190186
1761310852240366800,2.711366943359375,0.038710594177246094,0.08017539978027344,-0.01826423406600952
1761310852258978800,2.729978759765625,0.07421207427978516,-0.016380786895751953,0.0006978511810302734
1761310852277592600,2.748592529296875,-0.001438140869140625,-0.035665035247802734,-0.07191473245620728
1761310852296204500,2.76720458984375,-0.0819253921508789,-0.06818151473999023,-0.10054868459701538
1761310852314818300,2.785818359375,-0.09570884704589844,-0.09336042404174805,-0.12078595161437988
1761310852333430300,2.80443017578125,-0.07526874542236328,-0.061214447021484375,-0.032843053340911865
1761310852352044000,2.8230439453125,-0.09154224395751953,-0.0672607421875,-0.011633753776550293
1761310852370656000,2.841656005859375,-0.071258544921875,-0.04255390167236328,-0.029988467693328857
1761310852389269800,2.860269775390625,-0.0802459716796875,-0.02159881591796875,-0.032069623470306396
1761310852407881700,2.8788818359375,-0.03841972351074219,-0.008109569549560547,-0.07447963953018188
1761310852426495200,2.8974951171875,0.0024127960205078125,-0.005528926849365234,-0.08758491277694702
1761310852445107500,2.916107421875,0.0689859390258789,0.01225900650024414,-0.037582576274871826
1761310852463721000,2.934720947265625,0.13167953491210938,0.024430274963378906,0.029486119747161865
1761310852482333200,2.953333251953125,0.11310768127441406,0.055440425872802734,0.02717536687850952
1761310852500946700,2.97194677734375,0.0708608627319336,0.08740377426147461,0.03299129009246826
1761310852519559000,2.990558837890625,-0.02182292938232422,0.09593868255615234,0.08630436658859253
1761310852538172400,3.00917236328125,0.011600494384765625,0.12703323364257812,0.08351129293441772
1761310852556784600,3.02778466796875,0.030864715576171875,0.12765264511108398,0.10241460800170898
1761310852575398100,3.046398193359375,0.04162311553955078,0.13834714889526367,0.030155718326568604
1761310852594010400,3.06501025390625,0.041190147399902344,0.10147333145141602,0.01924687623977661
1761310852612624000,3.083623779296875,0.054157257080078125,0.03508615493774414,0.05711233615875244
1761310852631235800,3.10223583984375,-0.015150070190429688,0.0496983528137207,0.13439947366714478
1761310852649849600,3.120849609375,-0.1001749038696289,0.06082630157470703,0.07931548357009888
1761310852668461600,3.139461669921875,-0.09273338317871094,-0.0260009765625,-0.053472697734832764
1761310852687075300,3.158075439453125,0.008439064025878906,-0.031792640686035156,-0.09798485040664673
1761310852705687300,3.176687255859375,0.0695343017578125,-0.031713008880615234,-0.02130669355392456
1761310852724301000,3.195301025390625,0.07746410369873047,-0.029360294342041016,-0.017909348011016846
1761310852742913000,3.2139130859375,0.03064727783203125,-0.05776357650756836,-0.10293370485305786
1761310852761526800,3.23252685546875,-0.052412986755371094,-0.09597158432006836,-0.13594692945480347
1761310852780138800,3.251138671875,-0.16385746002197266,-0.050136566162109375,-0.14454782009124756
1761310852798752500,3.26975244140625,-0.13318347930908203,-0.047890663146972656,-0.15552300214767456
1761310852817364500,3.288364501953125,0.07399749755859375,-0.08538055419921875,-0.13324111700057983
1761310852835978000,3.30697802734375,0.23258686065673828,-0.1218252182006836,-0.11483901739120483
1761310852854590200,3.325590087890625,0.29234886169433594,-0.11900806427001953,-0.15535134077072144
1761310852873203700,3.34420361328125,0.2454538345336914,-0.08933734893798828,-0.10070502758026123
1761310852891816000,3.36281591796875,0.011217117309570312,0.010429859161376953,0.015956580638885498
1761310852910429400,3.381429443359375,-0.21589946746826172,0.08201980590820312,0.08698725700378418
1761310852929041700,3.400041748046875,-0.2758913040161133,0.0909724235534668,0.0736234188079834
1761310852947655200,3.4186552734375,-0.29834461212158203,0.10526371002197266,0.028060317039489746
1761310852966267400,3.437267333984375,-0.1381692886352539,0.10921859741210938,-0.07035297155380249
1761310852984881000,3.455880859375,0.0880594253540039,0.0464320182800293,-0.05025297403335571
1761310853003493000,3.4744931640625,0.22161102294921875,0.022597312927246094,0.015221834182739258
1761310853022106600,3.493106689453125,0.2524557113647461,-0.00130462646484375,0.06272488832473755
1761310853040718600,3.511718505859375,0.19108009338378906,-0.017467975616455078,0.12278127670288086
1761310853059332400,3.530332275390625,0.024793624877929688,-0.013829708099365234,0.14038977026939392
1761310853077944300,3.5489443359375,-0.08620262145996094,0.000263214111328125,0.019896328449249268
1761310853096558000,3.56755810546875,-0.14194297790527344,0.008160114288330078,-0.13061851263046265
1761310853115170000,3.586170166015625,-0.17744922637939453,0.014788627624511719,-0.10875535011291504
1761310853133783800,3.60478369140625,-0.12797260284423828,0.02504444122314453,-0.031250953674316406
1761310853152395800,3.623395751953125,-0.02743053436279297,-0.0054473876953125,0.03626495599746704
1761310853171009500,3.642009521484375,0.05873584747314453,-0.04084587097167969,0.007343471050262451
1761310853189621500,3.66062158203125,0.08069992065429688,-0.035669803619384766,-0.06214040517807007
1761310853208235000,3.679235107421875,0.12159442901611328,-0.028947830200195312,-0.015641331672668457
1761310853226847200,3.69784716796875,0.1492166519165039,-0.03334856033325195,0.0471380352973938
1761310853245460700,3.716460693359375,0.0605926513671875,-0.03939199447631836,-0.035151898860931396
1761310853264073000,3.735072998046875,-0.060749053955078125,-0.08909273147583008,-0.004422187805175781
1761310853282686500,3.7536865234375,-0.24104690551757812,-0.003494739532470703,0.036560118198394775
1761310853301298700,3.772298583984375,-0.2794990539550781,0.07644081115722656,-0.02141869068145752
1761310853319912200,3.790912109375,-0.21478939056396484,0.0029625892639160156,-0.02980828285217285
1761310853338524400,3.8095244140625,-0.1188516616821289,0.006943225860595703,-0.10117882490158081
1761310853357138000,3.828137939453125,0.039229393005371094,0.005915641784667969,-0.05966895818710327
1761310853375750100,3.846750244140625,0.21082687377929688,0.014636039733886719,0.022225618362426758
1761310853394363600,3.86536376953125,0.3020486831665039,0.003983497619628906,-0.044612348079681396
1761310853412975600,3.8839755859375,0.2662086486816406,-0.04512214660644531,-0.033493757247924805
1761310853431589400,3.90258935546875,0.17309093475341797,-0.006448268890380859,0.028405964374542236
1761310853450201300,3.921201416015625,0.04353904724121094,0.011951446533203125,0.14428532123565674
1761310853468815000,3.939815185546875,-0.11997127532958984,0.07068300247192383,0.10382884740829468
1761310853487427000,3.958427001953125,-0.23560523986816406,0.048098087310791016,-0.02384316921234131
1761310853506040800,3.977040771484375,-0.32169532775878906,-0.018485546112060547,-0.062490999698638916
1761310853524652800,3.99565283203125,-0.2749643325805664,-0.03686857223510742,-0.058038532733917236
1761310853543266600,4.0142666015625,-0.05243206024169922,-0.037181854248046875,0.01652449369430542
1761310853561878500,4.03287841796875,0.2249441146850586,-0.04183483123779297,0.013813555240631104
1761310853580492000,4.051491943359375,0.2395191192626953,-0.10253477096557617,0.03244203329086304
1761310853599104300,4.070104248046875,0.06931400299072266,-0.1321735382080078,-0.020636320114135742
1761310853617717800,4.0887177734375,-0.18690204620361328,-0.09045934677124023,-0.07032060623168945
1761310853636330000,4.107330078125,-0.186859130859375,0.031029224395751953,-0.11427521705627441
1761310853654943500,4.125943603515625,0.011322021484375,0.05607032775878906,-0.08459627628326416
1761310853673555700,4.1445556640625,0.19767379760742188,0.07853889465332031,0.0009976029396057129
1761310853692169200,4.163169189453125,0.2602205276489258,0.08427572250366211,0.05368286371231079
1761310853710781400,4.181781494140625,0.23183822631835938,0.061191558837890625,0.04107397794723511
1761310853729395000,4.20039501953125,0.22181129455566406,0.0713348388671875,-0.0009832978248596191
1761310853748007200,4.219007080078125,0.24048137664794922,0.05762672424316406,-0.013159751892089844
1761310853766620700,4.23762060546875,0.20107364654541016,0.024441242218017578,-0.020979642868041992
1761310853785232600,4.256232666015625,0.040429115295410156,-0.009041309356689453,0.002581179141998291
1761310853803846400,4.274846435546875,-0.15563297271728516,0.021701335906982422,-0.04241800308227539
1761310853822458400,4.293458251953125,-0.3008737564086914,-0.015078067779541016,-0.092989981174469
1761310853841072000,4.312072021484375,-0.27617740631103516,0.005730152130126953,-0.07108980417251587
1761310853859684000,4.33068408203125,-0.0965719223022461,0.006931304931640625,0.002480745315551758
1761310853878297600,4.349297607421875,0.13131427764892578,-0.03803586959838867,0.02856123447418213
1761310853896909800,4.367909912109375,0.2082195281982422,-0.0759282112121582,-0.0008590817451477051
1761310853915523300,4.3865234375,0.09461021423339844,-0.06820964813232422,-0.0069561004638671875
1761310853934135600,4.405135498046875,-0.03320884704589844,0.007909297943115234,0.04334920644760132
1761310853952749000,4.4237490234375,-0.0802001953125,0.00969696044921875,0.05970442295074463
1761310853971361300,4.442361328125,-0.13617706298828125,-0.01657724380493164,0.03198122978210449
1761310853989974800,4.460974853515625,-0.19947433471679688,-0.02170562744140625,-0.059018850326538086
1761310854008587000,4.4795869140625,-0.22814369201660156,-0.013095378875732422,-0.09389811754226685
1761310854027200500,4.498200439453125,-0.11922836303710938,-0.02436065673828125,-0.039340198040008545
1761310854045812700,4.516812744140625,-0.010717391967773438,-0.01637887954711914,0.041125714778900146
1761310854064426200,4.53542626953125,-0.008913993835449219,-0.016283035278320312,0.07046440243721008
1761310854083038200,4.5540380859375,-0.07932090759277344,-0.019336700439453125,0.01400446891784668
1761310854101652000,4.57265185546875,-0.1425323486328125,-0.013326644897460938,0.0350496768951416
1761310854120264000,4.591263916015625,-0.07052421569824219,-0.014993667602539062,0.12043687701225281
1761310854138877700,4.609877685546875,-0.02178478240966797,0.0068607330322265625,0.034198105335235596
1761310854157489700,4.62848974609375,-0.077606201171875,0.0397186279296875,-0.039801597595214844
1761310854176103200,4.647103271484375,-0.1030435562133789,0.062488555908203125,0.010658740997314453
1761310854194715400,4.66571533203125,-0.03419208526611328,0.02304983139038086,0.10070061683654785
1761310854213329000,4.684328857421875,0.13996410369873047,-0.007727622985839844,0.06805872917175293
1761310854231941000,4.702941162109375,0.23244857788085938,-0.07135200500488281,-0.024603724479675293
1761310854250554600,4.7215546875,0.20676422119140625,-0.06528997421264648,-0.07931321859359741
1761310854269166800,4.740166748046875,0.08121585845947266,-0.021145343780517578,-0.05603712797164917
1761310854287780400,4.7587802734375,-0.07404518127441406,0.017045021057128906,0.0007143616676330566
1761310854306392600,4.777392578125,-0.06580352783203125,0.03562307357788086,0.007404804229736328
1761310854325006000,4.796006103515625,-0.0075855255126953125,-0.002685070037841797,-0.05882441997528076
1761310854343618000,4.8146181640625,0.06390762329101562,-0.03296232223510742,-0.1358429193496704
1761310854362231800,4.833231689453125,0.1080007553100586,-0.0332489013671875,-0.0765426754951477
1761310854380843800,4.85184375,0.07123851776123047,0.004627704620361328,0.09083721041679382
1761310854399457500,4.87045751953125,0.02318572998046875,0.06799697875976562,0.08247348666191101
1761310854418069500,4.889069580078125,0.005799293518066406,0.029911041259765625,0.08147051930427551
1761310854436683300,4.907683349609375,0.06859207153320312,0.031054019927978516,0.028939664363861084
1761310854455295200,4.926295166015625,0.20772552490234375,-0.0005164146423339844,0.08102798461914062
1761310854473908700,4.94490869140625,0.10415077209472656,-0.04118680953979492,0.11620986461639404
1761310854492521000,4.96352099609375,0.027520179748535156,0.005500316619873047,0.03352302312850952
1761310854511134500,4.982134521484375,0.15155887603759766,-0.04329824447631836,0.07996952533721924
1761310854529746700,5.00074658203125,0.35352134704589844,-0.18634605407714844,0.032422542572021484
1761310854548360200,5.019360107421875,0.244140625,-0.3071417808532715,0.08524733781814575
1761310854566972400,5.037972412109375,-0.06522750854492188,-0.23179292678833008,0.1463107466697693
1761310854585586000,5.0565859375,-0.005084991455078125,-0.16330766677856445,0.1919720470905304
1761310854604198000,5.075197998046875,0.013216018676757812,-0.26705312728881836,0.288372278213501
1761310854622811600,5.093811767578125,-0.026724815368652344,-0.29105186462402344,0.2529783844947815
1761310854641423600,5.112423583984375,-0.2530508041381836,-0.3047795295715332,0.27538326382637024
1761310854660037400,5.131037353515625,-0.34723377227783203,-0.19882726669311523,0.10357964038848877
1761310854678649300,5.1496494140625,-0.3178539276123047,-0.19078683853149414,-0.003947138786315918
1761310854697263000,5.16826318359375,-0.16952228546142578,-0.16532230377197266,-0.0259016752243042
1761310854715875000,5.186875,0.16898059844970703,-0.14107894897460938,0.048776328563690186
1761310854734488600,5.205488525390625,0.2620372772216797,-0.2896132469177246,0.20671910047531128
1761310854753100800,5.224100830078125,0.059165000915527344,-0.21742773056030273,0.22864729166030884
1761310854771714300,5.24271435546875,-0.0632944107055664,-0.03333330154418945,0.04207336902618408
1761310854790326500,5.261326416015625,0.061565399169921875,-0.0048732757568359375,-0.06343770027160645
1761310854808940000,5.27993994140625,0.11952018737792969,-0.12470054626464844,0.018461883068084717
1761310854827552000,5.298552001953125,0.04792308807373047,-0.08948802947998047,0.11812597513198853
1761310854846165800,5.317165771484375,-0.13683795928955078,0.04802227020263672,0.14307087659835815
1761310854864777700,5.33577783203125,-0.2045278549194336,0.22061538696289062,0.12187725305557251
1761310854883391500,5.3543916015625,-0.043402671813964844,0.2801518440246582,0.19406244158744812
1761310854902003500,5.37300341796875,0.06516838073730469,0.1926131248474121,0.2554749548435211
1761310854920617000,5.391616943359375,-0.0007905960083007812,0.19446372985839844,0.17600351572036743
1761310854939229200,5.410229248046875,-0.08783721923828125,0.300020694732666,0.08641314506530762
1761310854957842700,5.4288427734375,-0.0026226043701171875,0.3058466911315918,0.15043771266937256
1761310854976455000,5.447454833984375,0.04185771942138672,0.1969151496887207,0.1012105941772461
1761310854995068400,5.466068359375,-0.16562557220458984,0.09333276748657227,-0.040766894817352295
1761310855013680400,5.484680419921875,-0.38352346420288086,0.0913839340209961,-0.2256011962890625
1761310855032294100,5.503294189453125,-0.4245281219482422,0.15221881866455078,-0.37476569414138794
1761310855050906000,5.521906005859375,-0.45140886306762695,0.1735081672668457,-0.40233302116394043
1761310855069520000,5.540519775390625,-0.5245242118835449,0.22665071487426758,-0.4817124605178833
1761310855088131800,5.5591318359375,-0.6079025268554688,0.3040342330932617,-0.4949883818626404
1761310855106745300,5.577745361328125,-0.324068546295166,0.4278278350830078,-0.5317785143852234
1761310855125357600,5.596357666015625,0.010333061218261719,0.3431224822998047,-0.2988523840904236
1761310855143971000,5.61497119140625,0.3135852813720703,0.36385583877563477,-0.17074555158615112
1761310855162583300,5.633583251953125,0.4457435607910156,0.37987709045410156,-0.1589171290397644
1761310855181196800,5.65219677734375,0.4227447509765625,0.33501291275024414,-0.2315889596939087
1761310855199808800,5.670808837890625,0.4080314636230469,0.38044309616088867,-0.31173640489578247
1761310855218422500,5.689422607421875,0.5348567962646484,0.46862173080444336,-0.31689703464508057
1761310855237034500,5.708034423828125,0.6222457885742188,0.47165679931640625,-0.16500765085220337
1761310855255648300,5.726648193359375,0.5942001342773438,0.4476332664489746,-0.02066892385482788
1761310855274260200,5.74526025390625,0.41161632537841797,0.38164329528808594,-0.002412259578704834
1761310855292873700,5.763873779296875,0.04408454895019531,0.3026738166809082,-0.18187832832336426
1761310855311486000,5.78248583984375,-0.3399820327758789,0.23313426971435547,-0.5047962069511414
1761310855330099500,5.801099365234375,-0.539921760559082,0.16534185409545898,-0.8156124353408813
1761310855348711400,5.81971142578125,-0.5441575050354004,0.08516454696655273,-0.8884884119033813
1761310855367325200,5.8383251953125,-0.3184537887573242,0.0909433364868164,-0.6935547590255737
1761310855385937200,5.856937255859375,-0.11899280548095703,0.02457141876220703,-0.3750159740447998
1761310855404551000,5.875551025390625,-0.057860374450683594,-0.07937383651733398,-0.260359525680542
1761310855423163000,5.894162841796875,0.04648780822753906,-0.2036457061767578,-0.25324738025665283
1761310855441776400,5.9127763671875,0.26619529724121094,-0.3548102378845215,-0.1740717887878418
1761310855460388600,5.931388671875,0.3997344970703125,-0.4777679443359375,-0.05431950092315674
1761310855479002000,5.950002197265625,0.4555940628051758,-0.5647873878479004,0.0635366439819336
1761310855497614000,5.968614013671875,0.42235469818115234,-0.5994830131530762,0.02661895751953125
1761310855516227800,5.987227783203125,0.2562589645385742,-0.6050519943237305,-0.12997090816497803
1761310855534839800,6.00583984375,0.028804779052734375,-0.5223903656005859,-0.19609451293945312
1761310855553453600,6.02445361328125,-0.06964969635009766,-0.34692811965942383,-0.11935734748840332
1761310855572065500,6.0430654296875,-0.14679813385009766,-0.2377028465270996,0.04779231548309326
1761310855590679000,6.061678955078125,-0.23866939544677734,-0.13462114334106445,0.16307902336120605
1761310855618598400,6.089598388671875,-0.290191650390625,-0.05268239974975586,0.23568391799926758
1761310855637210400,6.10821044921875,-0.15656661987304688,-0.13299894332885742,0.24402761459350586
1761310855655824100,6.12682421875,-0.07953929901123047,-0.2959599494934082,0.2681487798690796
1761310855674436000,6.14543603515625,-0.07265281677246094,-0.343017578125,0.18785524368286133
1761310855693049600,6.164049560546875,-0.07075309753417969,-0.2789750099182129,0.18004250526428223
1761310855711661800,6.182661865234375,-0.03659534454345703,-0.20872020721435547,0.32223808765411377
1761310855730275300,6.201275390625,-0.011928558349609375,-0.11995458602905273,0.34395831823349
1761310855748887300,6.21988720703125,-0.11826515197753906,-0.06058502197265625,0.30757302045822144
1761310855767501000,6.2385009765625,-0.24729251861572266,0.009511947631835938,0.26452112197875977
1761310855786113000,6.257113037109375,-0.3299126625061035,0.06501054763793945,0.20221054553985596
1761310855804726800,6.275726806640625,-0.1988663673400879,0.05419158935546875,0.16628330945968628
1761310855823338800,6.2943388671875,0.04817008972167969,-0.005724430084228516,0.1467205286026001
1761310855841952300,6.3129521484375,0.20589065551757812,-0.08836126327514648,0.18116718530654907
1761310855860564200,6.331564208984375,0.2418384552001953,-0.13063812255859375,0.14590328931808472
1761310855879178000,6.350177978515625,0.18215560913085938,-0.16289234161376953,0.06603717803955078
1761310855897790000,6.3687900390625,0.0856924057006836,-0.1670517921447754,0.001850128173828125
1761310855916403700,6.38740380859375,0.007246971130371094,-0.12181854248046875,-0.0688939094543457
1761310855935015700,6.406015625,0.021291732788085938,-0.05313873291015625,-0.07253658771514893
1761310855953629200,6.424629150390625,0.07876873016357422,-0.037650108337402344,0.004178285598754883
1761310855972241400,6.443241455078125,0.18281078338623047,-0.03622150421142578,0.041788578033447266
1761310855990855000,6.46185498046875,0.24117374420166016,-0.10668563842773438,0.1454629898071289
1761310856009467000,6.480466796875,0.19058895111083984,-0.10433578491210938,0.23026305437088013
1761310856028080600,6.49908056640625,0.08731842041015625,-0.1174774169921875,0.16038566827774048
1761310856046692600,6.517692626953125,0.031830787658691406,-0.1303577423095703,-0.0056896209716796875
1761310856065306400,6.536306396484375,-0.04566669464111328,-0.16964340209960938,-0.04369556903839111
1761310856083918300,6.55491845703125,-0.14295482635498047,-0.1523895263671875,0.005395293235778809
1761310856102531800,6.57353173828125,-0.15374279022216797,-0.05478858947753906,0.0677175521850586
1761310856130450400,6.601450439453125,0.007485389709472656,0.037459373474121094,0.25180017948150635
1761310856149064000,6.62006396484375,0.10611534118652344,0.05127429962158203,0.2732016444206238
1761310856167676000,6.638676025390625,0.12986183166503906,0.07265186309814453,0.23901504278182983
1761310856186289700,6.65728955078125,0.08860588073730469,0.12132835388183594,0.17721223831176758
1761310856204901600,6.675901611328125,-0.012135505676269531,0.2041478157043457,0.10455399751663208
1761310856223515100,6.69451513671875,-0.08897972106933594,0.2955927848815918,0.10332667827606201
1761310856242127400,6.71312744140625,-0.055756568908691406,0.30861806869506836,0.16474676132202148
1761310856260740900,6.731740966796875,0.04780292510986328,0.2504863739013672,0.2588672637939453
1761310856279352800,6.750352783203125,0.17166423797607422,0.2176198959350586,0.2888985276222229
1761310856297966300,6.76896630859375,0.17436695098876953,0.11666345596313477,0.2356475591659546
1761310856316578600,6.78757861328125,0.16528701782226562,0.028756141662597656,0.08008456230163574
1761310856335192000,6.806192138671875,0.1345062255859375,-0.010582447052001953,-0.05758386850357056
1761310856353804000,6.824803955078125,0.11003684997558594,-0.03452301025390625,-0.05827540159225464
1761310856372417800,6.843417724609375,0.11743927001953125,-0.12209081649780273,-0.04927635192871094
1761310856391029800,6.86202978515625,0.10266590118408203,-0.1893157958984375,-0.09233039617538452
1761310856409643300,6.880643310546875,0.010406494140625,-0.2155914306640625,-0.12650012969970703
1761310856428255500,6.89925537109375,-0.13656997680664062,-0.16434192657470703,-0.1561996340751648
1761310856446869000,6.917868896484375,-0.20227622985839844,-0.07474184036254883,-0.18119019269943237
1761310856465481000,6.93648095703125,-0.22020816802978516,-0.014987468719482422,-0.22277379035949707
1761310856484094700,6.9550947265625,-0.17642593383789062,0.04483509063720703,-0.2507888078689575
1761310856502706700,6.973706787109375,-0.11822319030761719,0.1393880844116211,-0.20163196325302124
1761310856521320200,6.9923203125,-0.04857826232910156,0.23041915893554688,-0.12584972381591797
1761310856539932400,7.010932373046875,0.06831550598144531,0.295621395111084,0.01754927635192871
1761310856558546000,7.0295458984375,0.1558237075805664,0.33559179306030273,0.11382550001144409
1761310856577158000,7.048157958984375,0.19865989685058594,0.2707252502441406,0.18587112426757812
1761310856595771400,7.066771484375,0.23514652252197266,0.15519380569458008,0.1910545825958252
1761310856614383600,7.085383544921875,0.1840991973876953,0.05296134948730469,0.07435178756713867
1761310856632997000,7.1039970703125,0.03196239471435547,-0.0475611686706543,-0.04192161560058594
1761310856651609000,7.122609130859375,-0.13787841796875,-0.11307048797607422,-0.08068811893463135
1761310856670222800,7.141222900390625,-0.23798179626464844,-0.11173534393310547,-0.06062185764312744
1761310856688834800,7.159834716796875,-0.22221612930297852,-0.08267354965209961,-0.013616859912872314
1761310856707448300,7.1784482421875,-0.15587615966796875,-0.11326932907104492,-0.05333620309829712
1761310856726060300,7.197060302734375,-0.15651321411132812,-0.11347818374633789,-0.12140518426895142
1761310856744674000,7.215674072265625,-0.1829242706298828,-0.00774383544921875,-0.12871110439300537
1761310856763286000,7.2342861328125,-0.11054420471191406,0.11349916458129883,-0.04386317729949951
1761310856781899500,7.2528994140625,0.011340141296386719,0.10270547866821289,0.11037445068359375
1761310856800511700,7.27151171875,0.08729743957519531,0.06250238418579102,0.16655278205871582
1761310856819125200,7.290125244140625,0.11864757537841797,0.04523038864135742,0.183212548494339
1761310856837737200,7.3087373046875,0.0931997299194336,-0.016819000244140625,0.1523115038871765
1761310856856350700,7.327350830078125,0.04359912872314453,-0.022958755493164062,0.05130815505981445
1761310856874963000,7.345962890625,0.01244354248046875,0.011387348175048828,0.003596961498260498
1761310856893576400,7.364576416015625,0.017027854919433594,0.05216407775878906,0.015944480895996094
1761310856912188400,7.3831884765625,0.010453224182128906,0.07026910781860352,0.04627978801727295
1761310856930802000,7.401802001953125,-0.07847118377685547,0.07025003433227539,0.0665389895439148
1761310856949414100,7.4204140625,-0.1833353042602539,0.0882720947265625,0.05933898687362671
1761310856968027600,7.439027587890625,-0.19573593139648438,0.06347942352294922,0.0006880760192871094
1761310856986639600,7.4576396484375,-0.08930206298828125,0.03184700012207031,-0.015386402606964111
1761310857005253000,7.476253173828125,0.018517494201660156,-0.018686771392822266,-0.02215278148651123
1761310857023865300,7.494865234375,0.0716257095336914,-0.016958236694335938,0.05092310905456543
1761310857042478800,7.513478759765625,0.021022796630859375,-0.014236927032470703,0.09211307764053345
1761310857061090800,7.5320908203125,-0.012415885925292969,-0.014172077178955078,0.016392946243286133
1761310857079704300,7.550704345703125,0.017274856567382812,0.005868434906005859,0.0364607572555542
1761310857098316500,7.569316650390625,0.049335479736328125,0.009975910186767578,0.10717940330505371
1761310857116930000,7.587929931640625,0.03047657012939453,0.002056121826171875,0.03872179985046387
1761310857135542000,7.6065419921875,-0.045536041259765625,0.010234355926513672,-0.05148535966873169
1761310857154155500,7.625155517578125,-0.1276073455810547,-0.0011639595031738281,-0.0010083913803100586
1761310857172767700,7.643767822265625,-0.12528562545776367,0.012990474700927734,0.0486222505569458
1761310857191381200,7.66238134765625,-0.027215003967285156,-0.003612041473388672,0.12716412544250488
1761310857209993200,7.6809931640625,0.028104782104492188,-0.07297611236572266,0.1094096302986145
1761310857228606700,7.699606689453125,0.04878044128417969,-0.09850931167602539,-0.008055925369262695
1761310857247219000,7.718218994140625,0.00830841064453125,-0.13088703155517578,-0.0378115177154541
1761310857265832400,7.73683251953125,-0.05044746398925781,-0.09990835189819336,-0.0033407211303710938
1761310857284444400,7.7554443359375,-0.053684234619140625,-0.029439926147460938,0.05387866497039795
1761310857303058000,7.774057861328125,0.030793190002441406,0.005278110504150391,0.04299747943878174
1761310857321670100,7.792670166015625,0.13746166229248047,-0.0027599334716796875,0.013463497161865234
1761310857340283600,7.81128369140625,0.12001323699951172,-0.0221099853515625,-0.04577392339706421
1761310857358895600,7.8298955078125,0.046942710876464844,-0.025472640991210938,-0.12793785333633423
1761310857377509000,7.848509033203125,-0.04946327209472656,-0.014783859252929688,-0.11976253986358643
1761310857396121300,7.867121337890625,-0.10565853118896484,-0.026048660278320312,-0.09399712085723877
1761310857414734800,7.88573486328125,-0.10683155059814453,-0.05797004699707031,-0.10570192337036133
1761310857433346800,7.904346923828125,-0.029932022094726562,-0.09329032897949219,-0.12625306844711304
1761310857451960300,7.922960205078125,0.08519554138183594,-0.10858011245727539,-0.15075582265853882
1761310857470572500,7.941572509765625,0.20688533782958984,-0.10554790496826172,-0.17483502626419067
1761310857489186000,7.96018603515625,0.19421768188476562,-0.12339067459106445,-0.13332980871200562
1761310857507798000,7.978798095703125,0.12023067474365234,-0.05005598068237305,-0.07778745889663696
1761310857526411500,7.99741162109375,0.03259754180908203,0.004667758941650391,-0.10554766654968262
1761310857545023500,8.0160234375,-0.0104522705078125,0.052790164947509766,-0.08185887336730957
1761310857563637200,8.03463720703125,-0.014801979064941406,0.06536865234375,-0.11007058620452881
1761310857582249200,8.053249267578124,-0.012536048889160156,0.050309181213378906,-0.09644889831542969
1761310857600862700,8.07186279296875,0.03051280975341797,0.05515480041503906,-0.0885772705078125
1761310857619474700,8.090474609375,0.0760488510131836,0.04692363739013672,-0.05101221799850464
1761310857638088400,8.10908837890625,0.09208297729492188,0.02036762237548828,0.006235599517822266
1761310857656700400,8.127700439453125,0.07800483703613281,-0.014167308807373047,0.02250427007675171
1761310857675314000,8.14631396484375,0.041451454162597656,-0.04728221893310547,-0.011111557483673096
1761310857693926000,8.16492578125,-0.008328437805175781,-0.0623326301574707,-0.01668846607208252
1761310857712539400,8.183539306640625,-0.0009508132934570312,-0.052969932556152344,0.018305957317352295
1761310857731151600,8.202151611328125,-0.06532955169677734,-0.06557750701904297,-0.02050846815109253
1761310857749765000,8.22076513671875,-0.17242145538330078,-0.0004754066467285156,-0.1458141803741455
1761310857768377000,8.239377197265625,-0.2627983093261719,0.05500507354736328,-0.09909814596176147
1761310857786990600,8.257990478515625,-0.1302633285522461,0.09486198425292969,0.010357379913330078
1761310857805602600,8.2766025390625,0.05101490020751953,-0.0009379386901855469,0.10406523942947388
1761310857824216300,8.29521630859375,0.12493324279785156,-0.05225324630737305,0.07330352067947388
1761310857842828300,8.313828369140625,0.15218448638916016,-0.022377490997314453,-0.00846254825592041
1761310857861441800,8.33244189453125,0.1559906005859375,-0.05365562438964844,-0.004858553409576416
1761310857880053800,8.3510537109375,0.13185691833496094,-0.0873255729675293,-0.025445640087127686
1761310857898667300,8.369667236328125,0.031479835510253906,-0.09014701843261719,-0.07469743490219116
1761310857917279500,8.388279541015624,-0.05175209045410156,-0.028235912322998047,-0.08459889888763428
1761310857935893000,8.40689306640625,-0.08227252960205078,0.0006680488586425781,-0.05371636152267456
1761310857954505000,8.4255048828125,-0.08582878112792969,0.008922576904296875,-0.05619901418685913
1761310857973118500,8.444118408203124,-0.05211353302001953,-0.0030908584594726562,-0.033144354820251465
1761310857991730400,8.46273046875,0.002796173095703125,0.003253459930419922,-0.0010342001914978027
1761310858010344200,8.48134423828125,-0.017189979553222656,0.000965118408203125,0.02215176820755005
1761310858028956200,8.4999560546875,0.04781150817871094,0.010758399963378906,-0.027447879314422607
1761310858047569700,8.518569580078125,0.11993408203125,-0.03530263900756836,0.007609128952026367
1761310858066181600,8.537181640625,0.13740158081054688,-0.03151559829711914,0.002788722515106201
1761310858084795100,8.555795166015624,0.08356666564941406,0.003942966461181641,0.005876362323760986
1761310858103407400,8.574407470703125,-0.004093170166015625,0.042250633239746094,0.014361560344696045
1761310858122020900,8.593020751953125,0.0114898681640625,0.0798487663269043,0.01899242401123047
1761310858140632800,8.6116328125,0.10295295715332031,0.08720684051513672,0.09124040603637695
1761310858159246300,8.630246337890625,0.21739864349365234,0.05128669738769531,0.155506432056427
1761310858177858300,8.6488583984375,0.2155132293701172,0.0201873779296875,0.12713587284088135
1761310858196471800,8.667471923828124,0.10000419616699219,-0.01716756820678711,0.0495869517326355
1761310858215084000,8.686083984375,-0.01815509796142578,-0.002391815185546875,0.0961645245552063
1761310858233697500,8.704697509765625,-0.10804080963134766,-0.021659374237060547,0.10938078165054321
1761310858252309500,8.7233095703125,-0.2083749771118164,-0.020607948303222656,0.06846421957015991
1761310858270923000,8.741923095703125,-0.2713794708251953,0.008759021759033203,0.010349571704864502
1761310858289535000,8.760534912109375,-0.23804664611816406,0.002349376678466797,0.00826948881149292
1761310858308148500,8.7791484375,-0.09049510955810547,-0.032489776611328125,0.05463874340057373
1761310858326760700,8.7977607421875,0.009199142456054688,-0.06566715240478516,-0.014349162578582764
1761310858345374200,8.816374267578125,-0.01843547821044922,-0.08693599700927734,-0.1148335337638855
1761310858363986200,8.834986083984376,-0.08228778839111328,-0.025940895080566406,-0.18207871913909912
1761310858382599700,8.853599609375,-0.1042928695678711,0.040070533752441406,-0.1352565884590149
1761310858401211600,8.872211669921874,0.018782615661621094,0.08484792709350586,-0.08059221506118774
1761310858419825200,8.8908251953125,0.2007913589477539,0.04862213134765625,-0.06966447830200195
1761310858438437400,8.909437255859375,0.28470706939697266,0.0045909881591796875,-0.07735097408294678
1761310858457051000,8.92805078125,0.24388504028320312,0.02119588851928711,-0.09941959381103516
1761310858475662800,8.946662841796876,0.1369314193725586,0.03334665298461914,-0.07918006181716919
1761310858494276400,8.9652763671875,-0.008606910705566406,0.016333580017089844,-0.03084009885787964
1761310858512888300,8.983888427734374,-0.17039871215820312,0.020774364471435547,-0.014654397964477539
1761310858531501800,9.002501708984376,-0.42973995208740234,0.024353981018066406,-0.05863785743713379
1761310858550114000,9.021114013671875,-0.5648503303527832,0.062077999114990234,-0.09743887186050415
1761310858568727600,9.0397275390625,-0.4373779296875,0.061211585998535156,-0.05067777633666992
1761310858587339500,9.058339599609376,-0.036266326904296875,0.026633739471435547,0.07480806112289429
1761310858605953000,9.076953125,0.24715423583984375,-0.029605388641357422,0.17089158296585083
1761310858624565000,9.09556494140625,0.3055410385131836,-0.016507625579833984,0.062079548835754395
1761310858643178500,9.114178466796876,0.2880687713623047,0.006405353546142578,-0.05055534839630127
1761310858661790700,9.132790771484375,0.28816890716552734,0.03959465026855469,-0.08579099178314209
1761310858680404200,9.151404296875,0.20579910278320312,0.009313106536865234,-0.08357268571853638
1761310858699016200,9.17001611328125,0.15429401397705078,-0.0035448074340820312,-0.11894792318344116
1761310858717629700,9.188629638671875,0.12073707580566406,-0.057747840881347656,-0.08774727582931519
1761310858736241700,9.20724169921875,0.1619701385498047,-0.10046768188476562,-0.044660091400146484
1761310858754855200,9.225855224609376,0.1155385971069336,-0.11208820343017578,-0.040302395820617676
1761310858773467100,9.244467041015625,-0.014122962951660156,-0.09096145629882812,-0.09576904773712158
1761310858792081000,9.263080810546874,-0.10649394989013672,-0.07098531723022461,-0.12097901105880737
1761310858810692900,9.28169287109375,-0.18582820892333984,-0.05062580108642578,-0.06236469745635986
1761310858829306400,9.300306396484375,-0.20762062072753906,-0.030404090881347656,-0.00478750467300415
1761310858847918300,9.31891845703125,-0.233001708984375,-0.029331207275390625,0.02805161476135254
1761310858866531800,9.33753173828125,-0.1937694549560547,0.011436939239501953,0.06618368625640869
1761310858885143800,9.356143798828125,-0.059505462646484375,0.05759572982788086,0.08957630395889282
1761310858903757600,9.374757568359374,0.14519691467285156,0.07877349853515625,0.10586357116699219
1761310858922369500,9.39336962890625,0.22989273071289062,0.050417423248291016,0.11525988578796387
1761310858940983000,9.411983154296875,0.1501455307006836,0.04747629165649414,0.05072629451751709
1761310858959595000,9.430594970703124,0.02205657958984375,0.05682373046875,-0.01613140106201172
1761310858978208500,9.44920849609375,-0.03454399108886719,0.0932016372680664,-0.03871637582778931
1761310858996820500,9.467820556640625,0.0066471099853515625,0.05499601364135742,-0.010768711566925049
1761310859015434000,9.48643408203125,0.08835697174072266,0.008812427520751953,-0.006568849086761475
1761310859034046200,9.505046142578125,0.14597129821777344,-0.05565643310546875,-0.038777947425842285
1761310859052659700,9.52365966796875,0.15856552124023438,-0.1531972885131836,-0.06801342964172363
1761310859071271700,9.542271728515624,0.08691978454589844,-0.1696949005126953,-0.1133108139038086
1761310859089885200,9.56088525390625,-0.017719268798828125,-0.1320796012878418,-0.12311047315597534
1761310859108497200,9.5794970703125,-0.14000606536865234,-0.12447547912597656,-0.07922732830047607
1761310859127110700,9.598110595703124,-0.1592121124267578,-0.08289527893066406,-0.07407188415527344
1761310859145722600,9.61672265625,-0.13646221160888672,-0.062310218811035156,-0.044586896896362305
1761310859164336000,9.635336181640625,-0.12395286560058594,-0.04661226272583008,-0.008803129196166992
1761310859182948400,9.6539482421875,-0.16812610626220703,0.026997089385986328,0.018516361713409424
1761310859201561900,9.672561767578125,-0.14440250396728516,0.10697078704833984,0.1108134388923645
1761310859220173800,9.691173828125,-0.02916240692138672,0.11580705642700195,0.20401790738105774
1761310859238787300,9.709787353515624,0.0994873046875,0.07188558578491211,0.21736875176429749
1761310859257399300,9.7283994140625,0.17751407623291016,0.051618099212646484,0.21380218863487244
1761310859276012800,9.7470126953125,0.13030338287353516,0.027412891387939453,0.16617459058761597
1761310859294624800,9.765624755859376,0.014471054077148438,0.0357208251953125,0.01608210802078247
1761310859313238300,9.78423828125,-0.15160846710205078,0.024954795837402344,-0.044000208377838135
1761310859331850500,9.8028505859375,-0.23128700256347656,0.04451894760131836,-0.02029341459274292
1761310859350464000,9.821464111328124,-0.20737171173095703,0.004141807556152344,0.023352086544036865
1761310859369076000,9.840075927734375,-0.10031700134277344,-0.042110443115234375,0.007889330387115479
1761310859387689500,9.858689453125,0.008290290832519531,-0.059191226959228516,-0.0431707501411438
1761310859406301400,9.877301513671876,0.10616493225097656,-0.04919767379760742,-0.09781229496002197
1761310859424915000,9.8959150390625,0.1222524642944336,-0.04256153106689453,-0.10720628499984741
1761310859443527000,9.91452685546875,0.0954294204711914,-0.0185699462890625,-0.08516240119934082
1761310859462140400,9.933140380859374,-0.031546592712402344,0.010987281799316406,-0.04963982105255127
1761310859480752400,9.95175244140625,-0.08972549438476562,0.084808349609375,-0.014881134033203125
1761310859499366100,9.9703662109375,-0.017375946044921875,0.11028051376342773,0.0416642427444458
1761310859517978000,9.98897802734375,0.0955190658569336,0.12191581726074219,0.09407275915145874
1761310859536591600,10.007591552734375,0.11640357971191406,0.08400964736938477,0.1280919909477234
1761310859555203600,10.02620361328125,0.033904075622558594,0.042376041412353516,0.1399257779121399
1761310859573817000,10.044817138671876,-0.031767845153808594,0.027658462524414062,0.07173490524291992
1761310859592429000,10.063428955078125,-0.08210468292236328,0.012262344360351562,0.05210697650909424
1761310859611042600,10.08204248046875,-0.1061544418334961,0.0038652420043945312,0.05234748125076294
1761310859629654500,10.100654541015626,-0.1072244644165039,0.022889137268066406,0.029526114463806152
1761310859648268000,10.11926806640625,-0.02974987030029297,0.028417587280273438,-0.03526413440704346
1761310859666880300,10.13788037109375,0.017124176025390625,-0.0062961578369140625,-0.015373170375823975
1761310859685493800,10.15649365234375,-0.01654529571533203,-0.00006198883056640625,0.027286291122436523
1761310859704105700,10.175105712890625,-0.12724685668945312,0.0031328201293945312,0.0026425719261169434
1761310859722719200,10.19371923828125,-0.021383285522460938,0.011435985565185547,-0.12681597471237183
1761310859741331200,10.212331298828126,0.1293315887451172,-0.055907249450683594,-0.19229573011398315
1761310859759944700,10.23094482421875,0.19042301177978516,-0.10812854766845703,-0.14622104167938232
1761310859778556700,10.249556640625,0.17214298248291016,-0.0566706657409668,-0.0735330581665039
1761310859797170200,10.268170166015626,0.1779613494873047,-0.023711204528808594,0.003833293914794922
1761310859815782100,10.2867822265625,0.2347698211669922,0.01290273666381836,-0.02080392837524414
1761310859834395600,10.305395751953125,0.19925689697265625,0.012180328369140625,-0.05496424436569214
1761310859853008000,10.3240078125,0.05457496643066406,0.038069725036621094,-0.07183390855789185
1761310859871621400,10.342621337890625,-0.041675567626953125,0.07741022109985352,-0.07350587844848633
1761310859890233300,10.3612333984375,-0.0027980804443359375,0.07136344909667969,0.026514887809753418
1761310859908846800,10.379846923828126,-0.014547348022460938,0.005421638488769531,0.04166221618652344
1761310859927458800,10.398458740234375,-0.04217338562011719,-0.019446849822998047,0.10531878471374512
1761310859946072300,10.417072265625,0.03318595886230469,-0.010979652404785156,0.08936357498168945
1761310859964684300,10.435684326171875,0.07059478759765625,-0.0453028678894043,0.0332493782043457
1761310859983297800,10.4542978515625,-0.10480117797851562,-0.08039522171020508,-0.08230960369110107
1761310860001909800,10.47290966796875,-0.27781057357788086,0.003615856170654297,-0.09511995315551758
1761310860020523300,10.491523193359376,-0.3244633674621582,0.07000064849853516,-0.07278424501419067
1761310860039135500,10.510135498046875,-0.3080158233642578,0.0849156379699707,0.04874718189239502
1761310860057749000,10.5287490234375,-0.210296630859375,0.0744624137878418,0.08792400360107422
1761310860076361000,10.54736083984375,-0.1168365478515625,-0.008821487426757812,0.05159711837768555
1761310860094974500,10.565974365234375,0.0862274169921875,-0.08934354782104492,0.020346403121948242
1761310860113586400,10.58458642578125,0.16006851196289062,-0.11893892288208008,-0.1037360429763794
1761310860132200000,10.603199951171876,0.24186992645263672,-0.037457942962646484,-0.09670931100845337
1761310860150812000,10.62181201171875,0.25905895233154297,-0.02762460708618164,-0.04012644290924072
1761310860169425400,10.64042529296875,0.1389312744140625,-0.08803129196166992,-0.09977394342422485
1761310860188037400,10.659037353515625,-0.04745960235595703,-0.06221151351928711,-0.1579064130783081
1761310860206651000,10.67765087890625,-0.11995124816894531,-0.0402369499206543,-0.09009456634521484
1761310860225262800,10.696262939453124,-0.08957195281982422,-0.0686492919921875,-0.04838073253631592
1761310860243876400,10.71487646484375,-0.0944204330444336,-0.04776477813720703,-0.04522693157196045
1761310860262488600,10.733488525390625,-0.023296356201171875,-0.0023622512817382812,-0.01810818910598755
1761310860281102000,10.75210205078125,-0.03816413879394531,-0.030933856964111328,0.10014837980270386
1761310860299714000,10.770714111328125,-0.12259292602539062,-0.03353261947631836,0.02419525384902954
1761310860318327600,10.78932763671875,-0.1751251220703125,0.09869194030761719,0.04721367359161377
1761310860336939500,10.807939453125,-0.2469038963317871,0.1210789680480957,0.13875353336334229
1761310860355553000,10.826552978515625,0.21212291717529297,0.08602476119995117,0.03511321544647217
1761310860374165000,10.8451650390625,0.15017223358154297,0.00842905044555664,-0.16700851917266846
1761310860392778500,10.863778564453124,-0.08296775817871094,-0.04796266555786133,-0.2012929916381836
1761310860411390500,10.882390380859375,-0.3144550323486328,0.0719747543334961,-0.13001638650894165
1761310860430004000,10.90100390625,-0.2621612548828125,0.1094961166381836,0.12557899951934814
1761310860448616000,10.919615966796876,-0.16847515106201172,0.005439281463623047,0.1799061894416809
