time,seconds_elapsed,z,y,x
1761371193129411000,0.1884111328125,0.05730915069580078,0.026796340942382812,-0.10893470048904419
1761371193148022000,0.20702197265625,-0.0022859573364257812,0.0084381103515625,-0.023554295301437378
1761371193166634500,0.225634521484375,0.06487894058227539,0.057724952697753906,-0.07849222421646118
1761371193185245400,0.244245361328125,0.14766311645507812,0.01852130889892578,0.07291784882545471
1761371193203858000,0.26285791015625,0.1683673858642578,0.010835647583007812,0.15564662218093872
1761371193222469000,0.28146923828125,0.038340091705322266,-0.0648794174194336,0.17861749231815338
1761371193241081600,0.30008154296875,0.027530670166015625,0.015801429748535156,-0.01339942216873169
1761371193259692500,0.318692626953125,0.2908453941345215,-0.05718517303466797,-0.06122291088104248
1761371193278305000,0.337304931640625,0.4313945770263672,-0.1058340072631836,-0.02675849199295044
1761371193296916000,0.355916015625,0.25513410568237305,-0.040164947509765625,-0.15129539370536804
1761371193315528400,0.374528564453125,-0.02247476577758789,0.09673500061035156,-0.2022859752178192
1761371193334139400,0.393139404296875,-0.3550138473510742,0.18378639221191406,-0.21980273723602295
1761371193352752000,0.411752197265625,-0.5282196998596191,0.1267833709716797,-0.07953298091888428
1761371193371363000,0.430363037109375,-0.6267690658569336,0.03372764587402344,-0.07470780611038208
1761371193389975600,0.4489755859375,-0.4941401481628418,-0.05866527557373047,0.01846793293952942
1761371193408586500,0.46758642578125,-0.29424476623535156,-0.16003036499023438,0.003272324800491333
1761371193427199000,0.486198974609375,-0.11656951904296875,-0.1515054702758789,-0.022914141416549683
1761371193445810000,0.504809814453125,0.0993499755859375,-0.05625629425048828,-0.12347051501274109
1761371193464422400,0.52342236328125,0.11963510513305664,0.024646759033203125,-0.11199444532394409
1761371193483033300,0.542033447265625,0.10743141174316406,0.053618431091308594,-0.08968678116798401
1761371193501646000,0.56064599609375,0.1857142448425293,0.05974864959716797,-0.11278718709945679
1761371193520257000,0.579257080078125,0.23233842849731445,0.050286293029785156,-0.08889457583427429
1761371193538869500,0.597869384765625,0.20821857452392578,0.05731773376464844,-0.0299815833568573
1761371193557480400,0.61648046875,0.04852771759033203,0.03500175476074219,0.040998488664627075
1761371193576093000,0.635093017578125,-0.018773555755615234,-0.010136604309082031,-0.008002758026123047
1761371193594704000,0.653703857421875,-0.052843570709228516,-0.03406715393066406,-0.04895591735839844
1761371193613316600,0.672316650390625,-0.10264396667480469,-0.007083892822265625,-0.05409330129623413
1761371193631927600,0.690927490234375,0.006336688995361328,0.03184986114501953,-0.08278003334999084
1761371193650540000,0.7095400390625,0.06506061553955078,0.05701923370361328,-0.10731154680252075
1761371193669151000,0.72815087890625,-0.015351295471191406,0.03471851348876953,-0.07037419080734253
1761371193687763500,0.746763427734375,-0.02564239501953125,-0.0355682373046875,-0.08166339993476868
1761371193706374400,0.76537451171875,-0.07393407821655273,-0.03293895721435547,-0.0393243134021759
1761371193724987000,0.78398681640625,0.0037813186645507812,-0.0026960372924804688,0.021853238344192505
1761371193743598000,0.80259814453125,0.09435892105102539,0.002262115478515625,0.012138307094573975
1761371193762210600,0.82121044921875,0.012158870697021484,-0.01650238037109375,-0.0067834556102752686
1761371193780821500,0.839821533203125,-0.1291065216064453,-0.025930404663085938,-0.050561338663101196
1761371193799434000,0.85843408203125,-0.12564420700073242,-0.004866600036621094,-0.014586865901947021
1761371193818045000,0.877044921875,-0.005398750305175781,0.021238327026367188,0.04426366090774536
1761371193836657700,0.89565771484375,0.02810955047607422,0.04318428039550781,0.018458396196365356
1761371193855268600,0.9142685546875,-0.03955793380737305,-0.007994651794433594,-0.013150215148925781
1761371193873881000,0.932881103515625,-0.1468486785888672,-0.07476997375488281,-0.018343061208724976
1761371193892492000,0.951491943359375,-0.15249204635620117,-0.06923580169677734,-0.019330739974975586
1761371193911104500,0.9701044921875,0.05692577362060547,-0.02013111114501953,-0.05939888954162598
1761371193929715700,0.9887158203125,0.056532859802246094,0.03847789764404297,-0.12119364738464355
1761371193948328200,1.007328125,-0.031890869140625,-0.03372764587402344,-0.08619529008865356
1761371193966939100,1.025939208984375,0.026276111602783203,-0.073699951171875,-0.0586552619934082
1761371193985551600,1.044551513671875,0.18912029266357422,-0.01384735107421875,-0.08272361755371094
1761371194004162600,1.06316259765625,0.11107587814331055,0.0917062759399414,-0.021224141120910645
1761371194022775000,1.081775146484375,0.019845008850097656,0.2017679214477539,-0.018842965364456177
1761371194041386200,1.10038623046875,-0.008244514465332031,0.11638164520263672,0.057168424129486084
1761371194059998700,1.118998779296875,-0.1100916862487793,0.1013326644897461,0.14913105964660645
1761371194078609700,1.137609619140625,-0.1674952507019043,0.06872367858886719,0.12927865982055664
1761371194097222100,1.15622216796875,-0.17546796798706055,-0.026615142822265625,0.13586720824241638
1761371194115833000,1.1748330078125,-0.13637113571166992,-0.01718902587890625,0.017997384071350098
1761371194134445600,1.193445556640625,0.0490422248840332,-0.01373291015625,0.09263375401496887
1761371194153056800,1.212056884765625,0.20093345642089844,0.006587982177734375,0.15588626265525818
1761371194171669200,1.230669189453125,0.4451732635498047,-0.02507305145263672,0.2112826704978943
1761371194190280200,1.2492802734375,0.5135526657104492,-0.009909629821777344,0.17480511963367462
1761371194208892700,1.267892578125,0.42932987213134766,0.03650188446044922,0.08040192723274231
1761371194227503600,1.286503662109375,0.3469085693359375,0.040134429931640625,0.07163974642753601
1761371194246116000,1.3051162109375,-0.01661539077758789,0.03775501251220703,-0.1052275002002716
1761371194264727300,1.323727294921875,-0.13353586196899414,0.05710124969482422,-0.03574255108833313
1761371194283339800,1.34233984375,-0.17442083358764648,0.00772857666015625,-0.055023759603500366
1761371194301950700,1.36095068359375,-0.15221834182739258,-0.045607566833496094,-0.11895751953125
1761371194320563200,1.379563232421875,-0.2139897346496582,-0.09934329986572266,-0.1389681100845337
1761371194339174100,1.398174072265625,-0.09706306457519531,-0.09122371673583984,-0.1297149658203125
1761371194357787000,1.416786865234375,-0.04133272171020508,-0.041245460510253906,-0.13333266973495483
1761371194376397800,1.435397705078125,-0.004954814910888672,-0.004913330078125,-0.16746455430984497
1761371194395010300,1.45401025390625,0.01743316650390625,-0.03803253173828125,-0.16907578706741333
1761371194413621200,1.472621337890625,-0.035355567932128906,-0.014003753662109375,-0.11561137437820435
1761371194432233700,1.491233642578125,-0.03079080581665039,-0.011689186096191406,-0.0823121964931488
1761371194450845000,1.509844970703125,-0.03876018524169922,0.0097503662109375,-0.010253727436065674
1761371194469457400,1.52845751953125,-0.014554977416992188,0.005198478698730469,-0.0012836754322052002
1761371194488068400,1.547068359375,0.06284189224243164,-0.004220008850097656,0.05896031856536865
1761371194506680800,1.565680908203125,0.13502025604248047,-0.014069557189941406,0.05945587158203125
1761371194525291800,1.584291748046875,0.1585531234741211,-0.032174110412597656,0.08058559894561768
1761371194543904300,1.602904296875,0.12124204635620117,0.005015373229980469,0.08930066227912903
1761371194562515500,1.621515380859375,0.02878713607788086,-0.008688926696777344,0.10039359331130981
1761371194581128000,1.6401279296875,-0.031900882720947266,0.02057361602783203,0.046275168657302856
1761371194599739000,1.65873876953125,-0.06673765182495117,0.018990516662597656,0.02809053659439087
1761371194618351400,1.677351318359375,-0.08736753463745117,-0.030686378479003906,0.026329457759857178
1761371194636962300,1.69596240234375,-0.2150554656982422,-0.044775962829589844,0.07837751507759094
1761371194655575000,1.714574951171875,-0.25039124488830566,-0.030035972595214844,0.06734108924865723
1761371194674186000,1.73318603515625,-0.1945328712463379,0.0037794113159179688,0.017273008823394775
1761371194692798500,1.751798583984375,-0.19431829452514648,0.042545318603515625,-0.01747223734855652
1761371194711409400,1.770409423828125,-0.1430511474609375,0.03737831115722656,-0.05985042452812195
1761371194730022000,1.78902197265625,-0.017153263092041016,0.032181739807128906,-0.10911926627159119
1761371194748632800,1.8076328125,0.06550025939941406,-0.012518882751464844,-0.020809710025787354
1761371194767245600,1.82624560546875,0.09275674819946289,-0.06535720825195312,-0.022695422172546387
1761371194785856500,1.8448564453125,0.08234834671020508,-0.04205131530761719,-0.045496076345443726
1761371194804469000,1.863468994140625,0.1824350357055664,0.06324100494384766,-0.00604584813117981
1761371194823080000,1.882079833984375,0.1726832389831543,0.07224082946777344,-0.043663233518600464
1761371194841692400,1.9006923828125,0.1340932846069336,0.06031513214111328,-0.04945516586303711
1761371194860303600,1.9193037109375,0.030540943145751953,0.015716552734375,-0.0035961568355560303
1761371194878916000,1.937916015625,-0.014057636260986328,-0.031952857971191406,0.040051013231277466
1761371194897527000,1.956527099609375,-0.12330389022827148,-0.037987709045410156,0.06064292788505554
1761371194916139500,1.975139404296875,-0.14893579483032227,-0.04080486297607422,0.08508032560348511
1761371194934750500,1.99375048828125,-0.07462549209594727,-0.03566741943359375,0.09229212999343872
1761371194953363200,2.01236328125,-0.0713052749633789,-0.0000591278076171875,0.11870166659355164
1761371194971974100,2.03097412109375,0.0853571891784668,0.047699928283691406,0.09462961554527283
1761371194990586600,2.049586669921875,0.17181968688964844,0.05257415771484375,0.03952157497406006
1761371195009197600,2.068197509765625,0.07231903076171875,0.04750251770019531,0.004726767539978027
1761371195027810000,2.08681005859375,0.041255950927734375,0.03570079803466797,-0.020546555519104004
1761371195046421000,2.1054208984375,0.026847362518310547,0.015447616577148438,0.0059004127979278564
1761371195065033700,2.12403369140625,0.003875732421875,0.030480384826660156,0.03670576214790344
1761371195083644700,2.142644775390625,-0.030666351318359375,0.007081031799316406,0.06907781958580017
1761371195102257200,2.161257080078125,-0.06653308868408203,-0.022603988647460938,-0.024463266134262085
1761371195120868000,2.1798681640625,-0.04362201690673828,-0.08793163299560547,-0.06672188639640808
1761371195139480600,2.19848046875,-0.10529899597167969,-0.07059860229492188,-0.17676347494125366
1761371195158091800,2.217091796875,-0.1513838768005371,-0.04141521453857422,-0.19925445318222046
1761371195176704300,2.235704345703125,-0.0702047348022461,-0.0068187713623046875,-0.1174846887588501
1761371195195315200,2.254315185546875,0.014069080352783203,0.029135704040527344,-0.014380961656570435
1761371195213927700,2.272927734375,0.12102985382080078,0.04454612731933594,0.004753321409225464
1761371195232539000,2.291538818359375,0.1314702033996582,0.020502090454101562,0.1046050488948822
1761371195251151400,2.3101513671875,0.1563735008239746,0.03104400634765625,0.14483213424682617
1761371195269762300,2.32876220703125,0.1088247299194336,0.004810333251953125,0.13655397295951843
1761371195288374800,2.347374755859375,0.03142595291137695,-0.0000400543212890625,0.06602215766906738
1761371195306985700,2.36598583984375,-0.023195266723632812,-0.013757705688476562,0.052916765213012695
1761371195325598200,2.38459814453125,-0.008800983428955078,-0.008234977722167969,0.05647704005241394
1761371195344209400,2.40320947265625,-0.004625797271728516,-0.049195289611816406,0.024260401725769043
1761371195362822000,2.42182177734375,-0.05510425567626953,-0.009143829345703125,0.0010172724723815918
1761371195381432800,2.440432861328125,-0.046353816986083984,0.01813983917236328,0.01245078444480896
1761371195400045300,2.45904541015625,-0.026617050170898438,-0.0066356658935546875,0.03480696678161621
1761371195418656300,2.47765625,-0.005736351013183594,-0.03492927551269531,0.05675438046455383
1761371195437269000,2.49626904296875,-0.0044689178466796875,0.0032911300659179688,0.057893067598342896
1761371195455880000,2.5148798828125,0.044086456298828125,0.021058082580566406,0.04296430945396423
1761371195474492400,2.533492431640625,-0.022990703582763672,0.021711349487304688,0.028546273708343506
1761371195493103400,2.552103271484375,-0.18844366073608398,-0.044109344482421875,-0.002101719379425049
1761371195511715800,2.5707158203125,-0.12992334365844727,-0.07075214385986328,-0.05470454692840576
1761371195530327000,2.5893271484375,0.01920175552368164,-0.04045867919921875,-0.04319882392883301
1761371195548939500,2.607939453125,0.05227994918823242,0.0162506103515625,-0.04848363995552063
1761371195567550500,2.626550537109375,0.10702657699584961,0.05852031707763672,-0.09815138578414917
1761371195586163000,2.645162841796875,0.018245220184326172,0.045279502868652344,-0.06804749369621277
1761371195604774100,2.663774169921875,-0.026165485382080078,0.018915176391601562,-0.008620023727416992
1761371195623386600,2.68238671875,0.024863243103027344,-0.018253326416015625,0.02617153525352478
1761371195641997600,2.70099755859375,0.025289058685302734,-0.02431488037109375,0.058404773473739624
1761371195660610000,2.719610107421875,-0.03003978729248047,0.014414787292480469,0.05208253860473633
1761371195679221000,2.738220947265625,0.04974651336669922,0.02345561981201172,0.03681144118309021
1761371195697833700,2.756833740234375,0.034340858459472656,0.029801368713378906,0.06294062733650208
1761371195716444700,2.775444580078125,0.0318751335144043,0.03753376007080078,-0.002789407968521118
1761371195735057200,2.79405712890625,-0.02447032928466797,0.02901458740234375,-0.04846528172492981
1761371195753668000,2.812668212890625,-0.011165142059326172,0.018349647521972656,-0.057654380798339844
1761371195772280600,2.831280517578125,0.03760242462158203,-0.013265609741210938,-0.0782264769077301
1761371195790891800,2.849891845703125,0.003906726837158203,-0.009428024291992188,-0.055399537086486816
1761371195809504300,2.868504150390625,-0.03357267379760742,-0.014940261840820312,-0.06623104214668274
1761371195828115200,2.887115234375,-0.10874271392822266,-0.010027885437011719,-0.04436507821083069
1761371195846727700,2.905727783203125,-0.05342674255371094,-0.0026187896728515625,-0.025365889072418213
1761371195865339000,2.9243388671875,0.009792804718017578,0.004059791564941406,-0.0022721588611602783
1761371195883951400,2.942951416015625,-0.005829334259033203,0.021971702575683594,-0.0018184483051300049
1761371195902562300,2.961562255859375,-0.044476985931396484,-0.014073371887207031,0.045695602893829346
1761371195921174800,2.9801748046875,0.037633419036865234,0.018732070922851562,0.05101814866065979
1761371195939786000,2.998785888671875,0.09494686126708984,0.012237548828125,0.028736859560012817
1761371195958398500,3.0173984375,0.04132843017578125,0.012742996215820312,0.0020195841789245605
1761371195977009400,3.036009521484375,0.02692890167236328,-0.012722969055175781,0.0035532116889953613
1761371195995622000,3.054621826171875,-0.00360107421875,-0.027521133422851562,0.008653312921524048
1761371196014232800,3.07323291015625,-0.038631439208984375,0.0002574920654296875,0.019502073526382446
1761371196032845600,3.091845458984375,-0.025829792022705078,0.006198883056640625,0.053078800439834595
1761371196051456500,3.11045654296875,0.012423515319824219,-0.02559185028076172,0.08148407936096191
1761371196070069000,3.129069091796875,-0.015905380249023438,-0.02827167510986328,0.07918551564216614
1761371196088680000,3.147679931640625,-0.0655355453491211,-0.027753829956054688,0.02823808789253235
1761371196107292400,3.16629248046875,-0.04252004623413086,-0.02685070037841797,-0.016698062419891357
1761371196125903600,3.184903564453125,-0.018824100494384766,-0.02765941619873047,-0.03056490421295166
1761371196144516000,3.20351611328125,-0.01056528091430664,0.0160369873046875,-0.06628122925758362
1761371196163127000,3.222126953125,-0.008588790893554688,0.04007244110107422,-0.032228946685791016
1761371196181739500,3.240739501953125,0.07539606094360352,0.02349090576171875,0.009706169366836548
1761371196200350700,3.259350830078125,0.1685342788696289,0.0015916824340820312,0.036617130041122437
1761371196218963200,3.277963134765625,0.09513282775878906,0.021249771118164062,0.0846233069896698
1761371196237574100,3.29657421875,0.027957439422607422,0.037652015686035156,0.09374332427978516
1761371196256186600,3.3151865234375,-0.015970230102539062,0.0018777847290039062,0.07939299941062927
1761371196274797800,3.3337978515625,-0.04214048385620117,-0.016080856323242188,-0.005993485450744629
1761371196293410300,3.352410400390625,-0.07810068130493164,-0.06081581115722656,-0.020761102437973022
1761371196312021200,3.371021240234375,-0.14842891693115234,-0.05366230010986328,-0.04545867443084717
1761371196330633700,3.3896337890625,-0.13136911392211914,-0.04266834259033203,-0.054096609354019165
1761371196349244700,3.40824462890625,0.0011777877807617188,0.0032110214233398438,-0.04435989260673523
1761371196367857400,3.426857421875,0.09344720840454102,0.03260612487792969,0.011792778968811035
1761371196386468400,3.44546826171875,0.06615877151489258,0.024979591369628906,0.04376441240310669
1761371196405080800,3.464080810546875,0.019571304321289062,-0.010873794555664062,0.014056086540222168
1761371196423691800,3.48269189453125,-0.032860755920410156,-0.02650928497314453,-0.021778255701065063
1761371196442304500,3.501304443359375,0.009244441986083984,-0.020174026489257812,-0.026142746210098267
1761371196460915500,3.51991552734375,0.027225494384765625,0.02744770050048828,-0.02818116545677185
1761371196479528000,3.53852783203125,0.031032562255859375,0.040488243103027344,-0.055812329053878784
1761371196498139000,3.557138916015625,0.07283592224121094,0.027130126953125,-0.040582120418548584
1761371196516751400,3.57575146484375,0.013433456420898438,0.009286880493164062,-0.032862454652786255
1761371196535362600,3.594362548828125,-0.023574352264404297,-0.0029850006103515625,-0.032885849475860596
1761371196553975000,3.61297509765625,0.0057353973388671875,-0.01010894775390625,-0.005485862493515015
1761371196572586000,3.6315859375,-0.026839256286621094,-0.007489204406738281,0.03490424156188965
1761371196591198500,3.650198486328125,-0.027948856353759766,-0.007378578186035156,0.05317273736000061
1761371196609809700,3.6688095703125,-0.04136991500854492,-0.01633167266845703,0.06122404336929321
1761371196628422100,3.687422119140625,-0.09572410583496094,-0.014772415161132812,0.0945717990398407
1761371196647033000,3.706033203125,-0.03970003128051758,-0.005589485168457031,0.0947192907333374
1761371196665645600,3.7246455078125,-0.052008628845214844,0.01762676239013672,0.07149350643157959
1761371196684256500,3.743256591796875,0.008542537689208984,0.014441490173339844,0.07212820649147034
1761371196702869200,3.761869140625,0.04429006576538086,-0.010014533996582031,0.04730522632598877
1761371196721480200,3.780480224609375,0.0631856918334961,-0.02912139892578125,0.011062920093536377
1761371196740092700,3.7990927734375,0.027881622314453125,0.010695457458496094,-0.03819039463996887
1761371196758703600,3.81770361328125,0.05709266662597656,0.0299835205078125,-0.07925698161125183
1761371196777316400,3.83631640625,0.10511445999145508,0.013550758361816406,-0.08146250247955322
1761371196795927300,3.85492724609375,0.13004350662231445,0.0243988037109375,-0.07615652680397034
1761371196814539800,3.873539794921875,0.0714421272277832,0.02979278564453125,-0.10246211290359497
1761371196833150700,3.892150634765625,0.012104511260986328,0.011400222778320312,-0.07148867845535278
1761371196851763200,3.91076318359375,-0.05712890625,0.0010976791381835938,0.04034066200256348
1761371196870374400,3.92937451171875,-0.06401586532592773,-0.024913787841796875,0.08709186315536499
1761371196888987000,3.94798681640625,-0.04209709167480469,-0.019855499267578125,0.04735678434371948
1761371196907597800,3.966597900390625,-0.0326995849609375,-0.01977252960205078,0.02353110909461975
1761371196926210300,3.985210205078125,-0.06210660934448242,-0.025865554809570312,0.01287221908569336
1761371196944821500,4.003821533203125,-0.05668354034423828,0.015483856201171875,0.00686916708946228
1761371196963434000,4.02243408203125,-0.017175674438476562,0.03697776794433594,-0.004206061363220215
1761371196982045000,4.041044921875,0.06871175765991211,0.01751708984375,0.05776423215866089
1761371197000657400,4.059657470703125,0.04541778564453125,0.0031328201293945312,0.03859299421310425
1761371197019268400,4.078268310546875,0.09924602508544922,-0.0023889541625976562,0.020393788814544678
1761371197037881000,4.096881103515625,0.03312826156616211,0.02445697784423828,-0.02156737446784973
1761371197056492000,4.115491943359375,-0.04291105270385742,-0.0008087158203125,-0.0016939640045166016
1761371197075104500,4.1341044921875,-0.052271366119384766,-0.038405418395996094,-0.016819477081298828
1761371197093715500,4.152715576171875,-0.04095745086669922,-0.0019378662109375,-0.05993974208831787
1761371197112328200,4.171328125,0.009041309356689453,0.02383899688720703,-0.05087393522262573
1761371197130939100,4.189939208984375,0.0036764144897460938,0.03721427917480469,-0.016821235418319702
1761371197149551600,4.208551513671875,0.02460336685180664,0.01025390625,-0.01877117156982422
1761371197168162600,4.22716259765625,0.03304290771484375,-0.04371452331542969,0.019772231578826904
1761371197186775300,4.245775390625,0.008152961730957031,-0.05366325378417969,0.0404895544052124
1761371197205386200,4.26438623046875,-0.01919841766357422,-0.0255126953125,0.08919551968574524
1761371197223998700,4.282998779296875,0.015511512756347656,-0.019431114196777344,0.09755930304527283
1761371197242609700,4.301609619140625,-0.06632709503173828,-0.026983261108398438,0.11205771565437317
1761371197261222100,4.32022216796875,-0.012350082397460938,-0.03885650634765625,-0.020573914051055908
1761371197279833300,4.338833251953125,0.009600162506103516,-0.03191089630126953,-0.06437066197395325
1761371197298445800,4.35744580078125,0.23640727996826172,-0.003966331481933594,-0.036000967025756836
1761371197317056800,4.376056884765625,0.1347212791442871,0.027791976928710938,-0.038806408643722534
1761371197335669200,4.394669189453125,0.07627725601196289,0.04847431182861328,-0.064826101064682
1761371197354280400,4.413280517578125,0.022165775299072266,0.03316307067871094,-0.0948076844215393
1761371197372893000,4.431892822265625,-0.0884394645690918,-0.02256488800048828,-0.026420950889587402
1761371197391504000,4.45050390625,-0.12081336975097656,-0.020951271057128906,-0.039582788944244385
1761371197410116400,4.469116455078125,-0.049712181091308594,-0.00000286102294921875,0.014120727777481079
1761371197428727300,4.487727294921875,0.012027263641357422,0.00864410400390625,0.01571330428123474
1761371197447340000,4.506340087890625,-0.04613924026489258,-0.010537147521972656,0.014983534812927246
1761371197465951000,4.524950927734375,-0.1300048828125,0.004797935485839844,0.037034809589385986
1761371197484563500,4.5435634765625,0.005373477935791016,0.015341758728027344,0.041394561529159546
1761371197503174400,4.56217431640625,-0.0034880638122558594,0.0365447998046875,0.03556394577026367
1761371197521787000,4.580786865234375,-0.025765419006347656,0.00812530517578125,0.07215619087219238
1761371197540398000,4.599398193359375,0.030033588409423828,-0.007564544677734375,0.023271799087524414
1761371197559010600,4.618010498046875,-0.014480113983154297,-0.0231170654296875,0.017658114433288574
1761371197577621500,4.63662158203125,-0.025197982788085938,-0.01880645751953125,0.02384054660797119
1761371197596234000,4.65523388671875,-0.024331092834472656,-0.0027446746826171875,0.03416749835014343
1761371197614845200,4.67384521484375,0.06609153747558594,0.06342220306396484,0.03681102395057678
1761371197633457700,4.692457763671875,0.07164573669433594,0.06323623657226562,0.04344332218170166
1761371197652068600,4.711068603515625,0.05478858947753906,0.020239830017089844,0.03492900729179382
1761371197670681000,4.72968115234375,-0.0531306266784668,-0.022924423217773438,0.03965747356414795
1761371197689292000,4.7482919921875,-0.035208702087402344,-0.03837394714355469,-0.0004913210868835449
1761371197707904500,4.766904541015625,-0.028643131256103516,-0.057610511779785156,-0.01902705430984497
1761371197726515700,4.785515625,-0.04007291793823242,-0.030981063842773438,-0.04250973463058472
1761371197745128200,4.804128173828125,-0.0407099723815918,0.01856517791748047,-0.04706704616546631
1761371197763739100,4.8227392578125,0.010090827941894531,0.03379249572753906,-0.06498026847839355
1761371197782351600,4.8413515625,0.11264371871948242,0.0148162841796875,-0.06952238082885742
1761371197800962800,4.859962890625,0.0684366226196289,-0.01574230194091797,-0.05423861742019653
1761371197819575300,4.8785751953125,0.049997806549072266,-0.012828826904296875,-0.07155144214630127
1761371197838186200,4.897186279296875,0.07338619232177734,-0.006381988525390625,-0.09377282857894897
1761371197856798700,4.915798828125,-0.003909111022949219,-0.012106895446777344,-0.05283534526824951
1761371197875409700,4.93440966796875,-0.14381074905395508,-0.009348869323730469,-0.02327483892440796
1761371197894022100,4.953022216796875,-0.10454320907592773,-0.0030870437622070312,0.002794206142425537
1761371197912633300,4.97163330078125,-0.013287067413330078,0.019458770751953125,0.020995110273361206
1761371197931245800,4.990245849609375,0.08888578414916992,0.016851425170898438,0.05605208873748779
1761371197949856800,5.008856689453125,0.059008121490478516,-0.0055713653564453125,0.04661676287651062
1761371197968469200,5.02746923828125,-0.047286033630371094,-0.02894878387451172,-0.021351516246795654
1761371197987080400,5.04608056640625,-0.049521446228027344,-0.008672714233398438,-0.030237257480621338
1761371198005693000,5.06469287109375,-0.014668464660644531,0.010968208312988281,-0.0020335912704467773
1761371198024303900,5.083303955078125,0.06536293029785156,0.03133201599121094,0.06073912978172302
1761371198042916400,5.101916259765625,0.031163692474365234,0.039267539978027344,0.0543043315410614
1761371198061527300,5.12052734375,0.02178335189819336,0.035048484802246094,0.036845892667770386
1761371198080140000,5.13914013671875,0.052987098693847656,0.03293132781982422,-0.027400344610214233
1761371198098751000,5.1577509765625,-0.015577316284179688,-0.020211219787597656,-0.007949531078338623
1761371198117363500,5.176363525390625,-0.047898292541503906,-0.024059295654296875,-0.0264643132686615
1761371198135974400,5.194974365234375,0.018872737884521484,-0.011574745178222656,-0.025000959634780884
1761371198154587000,5.2135869140625,0.0020914077758789062,0.02125263214111328,-0.0202772319316864
1761371198173198000,5.232197998046875,-0.032761573791503906,0.025087356567382812,-0.048726052045822144
1761371198191810600,5.250810546875,0.04579782485961914,-0.011027336120605469,-0.0012354254722595215
1761371198210421500,5.26942138671875,0.06714010238647461,-0.02543163299560547,0.02200978994369507
1761371198229034000,5.288033935546875,0.055126190185546875,0.009345054626464844,0.004297614097595215
1761371198247645200,5.306645263671875,0.10576963424682617,0.016744613647460938,0.016026318073272705
1761371198266257700,5.325257568359375,0.050018310546875,0.014071464538574219,0.08765354752540588
1761371198284868600,5.34386865234375,-0.024215221405029297,-0.01667499542236328,0.08953681588172913
1761371198303481000,5.362481201171875,-0.059144020080566406,-0.013429641723632812,0.015715330839157104
1761371198322092000,5.381092041015625,-0.08025455474853516,-0.023858070373535156,0.025207549333572388
1761371198340704500,5.39970458984375,-0.15694856643676758,-0.039554595947265625,0.0397610068321228
1761371198359315700,5.418315673828125,-0.10493993759155273,-0.044060707092285156,0.022583991289138794
1761371198377928200,5.43692822265625,-0.013609886169433594,-0.02022266387939453,-0.07553690671920776
1761371198396539100,5.4555390625,0.004999637603759766,0.02141094207763672,-0.06987723708152771
1761371198415151600,5.474151611328125,0.009079456329345703,0.035941123962402344,-0.08510154485702515
1761371198433762600,5.492762451171875,0.07493257522583008,0.014423370361328125,-0.07669714093208313
1761371198452375300,5.511375244140625,0.06790399551391602,0.03239917755126953,-0.021678030490875244
1761371198470986200,5.529986328125,0.006000041961669922,-0.0065975189208984375,0.03230389952659607
1761371198489598700,5.5485986328125,-0.054134368896484375,-0.0277252197265625,0.07373940944671631
1761371198508209700,5.567209716796875,-0.06927061080932617,-0.007575035095214844,0.06502652168273926
1761371198526822100,5.585822265625,0.0018620491027832031,0.03754901885986328,0.03950336575508118
1761371198545433300,5.604433349609375,0.0007090568542480469,0.02025318145751953,0.05693089962005615
1761371198564045800,5.6230458984375,-0.031199932098388672,-0.023906707763671875,0.07445588707923889
1761371198582656800,5.64165673828125,-0.02322530746459961,-0.038146018981933594,0.021514207124710083
1761371198601269200,5.660269287109375,0.028619766235351562,0.0017652511596679688,0.032451331615448
1761371198619880400,5.67888037109375,-0.0076904296875,0.040340423583984375,0.04247844219207764
1761371198638493000,5.697492919921875,0.001361846923828125,0.031027793884277344,0.07682499289512634
1761371198657104000,5.716103759765625,0.012173652648925781,-0.028957366943359375,0.05920735001564026
1761371198675716400,5.73471630859375,0.012784004211425781,-0.012305259704589844,0.0761006772518158
1761371198694327300,5.753327392578125,0.009060382843017578,0.0039825439453125,0.08211055397987366
1761371198712939800,5.771939697265625,0.03561687469482422,-0.024916648864746094,0.025268465280532837
1761371198731551000,5.790551025390625,0.07092618942260742,-0.047692298889160156,-0.0016097426414489746
1761371198750163500,5.80916357421875,0.06787681579589844,-0.03756523132324219,-0.05633637309074402
1761371198768774400,5.8277744140625,-0.06728553771972656,0.0056552886962890625,-0.07183030247688293
1761371198787387000,5.846386962890625,-0.16789484024047852,-0.0098114013671875,-0.0654611587524414
1761371198805997800,5.864997802734375,-0.16951513290405273,-0.025821685791015625,0.041617244482040405
1761371198824610600,5.883610595703125,-0.03542947769165039,-0.012940406799316406,0.115567147731781
1761371198843221500,5.902221435546875,0.13890838623046875,0.0048046112060546875,0.03462931513786316
1761371198861834000,5.920833984375,0.14320993423461914,0.05045509338378906,-0.07146114110946655
1761371198880445000,5.93944482421875,0.04996156692504883,0.09171295166015625,-0.12541237473487854
1761371198899057400,5.958057373046875,-0.015712738037109375,0.09921932220458984,-0.07741385698318481
1761371198917668600,5.976668701171875,-0.0033483505249023438,0.05603790283203125,-0.00820872187614441
1761371198936281000,5.995281005859375,0.10867786407470703,-0.017151832580566406,0.05226263403892517
1761371198954892000,6.01389208984375,0.09462976455688477,-0.05712127685546875,0.06753727793693542
1761371198973504500,6.03250439453125,-0.036162376403808594,-0.06122016906738281,0.021219193935394287
1761371198992115500,6.051115478515625,-0.15246915817260742,-0.029336929321289062,-0.033020615577697754
1761371199010728000,6.06972802734375,-0.21695899963378906,0.014597892761230469,-0.07048103213310242
1761371199029339100,6.088339111328125,-0.09238910675048828,0.020893096923828125,-0.03473314642906189
1761371199047951600,6.10695166015625,-0.0025224685668945312,0.024669647216796875,-0.006818115711212158
1761371199066562600,6.1255625,0.07387542724609375,0.013628005981445312,-0.007215648889541626
1761371199085175000,6.144175048828125,0.15234851837158203,-0.0002956390380859375,-0.042746275663375854
1761371199103786000,6.162785888671875,0.12095355987548828,0.020002365112304688,0.023157477378845215
1761371199122398700,6.181398681640625,0.054804325103759766,0.05283355712890625,0.05641147494316101
1761371199141009700,6.200009765625,-0.002265453338623047,0.054177284240722656,0.053991734981536865
1761371199159622100,6.2186220703125,0.027597904205322266,-0.00083160400390625,0.04032972455024719
1761371199178233000,6.237233154296875,-0.0775766372680664,-0.039592742919921875,0.03228425979614258
1761371199196845600,6.255845458984375,-0.06366157531738281,-0.0458984375,0.008179396390914917
1761371199215456500,6.27445654296875,-0.08012056350708008,-0.02334308624267578,-0.011077433824539185
1761371199234069200,6.2930693359375,-0.08335208892822266,0.008335113525390625,-0.026628196239471436
1761371199252680200,6.31168017578125,-0.04381513595581055,0.0071392059326171875,-0.01204150915145874
1761371199271292700,6.330292724609375,0.0006461143493652344,0.020414352416992188,0.037224143743515015
1761371199289903600,6.348903564453125,0.08951473236083984,0.03490257263183594,0.029107481241226196
1761371199308516000,6.36751611328125,0.14276838302612305,0.02866840362548828,0.04940485954284668
1761371199327127300,6.386127197265625,0.07461023330688477,-0.010656356811523438,0.029167860746383667
1761371199345739800,6.40473974609375,-0.017412662506103516,-0.03192710876464844,0.02551385760307312
1761371199364350700,6.423350830078125,-0.025555133819580078,-0.021666526794433594,0.024122238159179688
1761371199382963200,6.441963134765625,-0.024504661560058594,0.006922721862792969,0.04624056816101074
1761371199401574100,6.46057421875,0.024154186248779297,0.010631561279296875,0.058982521295547485
1761371199420186600,6.4791865234375,-0.0075893402099609375,-0.025604248046875,0.05328497290611267
1761371199438797800,6.4977978515625,-0.08618974685668945,-0.02474498748779297,0.06762158870697021
1761371199457410300,6.516410400390625,-0.0425562858581543,-0.02312755584716797,0.004445374011993408
1761371199476021200,6.535021240234375,0.0017580986022949219,-0.0029573440551757812,-0.014665395021438599
1761371199494633700,6.5536337890625,0.06916522979736328,0.01145172119140625,-0.04115349054336548
1761371199513244700,6.57224462890625,0.0891880989074707,0.03596687316894531,-0.08653053641319275
1761371199531857200,6.590857177734375,0.10569572448730469,0.014544486999511719,-0.09857988357543945
1761371199550468400,6.60946826171875,0.03539323806762695,-0.011121749877929688,-0.07885932922363281
1761371199569080800,6.628080810546875,-0.03095245361328125,-0.04708671569824219,-0.039120227098464966
1761371199587691800,6.64669189453125,-0.08524370193481445,-0.07855701446533203,0.0020911097526550293
1761371199606304300,6.66530419921875,-0.06881284713745117,-0.015170097351074219,0.01014283299446106
1761371199624915500,6.68391552734375,-0.029936790466308594,0.05348682403564453,0.00878491997718811
1761371199643528000,6.70252783203125,0.007660388946533203,0.06825065612792969,-0.004494458436965942
1761371199662139000,6.721138916015625,0.05643033981323242,0.05636882781982422,0.0033277273178100586
1761371199680751400,6.73975146484375,0.007931232452392578,0.009982109069824219,0.01379626989364624
1761371199699362300,6.7583623046875,-0.002064228057861328,-0.027452468872070312,0.01456451416015625
1761371199717974800,6.776974853515625,-0.000476837158203125,-0.03993034362792969,0.02015751600265503
1761371199736586000,6.7955859375,0.06919002532958984,-0.031510353088378906,0.007679611444473267
1761371199755198500,6.814198486328125,-0.0006470680236816406,-0.00022411346435546875,0.02409455180168152
1761371199773809400,6.832809326171875,0.037689208984375,0.018077850341796875,0.029319405555725098
1761371199792422000,6.851421875,0.026376724243164062,0.009677886962890625,-0.009638369083404541
1761371199811032800,6.87003271484375,-0.029246807098388672,0.0041484832763671875,-0.02815309166908264
1761371199829645300,6.888645263671875,-0.05333900451660156,-0.01711559295654297,-0.07037952542304993
1761371199848256300,6.90725634765625,-0.08159780502319336,-0.05486583709716797,-0.022155076265335083
1761371199866869000,6.925868896484375,-0.044857025146484375,-0.032928466796875,-0.021806389093399048
1761371199885480000,6.94447998046875,0.09968376159667969,0.008670806884765625,-0.07606720924377441
1761371199904092400,6.963092529296875,0.03300189971923828,0.03203392028808594,0.026470869779586792
1761371199922703400,6.981703369140625,0.005491733551025391,0.014833450317382812,0.002065330743789673
1761371199941315800,7.00031591796875,0.005893707275390625,-0.019451141357421875,0.020435035228729248
1761371199959926800,7.0189267578125,0.02703094482421875,-0.0059413909912109375,-0.0039003193378448486
1761371199978539500,7.03753955078125,0.05505228042602539,-0.007411956787109375,0.0265485942363739
1761371199997150500,7.056150390625,0.05304861068725586,0.00955963134765625,0.057235658168792725
1761371200015763000,7.074762939453125,-0.021814346313476562,0.02615642547607422,0.06945130228996277
1761371200034374000,7.093373779296875,-0.1096186637878418,0.02424335479736328,0.07019799947738647
1761371200052986400,7.111986328125,-0.13373422622680664,0.00036334991455078125,0.056903570890426636
1761371200071597300,7.130597412109375,-0.0490570068359375,-0.03608894348144531,-0.024135887622833252
1761371200090210000,7.1492099609375,0.049784183502197266,-0.045803070068359375,-0.09725886583328247
1761371200108821000,7.167821044921875,0.11208248138427734,-0.023714065551757812,-0.026619672775268555
1761371200127433500,7.18643359375,0.12388849258422852,0.014987945556640625,0.04193881154060364
1761371200146044400,7.20504443359375,0.2146759033203125,0.04324150085449219,0.03431969881057739
1761371200164657000,7.223656982421875,0.2044210433959961,0.06774234771728516,-0.021780550479888916
1761371200183267800,7.242267822265625,0.15265607833862305,0.02648639678955078,-0.06547117233276367
1761371200201880600,7.260880615234375,0.13794851303100586,-0.010419845581054688,-0.028213143348693848
1761371200220491500,7.279491455078125,-0.032474517822265625,-0.043412208557128906,0.05542394518852234
1761371200239104000,7.29810400390625,-0.17279338836669922,-0.06189918518066406,0.07148149609565735
1761371200257715000,7.31671484375,-0.252866268157959,-0.011786460876464844,0.08946356177330017
1761371200285632500,7.344632568359375,-0.23675060272216797,0.025435447692871094,0.07712933421134949
1761371200304245200,7.363245361328125,-0.10141181945800781,0.009687423706054688,0.03969627618789673
1761371200322856200,7.381856201171875,-0.13607454299926758,-0.008917808532714844,0.0770362913608551
1761371200341468700,7.40046875,-0.09885215759277344,-0.033188819885253906,0.05678534507751465
1761371200360079600,7.41907958984375,0.031020641326904297,-0.033294677734375,-0.0007050037384033203
1761371200378692000,7.437692138671875,0.08734703063964844,0.012425422668457031,-0.004819333553314209
1761371200397303000,7.456302978515625,0.07987594604492188,0.058661460876464844,-0.07991248369216919
1761371200415915800,7.474915771484375,0.11882257461547852,0.04153633117675781,-0.07402032613754272
1761371200434526700,7.493526611328125,0.12154388427734375,0.033222198486328125,-0.040749430656433105
1761371200453139200,7.51213916015625,0.08718347549438477,0.056603431701660156,-0.014811336994171143
1761371200471750100,7.530750244140625,0.06238365173339844,0.0106201171875,-0.020038306713104248
1761371200490362600,7.549362548828125,-0.019389629364013672,-0.024425506591796875,-0.015611588954925537
1761371200508973600,7.5679736328125,-0.08361005783081055,-0.05537128448486328,0.005181252956390381
1761371200527586000,7.5865859375,-0.13586091995239258,-0.021262168884277344,0.0019608139991760254
1761371200546197000,7.605197021484375,-0.12793970108032227,0.01038360595703125,0.005830705165863037
1761371200564809700,7.623809814453125,0.012931346893310547,0.022147178649902344,-0.013653576374053955
1761371200583420700,7.642420654296875,0.11391639709472656,-0.00478363037109375,0.017137110233306885
1761371200602033200,7.661033203125,0.092132568359375,-0.015555381774902344,0.014935314655303955
1761371200620644000,7.67964404296875,-0.022343158721923828,0.0068569183349609375,-0.025590479373931885
1761371200639256600,7.698256591796875,-0.08118343353271484,-0.0009088516235351562,0.021106064319610596
1761371200657867500,7.716867431640625,-0.02494049072265625,0.008716583251953125,0.010643184185028076
1761371200676480300,7.735480224609375,0.046628475189208984,-0.0012693405151367188,0.02528691291809082
1761371200695091200,7.75409130859375,0.06238889694213867,-0.021503448486328125,0.019945859909057617
1761371200713703700,7.77270361328125,-0.041620731353759766,-0.012880325317382812,-0.024631381034851074
1761371200732314600,7.791314697265625,-0.14046716690063477,-0.0030202865600585938,-0.0926545262336731
1761371200750927000,7.809927001953125,-0.11730384826660156,-0.027373313903808594,-0.07649940252304077
1761371200769538000,7.8285380859375,-0.09273242950439453,-0.026494979858398438,0.0014110803604125977
1761371200788150800,7.84715087890625,-0.12713003158569336,0.0033712387084960938,0.02308100461959839
1761371200806761700,7.86576171875,-0.06629467010498047,0.005274772644042969,0.03911334276199341
1761371200825374200,7.884374267578125,0.01065206527709961,0.030574798583984375,0.014686048030853271
1761371200843985200,7.902985107421875,0.11937332153320312,0.07482147216796875,-0.05859309434890747
1761371200862597600,7.92159765625,0.18215560913085938,0.0412750244140625,-0.048608243465423584
1761371200881208600,7.94020849609375,0.16489505767822266,0.008874893188476562,0.010290741920471191
1761371200899821000,7.958821044921875,0.11167573928833008,-0.00020313262939453125,0.018899977207183838
1761371200918432000,7.977431884765625,0.05910015106201172,-0.019054412841796875,0.021170437335968018
1761371200937044700,7.996044677734375,-0.022181987762451172,-0.011435508728027344,0.05918112397193909
1761371200955655700,8.01465576171875,-0.11410903930664062,-0.017189979553222656,0.07322320342063904
1761371200974268200,8.03326806640625,-0.12345600128173828,-0.038016319274902344,0.08547350764274597
1761371200992879000,8.051879150390626,-0.025298595428466797,-0.022551536560058594,0.0743592381477356
1761371201011491600,8.07049169921875,0.00652313232421875,-0.019639015197753906,0.04734545946121216
1761371201030102500,8.0891025390625,0.006567955017089844,-0.0080718994140625,0.07962831854820251
1761371201048715300,8.10771533203125,-0.023775577545166016,-0.014496803283691406,0.037194401025772095
1761371201067326200,8.126326171875,0.013667583465576172,-0.0019845962524414062,-0.02482694387435913
1761371201085938700,8.144938720703125,0.02661895751953125,0.04295921325683594,-0.018712639808654785
1761371201104549600,8.163549560546874,0.015994548797607422,0.03743267059326172,-0.0438418984413147
1761371201123162000,8.182162109375,0.04555082321166992,0.036431312561035156,-0.10747462511062622
1761371201141773000,8.20077294921875,0.01843118667602539,0.007277488708496094,-0.15181046724319458
1761371201160385500,8.219385498046876,-0.0764155387878418,-0.027464866638183594,-0.05760824680328369
1761371201178996500,8.23799658203125,-0.12357187271118164,-0.0527801513671875,-0.006688237190246582
1761371201197609200,8.256609130859376,-0.13161849975585938,-0.062394142150878906,-0.0015603303909301758
1761371201216220200,8.27522021484375,0.0035147666931152344,-0.0671072006225586,-0.03908020257949829
1761371201234832600,8.29383251953125,0.11600208282470703,-0.012354850769042969,0.0041468143463134766
1761371201253443600,8.312443603515625,0.1530132293701172,0.059836387634277344,0.007156312465667725
1761371201272056000,8.33105615234375,0.17775869369506836,0.0627756118774414,-0.05607050657272339
1761371201290667000,8.3496669921875,0.1043558120727539,0.0021486282348632812,-0.08589309453964233
1761371201309279700,8.36827978515625,-0.0354609489440918,-0.029920578002929688,-0.05990481376647949
1761371201327890700,8.386890625,-0.01827859878540039,-0.025063514709472656,-0.03523343801498413
1761371201346503200,8.405503173828125,-0.01168680191040039,-0.011180877685546875,-0.018319249153137207
1761371201365114000,8.424114013671876,-0.014696598052978516,-0.020735740661621094,-0.0002582669258117676
1761371201383726600,8.4427265625,-0.00861978530883789,0.007575035095214844,0.05055516958236694
1761371201402337500,8.461337646484376,-0.040673255920410156,0.0421142578125,0.03699558973312378
1761371201420950000,8.479949951171875,-0.05860185623168945,0.01758861541748047,0.054067373275756836
1761371201439561000,8.49856103515625,-0.018160343170166016,-0.015102386474609375,0.08720114827156067
1761371201458173700,8.517173583984375,-0.016811370849609375,-0.025533676147460938,0.10740482807159424
1761371201476784600,8.53578466796875,-0.051451683044433594,-0.03974342346191406,0.13400053977966309
1761371201495397000,8.554397216796875,-0.05615806579589844,-0.038741111755371094,0.11651861667633057
1761371201514008000,8.573008056640624,-0.014563560485839844,-0.039615631103515625,0.09584188461303711
1761371201532620500,8.59162060546875,0.06877851486206055,-0.034127235412597656,0.03823220729827881
1761371201551231500,8.6102314453125,0.07606220245361328,-0.0061931610107421875,0.016778111457824707
1761371201569844200,8.62884423828125,0.025119781494140625,0.022754669189453125,-0.010273575782775879
1761371201588455200,8.647455078125,0.07003211975097656,0.06667327880859375,-0.05994969606399536
1761371201607067600,8.666067626953126,0.01767253875732422,0.02476787567138672,0.002997159957885742
1761371201625678600,8.6846787109375,-0.005065441131591797,0.010188102722167969,-0.011480093002319336
1761371201644291000,8.703291015625,-0.04702281951904297,-0.010181427001953125,0.006927430629730225
1761371201662902000,8.721902099609375,-0.0015468597412109375,0.007723808288574219,0.024339735507965088
1761371201681514500,8.740514404296874,0.04768657684326172,0.029024124145507812,0.055762261152267456
1761371201700125400,8.75912548828125,0.009665489196777344,0.03328132629394531,0.049384742975234985
1761371201718738200,8.77773828125,-0.02506256103515625,0.02565479278564453,0.0480370819568634
1761371201737349000,8.79634912109375,0.014671802520751953,0.01571941375732422,0.03292092680931091
1761371201755961600,8.814961669921875,0.011209964752197266,-0.02215862274169922,0.06823819875717163
1761371201774572500,8.833572509765625,-0.057645320892333984,-0.009469032287597656,0.02157008647918701
1761371201793185000,8.85218505859375,-0.04794788360595703,-0.017807960510253906,-0.014554530382156372
1761371201811796000,8.8707958984375,-0.037016868591308594,0.0071811676025390625,0.01817500591278076
1761371201830408700,8.88940869140625,0.016086101531982422,0.035793304443359375,0.043093204498291016
1761371201849019600,8.90801953125,-0.009674549102783203,0.014218330383300781,0.09402060508728027
1761371201867632000,8.926632080078125,-0.025410175323486328,0.005649566650390625,0.07447654008865356
1761371201886243000,8.9452431640625,0.07021856307983398,0.017688751220703125,-0.009267270565032959
1761371201904855600,8.96385546875,0.12309885025024414,0.046443939208984375,-0.07993549108505249
1761371201923466500,8.982466552734374,-0.04530048370361328,0.02990436553955078,-0.05143347382545471
1761371201942079200,9.001079345703126,-0.06982994079589844,-0.03405284881591797,-0.06702563166618347
1761371201960690200,9.019690185546875,-0.04818105697631836,-0.04844379425048828,-0.014140129089355469
1761371201979302700,9.038302734375,0.010685920715332031,-0.03224372863769531,0.02422952651977539
1761371201997913600,9.05691357421875,0.09777498245239258,-0.006199836730957031,0.0630982518196106
1761371202016526000,9.075526123046876,-0.024408340454101562,0.05353736877441406,0.0552653968334198
1761371202035137000,9.094136962890625,-0.040764808654785156,0.03931903839111328,0.007725656032562256
1761371202053749500,9.11274951171875,-0.06978416442871094,-0.020133018493652344,0.046705007553100586
1761371202072360400,9.1313603515625,-0.04275178909301758,-0.04221153259277344,0.003255903720855713
1761371202090973200,9.14997314453125,-0.030688762664794922,-0.016839981079101562,-0.04834666848182678
1761371202109584100,9.168584228515625,-0.04057598114013672,-0.001438140869140625,-0.03147974610328674
1761371202128196600,9.187196533203124,-0.05596303939819336,-0.00010967254638671875,-0.004067510366439819
1761371202146807600,9.2058076171875,-0.055364131927490234,-0.021727561950683594,0.034539759159088135
1761371202165420000,9.224419921875,0.01628398895263672,-0.007659912109375,0.02350643277168274
1761371202184031000,9.243031005859375,0.04454612731933594,0.0143280029296875,-0.005766570568084717
1761371202202643700,9.261643798828125,0.009490013122558594,0.016550064086914062,-0.005833685398101807
1761371202221254700,9.280254638671876,-0.019844532012939453,0.02608203887939453,-0.06013783812522888
1761371202239867100,9.2988671875,-0.018321990966796875,0.011911392211914062,-0.05705744028091431
1761371202258478000,9.31747802734375,-0.01192474365234375,0.019254684448242188,-0.05922254920005798
1761371202277090600,9.336090576171875,0.03920698165893555,0.016765594482421875,0.020885974168777466
1761371202295701500,9.354701416015626,0.052544593811035156,0.04149150848388672,-0.015070915222167969
1761371202314314200,9.373314208984375,-0.004038333892822266,0.02100658416748047,0.024813532829284668
1761371202332925200,9.39192529296875,-0.11138153076171875,0.029784202575683594,0.06463712453842163
1761371202351537700,9.41053759765625,-0.10476446151733398,0.02091503143310547,0.09532982110977173
1761371202370148600,9.429148681640624,0.018444061279296875,-0.023180007934570312,0.0062400102615356445
1761371202388761000,9.447760986328126,0.20450687408447266,0.018505096435546875,-0.09045439958572388
1761371202407372000,9.4663720703125,0.017804622650146484,0.01363372802734375,-0.00792837142944336
1761371202425984500,9.484984619140626,0.002750396728515625,0.008795738220214844,-0.06155514717102051
1761371202444595500,9.503595458984375,0.04979228973388672,-0.0077953338623046875,-0.026681959629058838
1761371202463208200,9.522208251953124,-0.01641368865966797,0.008671760559082031,-0.056631386280059814
1761371202481819100,9.540819091796875,-0.05784463882446289,0.015332221984863281,-0.022562026977539062
1761371202500431600,9.559431640625,-0.06880617141723633,0.003937721252441406,-0.001000046730041504
1761371202519042600,9.57804248046875,-0.045391082763671875,-0.015760421752929688,0.03933396935462952
1761371202537655000,9.596655029296874,0.009520530700683594,-0.016149520874023438,0.001401662826538086
1761371202556266000,9.615265869140625,0.02579212188720703,-0.01916790008544922,0.00920635461807251
1761371202574878700,9.633878662109375,-0.08844280242919922,-0.016409873962402344,0.03754544258117676
1761371202593489700,9.65248974609375,-0.04192543029785156,-0.03178119659423828,-0.001495063304901123
1761371202612102100,9.67110205078125,0.006635189056396484,-0.06004047393798828,0.005391418933868408
1761371202630713000,9.689713134765626,-0.045499324798583984,-0.06141090393066406,0.04616627097129822
1761371202649325600,9.70832568359375,-0.09766721725463867,-0.0666055679321289,0.09239253401756287
1761371202667936500,9.7269365234375,-0.21874761581420898,-0.05495929718017578,0.11661139130592346
1761371202686549200,9.74554931640625,-0.3979322910308838,-0.07174396514892578,0.08155372738838196
1761371202705160200,9.76416015625,-0.22604608535766602,-0.000545501708984375,-0.06997740268707275
1761371202723772700,9.782772705078125,0.23387384414672852,0.0557708740234375,-0.16590780019760132
1761371202742383600,9.801383544921874,0.5981602668762207,0.1182107925415039,-0.07739198207855225
1761371202760996000,9.81999609375,0.5866098403930664,0.10222148895263672,0.04702103137969971
1761371202779607000,9.83860693359375,0.2889385223388672,0.009120941162109375,0.08413055539131165
1761371202798219500,9.857219482421876,0.10287618637084961,-0.025379180908203125,0.016493499279022217
1761371202816830500,9.87583056640625,-0.028787612915039062,-0.03267097473144531,-0.054088592529296875
1761371202835443200,9.894443115234376,-0.13474512100219727,-0.01785755157470703,-0.07205569744110107
1761371202854054100,9.91305419921875,-0.1885371208190918,0.00023937225341796875,-0.0993766188621521
1761371202872666600,9.93166650390625,-0.07840776443481445,0.00415802001953125,-0.16224735975265503
1761371202891277600,9.950277587890625,-0.06844806671142578,0.015030860900878906,-0.10292303562164307
1761371202909890000,9.96889013671875,-0.07887125015258789,0.021903038024902344,-0.0076253414154052734
1761371202928501000,9.9875009765625,0.05857038497924805,-0.02532672882080078,-0.0524601936340332
1761371202947113700,10.00611376953125,0.07572603225708008,-0.04362297058105469,-0.037136614322662354
1761371202965724700,10.024724609375,0.0348663330078125,-0.04069232940673828,-0.013557910919189453
1761371202984337200,10.043337158203125,0.040085792541503906,0.011092185974121094,0.018770545721054077
1761371203002948000,10.061947998046875,0.010040283203125,0.030653953552246094,0.03140997886657715
1761371203021560600,10.080560546875,-0.014800548553466797,0.026520729064941406,0.04176655411720276
1761371203040171500,10.099171630859376,0.012384414672851562,-0.010110855102539062,-0.018882274627685547
1761371203058784000,10.117783935546875,-0.03229475021362305,-0.02166271209716797,-0.028911113739013672
1761371203077395000,10.13639501953125,-0.019948482513427734,-0.039435386657714844,-0.002504497766494751
1761371203096007700,10.155007568359375,0.04588603973388672,-0.045022010803222656,-0.020230203866958618
1761371203114618600,10.17361865234375,0.011373519897460938,-0.008625030517578125,-0.007327735424041748
1761371203133231000,10.192231201171875,-0.06277132034301758,0.015616416931152344,0.014347285032272339
1761371203151842000,10.210842041015624,0.014572620391845703,-0.005153656005859375,0.017241179943084717
1761371203170454500,10.22945458984375,0.021965503692626953,-0.03451061248779297,0.018233537673950195
1761371203189065500,10.2480654296875,0.0029354095458984375,-0.013781547546386719,-0.007013082504272461
1761371203207678200,10.26667822265625,-0.015999317169189453,0.022878646850585938,0.002555757761001587
1761371203226289200,10.2852890625,-0.10687255859375,0.005311012268066406,0.059823036193847656
1761371203244901600,10.303901611328126,-0.07040596008300781,-0.04024505615234375,0.03746002912521362
1761371203263512600,10.3225126953125,-0.027533531188964844,0.016851425170898438,0.016963720321655273
1761371203282125000,10.341125,-0.10770750045776367,-0.010820388793945312,0.0822538435459137
1761371203300736000,10.359736083984375,-0.062398433685302734,0.026357650756835938,0.12103354930877686
1761371203319348500,10.378348388671874,0.11220216751098633,0.02240467071533203,0.052856504917144775
1761371203337959400,10.39695947265625,0.08264303207397461,0.014536857604980469,-0.029330015182495117
1761371203356572200,10.415572265625,0.10144329071044922,0.04727935791015625,0.06074753403663635
1761371203375183000,10.43418310546875,-0.07098770141601562,0.0019159317016601562,0.15200114250183105
1761371203393795600,10.452795654296875,-0.007057666778564453,0.028505325317382812,0.031708359718322754
1761371203412406500,10.471406494140625,0.08728313446044922,0.007287025451660156,-0.0445210337638855
1761371203431019000,10.49001904296875,0.14278602600097656,0.007119178771972656,-0.01577460765838623
1761371203449630000,10.5086298828125,0.036574363708496094,0.03173828125,0.012431859970092773
1761371203468242700,10.52724267578125,-0.030404090881347656,0.03225421905517578,-0.004318058490753174
1761371203486853600,10.545853515625,-0.011684894561767578,0.0024557113647460938,-0.1322345733642578
1761371203505466000,10.564466064453125,0.09942770004272461,0.007932662963867188,-0.1228199303150177
1761371203524077000,10.5830771484375,0.15419483184814453,0.024560928344726562,-0.03195071220397949
1761371203542689500,10.601689453125,0.02003622055053711,0.023677825927734375,0.031177908182144165
1761371203561300500,10.620300537109374,-0.1510629653930664,0.0006771087646484375,0.04681962728500366
1761371203579913000,10.638912841796875,-0.14032506942749023,-0.02663421630859375,-0.02984258532524109
1761371203598524000,10.65752392578125,-0.09999895095825195,-0.09160518646240234,-0.01779070496559143
1761371203617136600,10.67613671875,-0.10751867294311523,0.0011138916015625,-0.09074670076370239
1761371203635747600,10.69474755859375,-0.07829999923706055,0.04224395751953125,-0.06973206996917725
1761371203654360000,10.713360107421876,0.012662887573242188,-0.017281532287597656,0.04607951641082764
1761371203672971000,10.731970947265625,-0.047171592712402344,-0.051049232482910156,-0.03549337387084961
1761371203691583500,10.75058349609375,-0.02767181396484375,-0.0045070648193359375,-0.03491497039794922
1761371203710194400,10.7691943359375,0.05420970916748047,0.09627151489257812,0.04377862811088562
1761371203728807200,10.78780712890625,0.15354537963867188,0.02357959747314453,0.1803198903799057
1761371203747418000,10.806418212890625,0.013242244720458984,-0.03552436828613281,0.1159375011920929
1761371203766030600,10.825030517578124,-0.15967845916748047,-0.007180213928222656,0.005331456661224365
1761371203784641500,10.8436416015625,-0.2644476890563965,0.036712646484375,-0.06157281994819641
