time,seconds_elapsed,z,y,x
1761370767376925700,0.21992578125,-0.5209436416625977,-0.047537803649902344,0.09768557548522949
1761370767386445000,0.229445068359375,-0.4915122985839844,0.032218217849731445,0.07666730880737305
1761370767395963100,0.238963134765625,-0.3988666534423828,0.1345839500427246,0.14617228507995605
1761370767405480000,0.24847998046875,-0.22280120849609375,0.2610619068145752,0.3075108528137207
1761370767414995500,0.257995361328125,-0.013741493225097656,0.34505534172058105,0.47045183181762695
1761370767424509700,0.267509765625,0.1601734161376953,0.3607447147369385,0.5271550416946411
1761370767434023000,0.27702294921875,0.2774696350097656,0.3411979675292969,0.441272497177124
1761370767443535400,0.286535400390625,0.3168306350708008,0.3323068618774414,0.2526228427886963
1761370767453046500,0.296046630859375,0.24236583709716797,0.327678918838501,0.033324480056762695
1761370767462556700,0.305556640625,0.08463668823242188,0.32187581062316895,-0.21800613403320312
1761370767472066000,0.315066162109375,-0.06308555603027344,0.3484804630279541,-0.4507935047149658
1761370767481574700,0.32457470703125,-0.17239856719970703,0.4009087085723877,-0.553278923034668
1761370767491082500,0.33408251953125,-0.25907039642333984,0.43146681785583496,-0.5081443786621094
1761370767500589300,0.34358935546875,-0.27819252014160156,0.4532637596130371,-0.374891996383667
1761370767510095600,0.353095703125,-0.19963836669921875,0.48299670219421387,-0.22368431091308594
1761370767519601000,0.362600830078125,-0.09942913055419922,0.5064578056335449,-0.05549764633178711
1761370767529106000,0.37210595703125,-0.019164085388183594,0.5096728801727295,0.1214761734008789
1761370767538610200,0.381610107421875,0.12041759490966797,0.4915316104888916,0.20674896240234375
1761370767548113700,0.39111376953125,0.32741355895996094,0.47850823402404785,0.20012307167053223
1761370767557617000,0.400616943359375,0.4877023696899414,0.46642279624938965,0.22023653984069824
1761370767567119400,0.410119384765625,0.5735645294189453,0.45446276664733887,0.27270960807800293
1761370767576621600,0.41962158203125,0.6341028213500977,0.45576047897338867,0.30107784271240234
1761370767586123000,0.429123046875,0.6635122299194336,0.44829630851745605,0.30423617362976074
1761370767595624200,0.438624267578125,0.6350307464599609,0.401381254196167,0.2877166271209717
1761370767605124900,0.448124755859375,0.5850667953491211,0.36417484283447266,0.26497650146484375
1761370767614625300,0.457625244140625,0.5258512496948242,0.35977816581726074,0.2761983871459961
1761370767633624600,0.47662451171875,0.23018550872802734,0.4009878635406494,0.49851512908935547
1761370767652622600,0.49562255859375,-0.06410884857177734,0.4224367141723633,0.44881725311279297
1761370767671619300,0.514619384765625,-0.30181407928466797,0.3979356288909912,0.2258317470550537
1761370767690543400,0.53354345703125,-0.5262823104858398,0.3854336738586426,0.12987518310546875
1761370767709154300,0.552154296875,-0.6902894973754883,0.3891279697418213,0.17317438125610352
1761370767727766500,0.5707666015625,-0.7838258743286133,0.4121067523956299,0.370532751083374
1761370767746377200,0.589377197265625,-0.6023597717285156,0.343428373336792,0.4053487777709961
1761370767764989700,0.60798974609375,-0.3849191665649414,0.20308923721313477,0.2884025573730469
1761370767783600400,0.626600341796875,-0.24983787536621094,0.10583305358886719,0.003842592239379883
1761370767802212900,0.645212890625,-0.20558643341064453,0.04599308967590332,-0.14381885528564453
1761370767820823600,0.663823486328125,-0.06929874420166016,0.009641647338867188,-0.18293190002441406
1761370767839435800,0.682435791015625,0.14396095275878906,-0.061031341552734375,-0.318209171295166
1761370767858046700,0.701046630859375,0.3354625701904297,0.04111146926879883,-0.6587259769439697
1761370767876659000,0.719658935546875,0.3310108184814453,0.28467369079589844,-0.881488561630249
1761370767895270000,0.738269775390625,0.18756866455078125,0.42682361602783203,-0.5192382335662842
1761370767913882000,0.756882080078125,0.28165721893310547,0.2513127326965332,0.07961249351501465
1761370767932493000,0.7754931640625,0.7354974746704102,-0.32448625564575195,0.4441845417022705
1761370767951105300,0.794105224609375,1.1028566360473633,-0.9707257747650146,0.33830857276916504
1761370767969716000,0.812716064453125,1.1113786697387695,-1.4275825023651123,-0.06572961807250977
1761370767988328400,0.831328369140625,0.8057661056518555,-1.7271029949188232,-0.41373729705810547
1761370768006939100,0.849939208984375,0.4997119903564453,-1.8760473728179932,-0.3752408027648926
1761370768025551400,0.86855126953125,0.2696514129638672,-1.948815107345581,-0.2949676513671875
1761370768044162300,0.887162353515625,0.13716602325439453,-1.9423112869262695,-0.30959606170654297
1761370768062774500,0.9057744140625,-0.07309436798095703,-1.8798425197601318,-0.3332958221435547
1761370768081385500,0.924385498046875,-0.39559507369995117,-1.6059961318969727,-0.49869775772094727
1761370768099997700,0.942997802734375,-0.7760887145996094,-1.185685157775879,-0.6680772304534912
1761370768118608600,0.961608642578125,-1.0200080871582031,-0.8603830337524414,-0.7028436660766602
1761370768137220900,0.980220947265625,-1.0513076782226562,-0.7047781944274902,-0.5731508731842041
1761370768155831800,0.998831787109375,-0.7968845367431641,-0.744687557220459,-0.14223027229309082
1761370768174444000,1.017444091796875,-0.4609718322753906,-0.8008723258972168,0.24459147453308105
1761370768193054700,1.0360546875,-0.0929098129272461,-0.8961505889892578,0.4539759159088135
1761370768211667200,1.054667236328125,0.06070423126220703,-0.9409575462341309,0.540144681930542
1761370768230278000,1.07327783203125,-0.06262874603271484,-0.8644623756408691,0.44950270652770996
1761370768248890400,1.091890380859375,-0.3530411720275879,-0.7539763450622559,0.41663408279418945
1761370768267501000,1.1105009765625,-0.587437629699707,-0.7035923004150391,0.5198409557342529
1761370768286113500,1.129113525390625,-0.6788043975830078,-0.7000288963317871,0.6395381689071655
1761370768304724200,1.14772412109375,-0.6633305549621582,-0.6780180931091309,0.782474160194397
1761370768323336700,1.166336669921875,-0.5562229156494141,-0.6572256088256836,0.8774564266204834
1761370768341947400,1.184947509765625,-0.4144010543823242,-0.6318187713623047,0.8353712558746338
1761370768360559600,1.2035595703125,-0.3354954719543457,-0.5622286796569824,0.6331192255020142
1761370768379170600,1.222170654296875,-0.25771236419677734,-0.4664797782897949,0.42066287994384766
1761370768397782800,1.24078271484375,-0.25590991973876953,-0.3673405647277832,0.31446409225463867
1761370768416393700,1.259393798828125,-0.24530410766601562,-0.2548065185546875,0.3137094974517822
1761370768435006000,1.278005859375,-0.2426614761352539,-0.17308425903320312,0.31059956550598145
1761370768453616600,1.29661669921875,-0.17887401580810547,-0.1209416389465332,0.22882819175720215
1761370768472229000,1.31522900390625,-0.11965274810791016,-0.0373992919921875,0.13409113883972168
1761370768490839800,1.33383984375,-0.07769584655761719,0.06560039520263672,0.05045199394226074
1761370768509452300,1.352452392578125,0.057086944580078125,0.2659587860107422,-0.15589427947998047
1761370768528063000,1.37106298828125,0.3125009536743164,0.3982071876525879,-0.454622745513916
1761370768546675500,1.389675537109375,0.7535228729248047,0.37203359603881836,-0.7638428211212158
1761370768565286100,1.4082861328125,1.318924903869629,0.28635549545288086,-0.8685638904571533
1761370768583898600,1.426898681640625,1.8709135055541992,0.14847135543823242,-0.8577275276184082
1761370768602509300,1.44550927734375,2.2593307495117188,0.09759879112243652,-0.93497633934021
1761370768621121500,1.46412158203125,2.2032384872436523,0.14063572883605957,-1.1191551685333252
1761370768639732500,1.482732421875,1.7043895721435547,0.1308152675628662,-1.1279306411743164
1761370768658344700,1.5013447265625,1.3569660186767578,0.06853365898132324,-0.7615542411804199
1761370768676955600,1.51995556640625,1.4152355194091797,-0.1474437713623047,-0.10469961166381836
1761370768695568000,1.53856787109375,1.5010156631469727,-0.41840529441833496,0.23715496063232422
1761370768714178600,1.557178466796875,1.1828174591064453,-0.5531718730926514,0.12648582458496094
1761370768732791000,1.575791015625,0.5550975799560547,-0.45308780670166016,-0.012639760971069336
1761370768751401700,1.594401611328125,-0.036902427673339844,-0.29706311225891113,0.06102156639099121
1761370768770014200,1.61301416015625,-0.1581249237060547,-0.3711826801300049,0.3658640384674072
1761370768788625000,1.631625,0.14523887634277344,-0.7070214748382568,0.792817234992981
1761370768807237400,1.6502373046875,0.40380859375,-1.046553611755371,1.0277351140975952
1761370768825848000,1.66884814453125,0.2866544723510742,-1.3055591583251953,0.8521127700805664
1761370768844460500,1.68746044921875,-0.16758060455322266,-1.2749128341674805,0.311276912689209
1761370768863071200,1.7060712890625,-0.48154354095458984,-0.9950382709503174,-0.15796780586242676
1761370768881683700,1.72468359375,-0.33341121673583984,-0.7026894092559814,-0.33243680000305176
1761370768900294400,1.74329443359375,0.05602264404296875,-0.6108896732330322,-0.10656094551086426
1761370768918906600,1.76190673828125,0.3764667510986328,-0.6416101455688477,0.386228084564209
1761370768937517600,1.780517578125,0.43607330322265625,-0.6602602005004883,0.8420076370239258
1761370768956129800,1.7991298828125,0.08057594299316406,-0.7045433521270752,0.9445327520370483
1761370768974740700,1.81774072265625,-0.4352588653564453,-0.6810476779937744,0.5703493356704712
1761370768993353000,1.83635302734375,-0.7811222076416016,-0.6138968467712402,0.2594071626663208
1761370769011964000,1.8549638671875,-0.9096803665161133,-0.5427975654602051,0.16175198554992676
1761370769030576000,1.873576171875,-0.9894227981567383,-0.44272613525390625,0.10572516918182373
1761370769049187000,1.89218701171875,-0.9957160949707031,-0.3258061408996582,0.11579287052154541
1761370769067799300,1.91079931640625,-0.7398738861083984,-0.2301321029663086,0.21994948387145996
1761370769086410000,1.929409912109375,-0.4887075424194336,-0.1359386444091797,0.2697840929031372
1761370769105022500,1.9480224609375,-0.5146770477294922,-0.030985355377197266,0.25949370861053467
1761370769123633200,1.966633056640625,-0.6195354461669922,0.10739278793334961,0.1393343210220337
1761370769142245600,1.98524560546875,-0.7545676231384277,0.22899961471557617,-0.014490008354187012
1761370769160856300,2.003856201171875,-0.6103115081787109,0.31200313568115234,0.05712848901748657
1761370769179468800,2.02246875,-0.32032108306884766,0.29731178283691406,0.3708101809024811
1761370769198079500,2.04107958984375,-0.1393604278564453,0.19037199020385742,0.3598083257675171
1761370769216692000,2.05969189453125,-0.09578609466552734,0.20130300521850586,0.1636609435081482
1761370769235302700,2.078302734375,-0.0036754608154296875,0.3085780143737793,0.25613391399383545
1761370769253915100,2.0969150390625,0.1770801544189453,0.42781925201416016,0.5562980771064758
1761370769272525800,2.11552587890625,0.23473548889160156,0.4389529228210449,0.5669749975204468
1761370769291138000,2.134137939453125,0.23089027404785156,0.5651278495788574,0.19590917229652405
1761370769309749000,2.1527490234375,0.11895370483398438,0.6878833770751953,0.04618889093399048
1761370769328361200,2.171361328125,-0.00418853759765625,0.6435408592224121,0.1732296347618103
1761370769346972200,2.18997216796875,0.07483291625976562,0.49879980087280273,0.29727476835250854
1761370769365584400,2.20858447265625,0.3679389953613281,0.0738377571105957,0.4785590171813965
1761370769384195300,2.2271953125,0.806157112121582,-0.39998626708984375,0.6041284799575806
1761370769402807600,2.2458076171875,0.9210033416748047,-0.8247537612915039,0.5680412650108337
1761370769421418200,2.264418212890625,0.5141506195068359,-1.0742740631103516,0.15927636623382568
1761370769440030700,2.28303076171875,-0.10581398010253906,-1.1026015281677246,-0.3523874282836914
1761370769458641700,2.3016416015625,-0.565241813659668,-0.9494938850402832,-0.6592901945114136
1761370769477254000,2.32025390625,-0.7601194381713867,-0.7574048042297363,-0.8986923694610596
1761370769495864600,2.338864501953125,-0.6789951324462891,-0.6240525245666504,-0.8831303119659424
1761370769514477000,2.35747705078125,-0.4638385772705078,-0.5937490463256836,-0.6869921684265137
1761370769533087700,2.376087646484375,-0.3950061798095703,-0.47469091415405273,-0.5677851438522339
1761370769551700200,2.3947001953125,-0.5471858978271484,-0.38524961471557617,-0.4969460964202881
1761370769570311000,2.413310791015625,-0.6649594306945801,-0.32144594192504883,-0.49288809299468994
1761370769588923400,2.43192333984375,-0.6457023620605469,-0.2580380439758301,-0.37861692905426025
1761370769607534000,2.4505341796875,-0.4829998016357422,-0.21651077270507812,-0.2439206838607788
1761370769626146600,2.469146484375,-0.21456623077392578,-0.2591986656188965,-0.05666911602020264
1761370769644757200,2.48775732421875,0.2043600082397461,-0.44964122772216797,0.07365548610687256
1761370769663369700,2.50636962890625,0.5406866073608398,-0.6517667770385742,0.0572504997253418
1761370769681980400,2.52498046875,0.6577701568603516,-0.8059751987457275,0.09016644954681396
1761370769700593000,2.543593017578125,0.6175212860107422,-0.8096942901611328,-0.06534695625305176
1761370769719203600,2.56220361328125,0.5599994659423828,-0.7316045761108398,-0.27503514289855957
1761370769737816000,2.580816162109375,0.6485042572021484,-0.6759095191955566,-0.3856797218322754
1761370769756426800,2.5994267578125,0.8235445022583008,-0.6229312419891357,-0.39462220668792725
1761370769775039200,2.618039306640625,0.9709339141845703,-0.6214101314544678,-0.3331397771835327
1761370769793650000,2.63664990234375,1.130946159362793,-0.5871787071228027,-0.13666188716888428
1761370769812262400,2.655262451171875,1.2078523635864258,-0.5127038955688477,0.02056431770324707
1761370769830873000,2.673873046875,1.285069465637207,-0.40329813957214355,0.08086013793945312
1761370769849485600,2.692485595703125,1.253000259399414,-0.30529117584228516,0.17584002017974854
1761370769868096300,2.71109619140625,1.060903549194336,-0.19292593002319336,0.2607543468475342
1761370769886708700,2.729708740234375,0.7953720092773438,-0.0897374153137207,0.369239866733551
1761370769905319400,2.7483193359375,0.5164375305175781,0.0005154609680175781,0.4692089557647705
1761370769923932000,2.766931884765625,0.12177181243896484,0.05850362777709961,0.4608840346336365
1761370769942542600,2.78554248046875,-0.28330230712890625,0.09983968734741211,0.2812038064002991
1761370769961155000,2.804155029296875,-0.5341987609863281,0.10251045227050781,0.07175827026367188
1761370769979765800,2.822765869140625,-0.4749870300292969,0.05331611633300781,0.0005918741226196289
1761370769998378200,2.841378173828125,-0.2334117889404297,-0.07714986801147461,0.006500363349914551
1761370770016989000,2.859989013671875,0.041840553283691406,-0.11820697784423828,-0.09737324714660645
1761370770035601400,2.878601318359375,0.25769996643066406,-0.04293680191040039,-0.16745662689208984
1761370770054212000,2.897212158203125,0.4164314270019531,-0.08303499221801758,0.12034857273101807
1761370770072824600,2.915824462890625,0.5102901458740234,-0.1252427101135254,0.37427181005477905
1761370770091435300,2.934435302734375,0.5733098983764648,-0.23254632949829102,0.5672013163566589
1761370770110047700,2.9530478515625,0.6698741912841797,-0.41776609420776367,0.616307258605957
1761370770128658400,2.971658447265625,0.7087631225585938,-0.48189258575439453,0.4527680277824402
1761370770147271000,2.99027099609375,0.49713611602783203,-0.45547962188720703,0.23847907781600952
1761370770165881600,3.008881591796875,0.29605865478515625,-0.37392091751098633,0.1323649287223816
1761370770184494000,3.027494140625,0.37526512145996094,-0.41474318504333496,0.33193832635879517
1761370770203104800,3.046104736328125,0.7682428359985352,-0.6455750465393066,0.7711285352706909
1761370770221717200,3.06471728515625,1.0118627548217773,-0.9630393981933594,1.0657589435577393
1761370770240328000,3.083327880859375,0.7916193008422852,-1.1911406517028809,0.9228627681732178
1761370770258940400,3.1019404296875,0.17028236389160156,-1.1751806735992432,0.5079420804977417
1761370770277551000,3.120551025390625,-0.5531215667724609,-0.8347301483154297,0.032475829124450684
1761370770296163600,3.13916357421875,-1.0765395164489746,-0.3933877944946289,-0.3062328100204468
1761370770314774300,3.157774169921875,-1.2753286361694336,0.02112865447998047,-0.22624361515045166
1761370770333386800,3.17638671875,-1.170973777770996,0.25943803787231445,0.24204188585281372
1761370770351997400,3.19499755859375,-0.9249606132507324,0.3023796081542969,0.8030036091804504
1761370770370610000,3.21360986328125,-0.7165298461914062,0.1953577995300293,1.0898716449737549
1761370770389220600,3.232220703125,-0.6076822280883789,-0.040317535400390625,0.975801944732666
1761370770407833000,3.2508330078125,-0.5634994506835938,-0.29558753967285156,0.5731119513511658
1761370770426443800,3.26944384765625,-0.39343738555908203,-0.4532933235168457,0.07223403453826904
1761370770445056300,3.28805615234375,-0.04815864562988281,-0.5392084121704102,-0.3617132306098938
1761370770463667000,3.3066669921875,0.29866981506347656,-0.6202516555786133,-0.4957405924797058
1761370770482279400,3.325279541015625,0.47389793395996094,-0.5764107704162598,-0.4879060387611389
1761370770500890000,3.34389013671875,0.4739866256713867,-0.3772268295288086,-0.347378671169281
1761370770519502600,3.362502685546875,0.45742225646972656,-0.13557863235473633,-0.20063894987106323
1761370770538113300,3.38111328125,0.4546928405761719,-0.01018381118774414,-0.05952566862106323
1761370770556725800,3.399725830078125,0.26720237731933594,0.04457521438598633,-0.10552597045898438
1761370770575336400,3.41833642578125,-0.0776052474975586,0.10126972198486328,-0.350567102432251
1761370770593949000,3.436948974609375,-0.23708438873291016,0.13021135330200195,-0.5245456099510193
1761370770612559600,3.4555595703125,0.009637832641601562,0.07275867462158203,-0.5116745829582214
1761370770631172000,3.474172119140625,0.4151792526245117,-0.10940217971801758,-0.4151189923286438
1761370770649782800,3.49278271484375,0.7080984115600586,-0.28021883964538574,-0.45122653245925903
1761370770668395300,3.511395263671875,0.8389692306518555,-0.3799879550933838,-0.5545288920402527
1761370770687006000,3.530005859375,0.7774887084960938,-0.4300658702850342,-0.5955565571784973
1761370770705618400,3.548618408203125,0.6003532409667969,-0.3993525505065918,-0.489785373210907
1761370770724229000,3.56722900390625,0.3903188705444336,-0.3247866630554199,-0.40817171335220337
1761370770742841600,3.585841552734375,0.2152729034423828,-0.24482417106628418,-0.26178038120269775
1761370770761452500,3.60445263671875,-0.045958518981933594,-0.15631341934204102,-0.06996244192123413
1761370770780064800,3.623064697265625,-0.3738670349121094,-0.10193777084350586,-0.01882106065750122
1761370770798675700,3.64167578125,-0.6184005737304688,-0.07542896270751953,-0.020463764667510986
1761370770817288000,3.660287841796875,-0.670619010925293,-0.11473560333251953,-0.04312872886657715
1761370770835899000,3.67889892578125,-0.5423927307128906,-0.21942138671875,-0.054854393005371094
1761370770854511000,3.697510986328125,-0.30516624450683594,-0.32495999336242676,0.0382695198059082
1761370770873122000,3.7161220703125,-0.04638195037841797,-0.40094852447509766,0.11919265985488892
1761370770891734300,3.734734375,0.1463336944580078,-0.4196455478668213,0.19509875774383545
1761370770910345200,3.75334521484375,0.26549720764160156,-0.41626787185668945,0.4377284049987793
1761370770928957400,3.77195751953125,0.24981689453125,-0.34972620010375977,0.6552472710609436
1761370770947568400,3.790568359375,0.12970733642578125,-0.25435328483581543,0.8106104731559753
1761370770966180600,3.8091806640625,-0.01927471160888672,-0.18148469924926758,0.9406375885009766
1761370770984791600,3.82779150390625,-0.1607522964477539,-0.16335391998291016,1.0735700130462646
1761370771003403800,3.84640380859375,-0.18268585205078125,-0.13183832168579102,1.1790153980255127
1761370771022014700,3.8650146484375,-0.03030681610107422,-0.1566762924194336,1.1851286888122559
1761370771040627200,3.883627197265625,0.14220428466796875,-0.2162327766418457,1.0330123901367188
1761370771059238000,3.90223779296875,0.1221323013305664,-0.1995835304260254,0.6886194944381714
1761370771077850400,3.920850341796875,-0.0032339096069335938,-0.07610702514648438,0.4675857126712799
1761370771096461000,3.9394609375,-0.05671501159667969,0.0109710693359375,0.29197901487350464
1761370771115073500,3.958073486328125,0.08699989318847656,0.10365009307861328,0.14764410257339478
1761370771133684200,3.976684326171875,0.25240039825439453,0.2619900703430176,0.11634346842765808
1761370771152296700,3.995296630859375,0.2929954528808594,0.4551682472229004,0.20605339109897614
1761370771170907400,4.013907470703125,0.35552310943603516,0.5827727317810059,0.6782943606376648
1761370771189520000,4.032519775390625,0.6265363693237305,0.522986888885498,1.3108494281768799
1761370771208130600,4.051130615234375,0.9714860916137695,0.0037665367126464844,1.4357383251190186
1761370771226743000,4.069742919921875,0.926051139831543,-0.7567093372344971,0.8795786499977112
1761370771245353700,4.088353759765625,0.48601627349853516,-1.3481743335723877,0.06464444845914841
1761370771263966200,4.10696630859375,-0.097076416015625,-1.6931629180908203,-0.7193333506584167
1761370771282577000,4.125576904296875,-0.570892333984375,-1.831550121307373,-1.087611436843872
1761370771301189400,4.144189453125,-0.7380046844482422,-1.877539873123169,-1.1768792867660522
1761370771319800000,4.162800048828125,-0.577702522277832,-1.8327100276947021,-1.420609951019287
1761370771338412500,4.18141259765625,-0.2848997116088867,-1.6037559509277344,-1.7291651964187622
1761370771357023500,4.2000234375,-0.3392190933227539,-0.9705464839935303,-2.055757522583008
1761370771375635700,4.2186357421875,-0.6723699569702148,-0.12279272079467773,-2.4991581439971924
1761370771394246700,4.23724658203125,-0.9797382354736328,0.4085879325866699,-2.094102144241333
1761370771412859000,4.25585888671875,-0.6406269073486328,0.530613899230957,-0.9017511010169983
1761370771431469800,4.2744697265625,0.25969409942626953,0.7268610000610352,0.055982042104005814
1761370771450082000,4.29308203125,1.4947004318237305,0.5201702117919922,0.9540297985076904
1761370771468693000,4.31169287109375,2.7095890045166016,-0.10543203353881836,1.4388562440872192
1761370771487305200,4.33030517578125,2.6614933013916016,-0.6905562877655029,1.2855700254440308
1761370771505916200,4.348916259765625,1.3721837997436523,-0.7143244743347168,0.5344998836517334
1761370771524528400,4.3675283203125,-0.3523540496826172,-0.5370078086853027,-0.3327273726463318
1761370771543139300,4.386139404296875,-1.4658679962158203,-0.3138446807861328,-0.8697370290756226
1761370771561751800,4.404751708984375,-1.6627731323242188,-0.12250852584838867,-0.9143362045288086
1761370771580362500,4.423362548828125,-1.1638116836547852,-0.09325790405273438,-0.5013899803161621
1761370771598975000,4.44197509765625,-0.3782215118408203,-0.12282466888427734,0.02085159718990326
1761370771617585700,4.460585693359375,0.4827156066894531,-0.2844717502593994,0.5069939494132996
1761370771636198100,4.4791982421875,1.2995729446411133,-0.3854689598083496,0.6870018839836121
1761370771654808800,4.497808837890625,2.0131959915161133,-0.4434323310852051,0.9226390719413757
1761370771673421300,4.51642138671875,2.411684036254883,-0.5993630886077881,1.3747680187225342
1761370771692032000,4.535031982421875,2.334779739379883,-0.8053579330444336,1.605021357536316
1761370771710644500,4.55364453125,1.7105655670166016,-0.9093494415283203,1.3785804510116577
1761370771729255200,4.572255126953125,0.6619329452514648,-0.9113471508026123,0.999308168888092
1761370771747867600,4.59086767578125,-0.38886356353759766,-0.9036223888397217,0.6570885181427002
1761370771766478300,4.609478271484375,-1.1844968795776367,-0.8452281951904297,0.43920695781707764
1761370771785090800,4.6280908203125,-1.8355646133422852,-0.8184490203857422,0.25277331471443176
1761370771803701500,4.646701416015625,-2.3598756790161133,-0.48786211013793945,-0.05943964421749115
1761370771822314000,4.66531396484375,-2.5779871940612793,-0.024789810180664062,-0.4462997615337372
1761370771840924700,4.683924560546875,-2.304141044616699,0.46789979934692383,-0.9564133882522583
1761370771859537200,4.702537109375,-1.5807547569274902,0.9713811874389648,-1.3140252828598022
1761370771878147800,4.72114794921875,-0.7605524063110352,1.3640508651733398,-1.5267196893692017
1761370771896760300,4.73976025390625,0.16480731964111328,1.4762930870056152,-1.308032751083374
1761370771915371000,4.75837109375,1.2922964096069336,1.3775649070739746,-0.8750022649765015
1761370771933983500,4.7769833984375,1.9496593475341797,1.1263155937194824,-0.6419646739959717
1761370771952594200,4.79559423828125,1.6344118118286133,1.1624059677124023,-0.9453481435775757
1761370771971206700,4.81420654296875,0.24994564056396484,1.5407848358154297,-1.2126420736312866
1761370771989817600,4.832817626953125,-0.12931346893310547,2.1992740631103516,-0.9446964263916016
1761370772008429800,4.851429931640625,0.9966917037963867,2.2233705520629883,0.007758986204862595
1761370772027040800,4.870040771484375,2.0913619995117188,1.5923686027526855,0.5160624384880066
1761370772045653000,4.888653076171875,2.2912979125976562,1.122077226638794,0.33537575602531433
1761370772064264000,4.907263916015625,1.6104040145874023,0.7271041870117188,-0.030609142035245895
1761370772082876200,4.925876220703125,0.7112064361572266,0.5917806625366211,-0.34957292675971985
1761370772101487000,4.944487060546875,-0.05146598815917969,0.5555939674377441,-0.24855978786945343
1761370772120099300,4.963099365234375,-0.6008100509643555,0.5445499420166016,-0.053817011415958405
1761370772138710300,4.981710205078125,-1.003446102142334,0.5193352699279785,0.14474989473819733
1761370772157322800,5.00032275390625,-1.3397789001464844,0.5241298675537109,0.40054017305374146
1761370772175933400,5.018933349609375,-1.5049810409545898,0.5724482536315918,0.6110631823539734
1761370772194546000,5.0375458984375,-1.5439047813415527,0.5231237411499023,0.6511029601097107
1761370772213156600,5.056156494140625,-1.5017757415771484,0.44172191619873047,0.5546868443489075
1761370772231769000,5.07476904296875,-1.6051788330078125,0.21963834762573242,0.5754408240318298
1761370772250379800,5.0933798828125,-1.626246452331543,0.16866111755371094,0.5718494057655334
1761370772268992300,5.1119921875,-1.5974903106689453,0.1473531723022461,0.4313328266143799
1761370772287603000,5.13060302734375,-1.3207778930664062,0.0816349983215332,0.18952223658561707
1761370772306215400,5.14921533203125,-1.04789400100708,-0.1526317596435547,0.40042930841445923
1761370772324826000,5.167826171875,-0.6902880668640137,-0.31975793838500977,0.7052148580551147
1761370772343438600,5.1864384765625,-0.44232749938964844,-0.610771656036377,0.6958409547805786
1761370772362049300,5.20504931640625,-0.3827190399169922,-0.8540287017822266,0.39440953731536865
1761370772380661800,5.223661865234375,-0.2964973449707031,-0.9519925117492676,-0.12502127885818481
1761370772399272400,5.2422724609375,-0.0702505111694336,-1.0014958381652832,-0.5107517242431641
1761370772417885000,5.260885009765625,0.23995685577392578,-0.976515531539917,-0.6275277137756348
1761370772436496000,5.279495849609375,0.24848651885986328,-0.6488609313964844,-0.5191147923469543
1761370772455108000,5.298108154296875,-0.1566762924194336,-0.12686777114868164,-0.4416046738624573
1761370772473719000,5.316718994140625,-0.6743984222412109,0.2477116584777832,-0.40412014722824097
1761370772492331300,5.335331298828125,-1.0725712776184082,0.2476029396057129,-0.31126153469085693
1761370772510942200,5.353942138671875,-1.0101361274719238,0.013585567474365234,-0.043030738830566406
1761370772529554400,5.372554443359375,-0.768040657043457,-0.3433976173400879,0.32413196563720703
1761370772548165400,5.391165283203125,-0.4771451950073242,-0.5589656829833984,0.3418104350566864
1761370772566777600,5.409777587890625,-0.11643600463867188,-0.6381416320800781,-0.04538768529891968
1761370772585388500,5.428388427734375,0.5580921173095703,-0.6836507320404053,-0.662757933139801
1761370772604000800,5.447000732421875,0.8967361450195312,-0.6342544555664062,-0.9324942827224731
1761370772622611700,5.46561181640625,0.2998504638671875,-0.0975637435913086,-0.8010336756706238
1761370772641224000,5.484223876953125,-0.4964456558227539,0.7626223564147949,-1.1538385152816772
1761370772659835000,5.5028349609375,-0.2629661560058594,0.7577009201049805,-1.585439682006836
1761370772678447400,5.521447265625,0.9625720977783203,0.44875383377075195,-2.0599873065948486
1761370772697058000,5.54005810546875,1.4691648483276367,0.14985990524291992,-1.6588282585144043
1761370772715670500,5.55867041015625,1.3531808853149414,0.16367387771606445,-0.9410584568977356
1761370772734281200,5.57728125,1.8656415939331055,0.7861566543579102,-0.8053932189941406
1761370772752893700,5.595893798828125,1.7491722106933594,0.7131214141845703,-0.46782004833221436
1761370772771504400,5.61450439453125,0.7189512252807617,0.4206809997558594,-0.13389529287815094
1761370772790116900,5.633116943359375,-0.14632892608642578,0.2196197509765625,-0.22209972143173218
1761370772808727600,5.6517275390625,-0.6342449188232422,-0.11950349807739258,-0.17926593124866486
1761370772827340000,5.670340087890625,-0.6553325653076172,0.6040077209472656,-0.8413181304931641
1761370772845950700,5.68895068359375,-0.8096914291381836,0.9113173484802246,-0.8927566409111023
1761370772864563200,5.707563232421875,-0.5996799468994141,0.3682217597961426,0.0930221676826477
1761370772883174000,5.726173828125,-0.08154869079589844,0.28913307189941406,0.07818278670310974
1761370772901786400,5.744786376953125,0.11272335052490234,0.08994436264038086,-0.11591330915689468
1761370772920397000,5.76339697265625,0.13447952270507812,-0.07946443557739258,-0.1664571613073349
1761370772939009500,5.782009521484375,-0.05636882781982422,0.12223386764526367,-0.47010546922683716
1761370772957620200,5.8006201171875,-0.5443210601806641,0.6725759506225586,-0.8288852572441101
1761370772976232700,5.819232666015625,-1.1459331512451172,0.824399471282959,-0.3062010705471039
1761370772994843400,5.837843505859375,-1.3593273162841797,0.8601465225219727,0.47279053926467896
1761370773013456000,5.856455810546875,-1.081465244293213,0.5831618309020996,1.1030125617980957
1761370773032066800,5.87506689453125,-0.5720100402832031,0.06792163848876953,1.3624714612960815
1761370773050679000,5.893678955078125,-0.15428924560546875,-0.26634836196899414,1.0143920183181763
1761370773069290000,5.9122900390625,-0.044681549072265625,-0.5375542640686035,0.7546049356460571
1761370773087902200,5.930902099609375,-0.044162750244140625,-0.5371794700622559,0.47412583231925964
1761370773106513200,5.94951318359375,-0.16027450561523438,-0.5822744369506836,0.381966233253479
1761370773125125400,5.96812548828125,-0.3704719543457031,-0.29161524772644043,0.09951610863208771
1761370773143736300,5.986736328125,-0.6917085647583008,0.2688274383544922,-0.07503268122673035
1761370773162348500,6.0053486328125,-0.6798076629638672,0.7577905654907227,0.09466502070426941
1761370773180959500,6.02395947265625,-0.17394065856933594,1.0621469020843506,0.5112217664718628
1761370773199571700,6.04257177734375,0.35495471954345703,1.182833194732666,0.9328843355178833
1761370773218182700,6.0611826171875,0.6592521667480469,1.1278836727142334,1.4389384984970093
1761370773236795000,6.079794921875,0.6875314712524414,0.8657224178314209,1.8852829933166504
1761370773255405800,6.09840576171875,0.46433162689208984,0.40531039237976074,1.923612356185913
1761370773274018000,6.11701806640625,0.18287181854248047,0.12117624282836914,1.5053746700286865
1761370773292629000,6.13562890625,-0.2115020751953125,0.1819901466369629,1.036098599433899
1761370773311241200,6.1542412109375,-0.6276350021362305,0.3848896026611328,0.74094557762146
1761370773329852200,6.17285205078125,-0.9334888458251953,0.6880464553833008,0.4455820918083191
1761370773348464400,6.19146435546875,-1.2576580047607422,1.1204001903533936,0.16490831971168518
1761370773367075300,6.210075439453125,-1.5278716087341309,1.4911141395568848,0.046096086502075195
1761370773385687800,6.228687744140625,-1.356241226196289,1.7935595512390137,0.07068838179111481
1761370773404298500,6.247298583984375,-0.9867687225341797,1.7207562923431396,0.2682477533817291
1761370773422911000,6.265910888671875,-0.7191505432128906,1.5217905044555664,0.5207912921905518
1761370773441521700,6.284521728515625,-0.5661239624023438,1.3724565505981445,0.7060189843177795
1761370773460134100,6.303134033203125,-0.3972625732421875,1.2937564849853516,0.88899165391922
1761370773478744800,6.321744873046875,-0.19140338897705078,1.1463704109191895,1.1062045097351074
1761370773497357300,6.340357421875,0.09423255920410156,0.7739334106445312,1.0283522605895996
1761370773515968000,6.358968017578125,0.07824134826660156,0.32967448234558105,0.6398468017578125
1761370773534580500,6.37758056640625,0.17588233947753906,0.3745698928833008,0.19184339046478271
1761370773553191200,6.396191162109375,0.011691093444824219,0.35254478454589844,0.06296521425247192
1761370773571803600,6.4148037109375,-0.2809314727783203,0.3509397506713867,-0.05293440818786621
1761370773590414300,6.433414306640625,-0.37401294708251953,0.35535669326782227,-0.20231011509895325
1761370773609026800,6.45202685546875,-0.3443727493286133,0.3860960006713867,-0.39984846115112305
1761370773627637500,6.470637451171875,-0.5100574493408203,1.3668713569641113,-0.6403326392173767
1761370773646250000,6.48925,-1.0970983505249023,1.638728141784668,-0.3628218173980713
1761370773664860700,6.507860595703125,-1.5422563552856445,1.6150126457214355,-0.15088294446468353
1761370773683473200,6.52647314453125,-1.3789620399475098,1.549546718597412,-0.550155520439148
1761370773702083800,6.545083740234375,-0.5003509521484375,0.9121460914611816,-0.42798522114753723
1761370773720696300,6.5636962890625,0.40029048919677734,-0.061511993408203125,0.14285582304000854
1761370773739307000,6.58230712890625,0.682042121887207,-0.8956327438354492,0.5709396004676819
1761370773757919500,6.60091943359375,0.1559600830078125,-1.119948387145996,0.6833196878433228
1761370773776530200,6.6195302734375,-0.5691976547241211,-1.0080492496490479,0.4252859950065613
1761370773795142700,6.638142578125,-1.1614127159118652,-0.6007375717163086,-0.12419983744621277
1761370773813753300,6.65675341796875,-1.053654670715332,0.3608269691467285,-1.1807851791381836
1761370773832365800,6.67536572265625,-0.3291635513305664,0.9885091781616211,-1.6316015720367432
1761370773850976500,6.6939765625,0.06118583679199219,0.3601374626159668,-0.6594269275665283
1761370773869589000,6.712589111328125,0.28226375579833984,0.25328874588012695,-0.18327432870864868
1761370773888199700,6.73119970703125,0.1689453125,0.3202786445617676,-0.2805776000022888
1761370773906812200,6.749812255859375,0.0658884048461914,0.4708876609802246,-0.6320312023162842
1761370773925422800,6.7684228515625,0.20870590209960938,0.6530437469482422,-0.7696103453636169
1761370773944035300,6.787035400390625,0.8388748168945312,0.6786632537841797,-0.6244419813156128
1761370773962646000,6.80564599609375,1.5179109573364258,0.27556943893432617,-0.00937710702419281
1761370773981258500,6.824258544921875,1.5175447463989258,-0.21224117279052734,0.37756937742233276
1761370773999869200,6.842869140625,1.0066184997558594,-0.6127450466156006,0.6577589511871338
1761370774018481700,6.861481689453125,0.2861452102661133,-0.7708840370178223,0.5925735831260681
1761370774037092400,6.88009228515625,-0.24462509155273438,-0.5497891902923584,0.2539653182029724
1761370774055704800,6.898704833984375,-0.4992494583129883,-0.1551823616027832,-0.23245665431022644
1761370774074315800,6.917315673828125,-0.5055503845214844,-0.0422673225402832,-0.3880687355995178
1761370774092928000,6.935927978515625,-0.30254268646240234,-0.07169008255004883,-0.25416091084480286
1761370774111539000,6.9545390625,0.01126861572265625,0.0020513534545898438,-0.07047954201698303
1761370774130151200,6.973151123046875,0.4128761291503906,-0.3417837619781494,0.278276652097702
1761370774148762000,6.99176220703125,0.6941194534301758,-0.5713596343994141,0.3794324994087219
1761370774167374300,7.010374267578125,0.8622684478759766,-0.5064620971679688,0.46692508459091187
1761370774185985300,7.0289853515625,0.7036571502685547,-0.41871070861816406,0.5774450898170471
1761370774204597500,7.047597412109375,0.5541620254516602,-0.33576226234436035,0.47679591178894043
1761370774223208400,7.06620849609375,0.6994571685791016,-0.23034334182739258,0.1760883331298828
1761370774241820700,7.084820556640625,0.8542184829711914,-0.11816835403442383,0.11241906881332397
1761370774260431600,7.103431640625,0.8602476119995117,-0.0805511474609375,0.4778181314468384
1761370774279043800,7.1220439453125,0.8810100555419922,-0.09022378921508789,0.7994053363800049
1761370774297654800,7.14065478515625,0.9262666702270508,-0.20467281341552734,0.9204057455062866
1761370774316267000,7.15926708984375,0.8152503967285156,-0.20236968994140625,0.7525141835212708
1761370774334878000,7.1778779296875,0.5051975250244141,-0.07083988189697266,0.5829984545707703
1761370774353490200,7.196490234375,0.2846813201904297,0.011166572570800781,0.5079547166824341
1761370774372101000,7.21510107421875,0.3421306610107422,0.01111745834350586,0.397982656955719
1761370774390713300,7.23371337890625,0.6951332092285156,-0.21796894073486328,0.4257504343986511
1761370774409324300,7.25232421875,0.8087062835693359,-0.7337617874145508,0.5026113390922546
1761370774427936500,7.2709365234375,0.30255126953125,-1.1659371852874756,0.5358774662017822
1761370774446547500,7.28954736328125,-0.44620227813720703,-1.184147596359253,0.5088930130004883
1761370774465159700,7.30815966796875,-0.8712368011474609,-0.4925074577331543,0.08737581968307495
1761370774483770600,7.3267705078125,-1.0746164321899414,0.2091512680053711,-0.2909119427204132
1761370774502382800,7.3453828125,-1.1203923225402832,0.3949289321899414,-0.027956247329711914
1761370774520993800,7.363993896484375,-1.03123140335083,0.41741371154785156,0.29564616084098816
1761370774539606000,7.38260595703125,-0.7380218505859375,0.328244686126709,0.5973876118659973
1761370774558217000,7.401217041015625,-0.5529375076293945,0.2313675880432129,0.9237505197525024
1761370774576829200,7.4198291015625,-0.3281087875366211,0.22350406646728516,1.0667121410369873
1761370774595440000,7.438440185546875,-0.15471267700195312,0.24982404708862305,1.0968968868255615
1761370774614052400,7.45705224609375,-0.021043777465820312,0.34138011932373047,0.9519614577293396
1761370774632663300,7.475663330078125,0.048308372497558594,0.47858667373657227,0.8576701283454895
1761370774651275500,7.494275634765625,-0.18448734283447266,0.5827884674072266,0.8984269499778748
1761370774669886500,7.512886474609375,-0.5746355056762695,0.6545143127441406,0.9625639915466309
1761370774688498700,7.531498779296875,-0.8829727172851562,0.6082944869995117,1.0602624416351318
1761370774707109600,7.550109619140625,-0.9648971557617188,0.6430521011352539,1.1041834354400635
1761370774725721900,7.568721923828125,-1.0038433074951172,0.6754565238952637,1.037123203277588
1761370774744332800,7.587332763671875,-1.0550994873046875,0.6663637161254883,1.0407679080963135
1761370774762945000,7.605945068359375,-0.9877204895019531,0.6113219261169434,0.9494946599006653
1761370774781556000,7.624555908203125,-0.83673095703125,0.428739070892334,0.8089780807495117
1761370774800168200,7.643168212890625,-0.6748905181884766,0.28325366973876953,0.640455424785614
1761370774818779100,7.661779052734375,-0.4569845199584961,0.2506403923034668,0.40314868092536926
1761370774837391400,7.680391357421875,-0.28241634368896484,0.30762386322021484,0.2428039014339447
1761370774856002300,7.699002197265625,-0.2237558364868164,0.44197988510131836,0.1160866916179657
1761370774874614500,7.717614501953125,-0.10344791412353516,0.6498136520385742,-0.0513157844543457
1761370774893225500,7.7362255859375,-0.0022287368774414062,0.8567376136779785,-0.2369452267885208
1761370774911837700,7.754837646484375,0.18445587158203125,0.9122719764709473,-0.08948710560798645
1761370774930448600,7.77344873046875,0.20505046844482422,0.9396805763244629,-0.031021535396575928
1761370774949060900,7.792060791015625,0.18889808654785156,0.8061189651489258,-0.021681100130081177
1761370774967671800,7.810671875,0.2199840545654297,0.6229653358459473,-0.09817185997962952
1761370774986284000,7.829283935546875,0.34995460510253906,0.4325745105743408,0.018301188945770264
1761370775004895000,7.84789501953125,0.6506328582763672,0.189985990524292,0.23644305765628815
1761370775023507200,7.866507080078125,1.0706462860107422,-0.11346054077148438,0.3866053819656372
1761370775042118100,7.8851181640625,1.1563224792480469,-0.47530460357666016,0.34475499391555786
1761370775060730400,7.90373046875,0.7476329803466797,-0.8026294708251953,0.13715964555740356
1761370775079341000,7.922341064453125,0.0638875961303711,-0.9068894386291504,-0.18635427951812744
1761370775097953500,7.94095361328125,-0.5729455947875977,-0.7098677158355713,-0.40255481004714966
1761370775116564200,7.959564208984375,-1.0913877487182617,-0.5302181243896484,-0.5105674266815186
1761370775135176700,7.9781767578125,-1.3816795349121094,-0.2738790512084961,-0.8787856101989746
1761370775153787600,7.99678759765625,-1.420504093170166,0.11709451675415039,-1.1673883199691772
1761370775172399900,8.01539990234375,-1.2402114868164062,0.4029383659362793,-1.1396476030349731
1761370775191010800,8.0340107421875,-1.0214223861694336,0.4375746250152588,-0.8432048559188843
1761370775209623000,8.052623046875,-0.718348503112793,0.35138440132141113,-0.46231648325920105
1761370775228233700,8.071233642578125,-0.4041156768798828,0.23776793479919434,-0.20185956358909607
1761370775246846200,8.08984619140625,-0.16901302337646484,0.0788722038269043,-0.056254833936691284
1761370775265457000,8.108456787109375,0.1009511947631836,-0.03505206108093262,-0.0560646653175354
1761370775284069400,8.1270693359375,0.2585773468017578,-0.11204409599304199,-0.15318185091018677
1761370775302680000,8.14568017578125,0.2771320343017578,-0.14455413818359375,-0.30965539813041687
1761370775321292500,8.16429248046875,0.28524303436279297,-0.14894533157348633,-0.48493117094039917
1761370775339903500,8.182903564453126,0.22236156463623047,-0.1304943561553955,-0.507749617099762
1761370775358515700,8.201515625,0.06413745880126953,-0.05740094184875488,-0.44261136651039124
1761370775377126400,8.22012646484375,-0.10017681121826172,0.026933908462524414,-0.3459479510784149
1761370775395739000,8.23873876953125,-0.2298297882080078,0.14490771293640137,-0.31996840238571167
1761370775414349600,8.257349609375,-0.3371305465698242,0.2194502353668213,-0.35309314727783203
1761370775432962000,8.275962158203125,-0.4035148620605469,0.26770997047424316,-0.39592331647872925
1761370775451572700,8.29457275390625,-0.26844024658203125,0.3704216480255127,-0.4006137549877167
1761370775470185200,8.313185302734375,0.0012664794921875,0.42931461334228516,-0.2686326205730438
1761370775488796000,8.3317958984375,0.1305980682373047,0.4124624729156494,-0.19309648871421814
1761370775507408400,8.350408447265625,0.2480487823486328,0.33945178985595703,-0.04660537838935852
1761370775526019000,8.36901904296875,0.3574056625366211,0.21368789672851562,0.051440998911857605
1761370775544631600,8.387631591796875,0.38056468963623047,0.0352938175201416,0.13913758099079132
1761370775563242500,8.406242431640624,0.28154468536376953,-0.003965139389038086,0.05512373149394989
1761370775581854700,8.424854736328125,0.11323165893554688,0.22804689407348633,-0.11073903739452362
1761370775600465400,8.44346533203125,-0.06952190399169922,0.4508490562438965,0.004365831613540649
1761370775619078000,8.462077880859376,-0.07852745056152344,0.6060693264007568,0.4381256401538849
1761370775637688600,8.4806884765625,0.2771883010864258,0.6047780513763428,0.8879169225692749
1761370775656301000,8.499301025390626,0.817906379699707,0.1655268669128418,1.1928738355636597
1761370775674911700,8.517911865234375,1.1800918579101562,-0.42882394790649414,1.208250880241394
1761370775693524200,8.536524169921876,1.2315921783447266,-1.001676321029663,1.1838089227676392
1761370775712135000,8.555135009765625,0.9861412048339844,-1.365652322769165,0.9200934767723083
1761370775730747400,8.573747314453126,0.649378776550293,-1.273430585861206,0.43329745531082153
1761370775749358000,8.592358154296875,0.3746929168701172,-0.9921226501464844,0.18792404234409332
1761370775767970600,8.610970458984376,0.3399066925048828,-0.6148982048034668,-0.14564742147922516
1761370775786581500,8.62958154296875,0.2837333679199219,-0.3767569065093994,-0.23393172025680542
1761370775805193700,8.64819384765625,0.14605236053466797,-0.23690247535705566,-0.06140366196632385
1761370775823804700,8.6668046875,0.11288833618164062,-0.1836075782775879,-0.047808460891246796
1761370775842417000,8.6854169921875,0.25389575958251953,-0.24326181411743164,0.08974355459213257
1761370775861027800,8.70402783203125,0.6399021148681641,-0.2922995090484619,0.3253834843635559
1761370775879640000,8.72264013671875,0.7695369720458984,-0.3874077796936035,0.5408421158790588
1761370775898251000,8.7412509765625,0.6225318908691406,-0.4381880760192871,0.5873977541923523
1761370775916863200,8.75986328125,0.22613143920898438,-0.3531672954559326,0.4128737151622772
1761370775935474200,8.77847412109375,-0.25396060943603516,-0.1840348243713379,0.15036606788635254
1761370775954086400,8.79708642578125,-0.6916227340698242,-0.05154228210449219,-0.08407838642597198
1761370775972697300,8.815697265625,-0.9492340087890625,0.08797097206115723,-0.2808184027671814
1761370775991309600,8.8343095703125,-0.9231853485107422,0.2079484462738037,-0.31868159770965576
1761370776009920500,8.85292041015625,-0.7472896575927734,0.22723388671875,-0.172848179936409
1761370776028532700,8.87153271484375,-0.6655740737915039,0.3361518383026123,0.08624821901321411
1761370776047143700,8.890143798828126,-0.6797561645507812,0.5344974994659424,0.2824779748916626
1761370776065756000,8.908755859375,-0.6687946319580078,0.6509518623352051,0.3066258728504181
1761370776084366800,8.927366943359376,-0.5001411437988281,0.6626186370849609,0.30993783473968506
1761370776102979000,8.94597900390625,-0.29660701751708984,0.5386874675750732,0.36087143421173096
1761370776121590000,8.964590087890626,-0.12061214447021484,0.3592376708984375,0.3839346468448639
1761370776140202500,8.983202392578125,0.014678001403808594,0.22081470489501953,0.2391587644815445
1761370776158813200,9.001813232421876,-0.021729469299316406,0.1737220287322998,-0.024836208671331406
1761370776177425700,9.02042578125,-0.1681528091430664,0.31258487701416016,-0.15832732617855072
1761370776196036400,9.039036376953124,-0.3144207000732422,0.5831897258758545,-0.44506293535232544
1761370776214648800,9.05764892578125,-0.3204498291015625,0.874518871307373,-0.8683023452758789
1761370776233259500,9.076259521484374,-0.14781475067138672,0.9554672241210938,-1.0935747623443604
1761370776251872000,9.0948720703125,0.22448062896728516,0.819007158279419,-0.8202183246612549
1761370776270482700,9.113482666015624,0.8594331741333008,0.42342329025268555,-0.0961453765630722
1761370776289095200,9.13209521484375,1.5291357040405273,-0.1018822193145752,0.7038350701332092
1761370776307705900,9.150705810546874,1.8762035369873047,-0.6101670265197754,1.2728657722473145
1761370776326318300,9.169318359375,1.507431983947754,-0.9948632717132568,1.1919020414352417
1761370776344929000,9.187928955078124,0.4996786117553711,-1.1443305015563965,0.582410454750061
1761370776363541500,9.20654150390625,-0.7791271209716797,-1.161116361618042,-0.032302357256412506
1761370776382152200,9.225152099609375,-1.6084094047546387,-0.8047890663146973,-0.5521278977394104
1761370776400764700,9.2437646484375,-1.8594636917114258,-0.25641512870788574,-0.8585236668586731
1761370776419375400,9.262375244140625,-1.7931184768676758,0.16126012802124023,-0.9045453071594238
1761370776437987800,9.28098779296875,-1.5361499786376953,0.40302562713623047,-0.757847785949707
1761370776456598500,9.2995986328125,-1.188082218170166,0.477536678314209,-0.4835503101348877
1761370776475211000,9.3182109375,-0.9185028076171875,0.47658729553222656,-0.033817559480667114
1761370776493821700,9.33682177734375,-0.6337909698486328,0.5551280975341797,0.43190211057662964
1761370776512434200,9.35543408203125,-0.27946949005126953,0.6386446952819824,0.6472740769386292
1761370776531044900,9.374044921875,0.11374378204345703,0.5853743553161621,0.5875899195671082
1761370776549657300,9.3926572265625,0.4628791809082031,0.34210968017578125,0.21344693005084991
1761370776568268300,9.411268310546875,0.7734212875366211,0.04646134376525879,-0.25874975323677063
1761370776586880500,9.429880615234374,1.0680837631225586,-0.15763568878173828,-0.7092004418373108
1761370776605491500,9.448491455078125,1.3195838928222656,-0.3428347110748291,-0.8316099047660828
1761370776624103700,9.467103759765624,1.3216314315795898,-0.46163225173950195,-0.7875564098358154
1761370776642714600,9.485714599609375,1.1011180877685547,-0.4151937961578369,-0.7277824878692627
1761370776661326800,9.504326904296875,0.7292194366455078,-0.3652188777923584,-0.5434942245483398
1761370776679937800,9.522937744140625,0.5786018371582031,-0.25311851501464844,-0.5145519971847534
1761370776698550300,9.54155029296875,0.6096458435058594,-0.28406786918640137,-0.3405623137950897
1761370776717161000,9.560160888671875,0.5815105438232422,-0.3839871883392334,-0.13327857851982117
1761370776735773400,9.5787734375,0.11859798431396484,-0.31792330741882324,0.04825833439826965
1761370776754384100,9.597384033203125,-0.43294811248779297,-0.12450027465820312,0.10353806614875793
1761370776772996600,9.61599658203125,-0.8410530090332031,0.03040170669555664,0.07217586040496826
1761370776791607300,9.634607177734376,-0.9353580474853516,0.10207986831665039,-0.0022173523902893066
1761370776810219800,9.6532197265625,-0.925786018371582,0.05986738204956055,-0.009779512882232666
1761370776828830500,9.67183056640625,-0.6924419403076172,0.029075145721435547,-0.0208551287651062
1761370776847443000,9.69044287109375,-0.41305065155029297,-0.11258983612060547,-0.04956686496734619
1761370776866053600,9.7090537109375,-0.3424854278564453,-0.19504618644714355,-0.08515667915344238
1761370776884666000,9.727666015625,-0.2940225601196289,0.03655433654785156,-0.31888800859451294
1761370776903276800,9.74627685546875,-0.07761287689208984,0.1777205467224121,-0.20411694049835205
1761370776921889300,9.76488916015625,0.09908866882324219,0.060378074645996094,0.25752121210098267
1761370776940500200,9.783500244140624,0.3252573013305664,-0.1338939666748047,0.33686167001724243
1761370776959112400,9.802112548828125,0.9498329162597656,-0.5180487632751465,0.4660355746746063
1761370776977723400,9.820723388671874,1.4302396774291992,-1.1180510520935059,0.617050290107727
1761370776996335600,9.839335693359375,1.702967643737793,-1.552983045578003,0.5129035711288452
1761370777014946600,9.857946533203124,1.4000310897827148,-1.6992952823638916,0.22142477333545685
1761370777033558800,9.876558837890625,0.7019643783569336,-1.499061107635498,-0.24957609176635742
1761370777052169700,9.895169677734375,-0.1632862091064453,-1.0657069683074951,-0.5066952109336853
1761370777070782200,9.9137822265625,-0.7793283462524414,-0.516775369644165,-0.8315714001655579
1761370777089393000,9.932392822265625,-1.0880146026611328,0.05404233932495117,-1.0466748476028442
1761370777108005400,9.95100537109375,-0.9868698120117188,0.48235082626342773,-0.9601975679397583
1761370777126616000,9.969615966796875,-0.659515380859375,0.7427070140838623,-0.579826831817627
1761370777145228500,9.988228515625,-0.2254505157470703,0.8311131000518799,0.05252349376678467
1761370777163839200,10.006839111328125,-0.044350624084472656,0.5786006450653076,0.48708903789520264
1761370777182451700,10.02545166015625,0.21148967742919922,0.17791342735290527,0.5885502696037292
1761370777201062400,10.0440625,0.7675228118896484,-0.16037964820861816,0.5351049900054932
1761370777219675000,10.0626748046875,0.9867925643920898,-0.5836162567138672,0.2600124180316925
1761370777238285600,10.08128564453125,0.7719354629516602,-0.7141563892364502,-0.3435852527618408
1761370777256898000,10.09989794921875,0.27999401092529297,-0.5282199382781982,-0.7879498600959778
1761370777275509000,10.118509033203125,-0.1747140884399414,-0.21585750579833984,-0.6597334146499634
1761370777294121200,10.137121337890624,-0.23808956146240234,0.05756783485412598,-0.5139597654342651
1761370777312732200,10.155732177734375,-0.15770626068115234,0.1510605812072754,-0.16314780712127686
1761370777331344400,10.174344482421875,-0.011986732482910156,0.29267001152038574,0.09876883029937744
1761370777349955300,10.192955322265625,-0.017416000366210938,0.3744046688079834,0.19250774383544922
1761370777368567800,10.21156787109375,-0.16414737701416016,0.3060781955718994,0.11802679300308228
1761370777387178500,10.230178466796875,-0.21544456481933594,0.15629839897155762,-0.11643069982528687
1761370777405791000,10.248791015625,-0.029394149780273438,-0.11318635940551758,-0.3231871724128723
1761370777424401700,10.267401611328125,0.09319877624511719,-0.39536261558532715,-0.4352319836616516
1761370777443014100,10.28601416015625,0.12120819091796875,-0.7315411567687988,-0.4508820176124573
1761370777461624800,10.304624755859376,0.2964029312133789,-0.9827573299407959,-0.5756111145019531
1761370777480237300,10.3232373046875,0.43248653411865234,-1.2154781818389893,-0.6650625467300415
1761370777498848000,10.341847900390626,0.28998661041259766,-1.209756851196289,-0.9195989370346069
1761370777517460500,10.36046044921875,-0.18727874755859375,-0.9674899578094482,-1.1161220073699951
1761370777536071200,10.3790712890625,-0.5201826095581055,-0.5240731239318848,-1.1143417358398438
1761370777554683600,10.39768359375,-0.4663534164428711,-0.30039429664611816,-0.9112904071807861
1761370777573294300,10.41629443359375,-0.07444477081298828,-0.43074798583984375,-0.3929917812347412
1761370777591906800,10.43490673828125,0.2855806350708008,-0.8198206424713135,-0.13284516334533691
1761370777610517500,10.453517578125,0.6743097305297852,-1.252540111541748,-0.009783744812011719
1761370777629130000,10.4721298828125,0.7949380874633789,-1.5747430324554443,-0.08777070045471191
1761370777647741000,10.490740966796874,0.7057714462280273,-1.6710069179534912,-0.3905932307243347
1761370777666353200,10.509353271484375,0.39673519134521484,-1.6192543506622314,-0.5678713917732239
1761370777684964000,10.527964111328124,-0.057361602783203125,-1.5427942276000977,-0.5734512209892273
1761370777703576300,10.546576416015625,-0.29761219024658203,-1.334421157836914,-0.7592452168464661
1761370777722187300,10.565187255859374,-0.3251466751098633,-1.134634256362915,-0.8984875679016113
1761370777740799500,10.583799560546876,-0.4022178649902344,-0.8656516075134277,-0.7310910224914551
1761370777759410400,10.602410400390625,-0.31321144104003906,-0.5420360565185547,-0.7501558661460876
1761370777778023000,10.62102294921875,-0.09354114532470703,-0.18392515182495117,-0.7136908173561096
1761370777796633600,10.639633544921875,-0.1360483169555664,0.0990133285522461,-0.5604747533798218
1761370777815246000,10.65824609375,-0.049857139587402344,0.3950967788696289,-0.5794203281402588
1761370777833856800,10.676856689453125,0.6514081954956055,0.3113257884979248,-0.7946901321411133
1761370777852469200,10.69546923828125,1.703268051147461,-0.18932294845581055,-0.849103569984436
1761370777871080000,10.714079833984375,2.523153305053711,-0.6993157863616943,-0.5610696077346802
1761370777889692400,10.7326923828125,2.5540943145751953,-1.252570629119873,-0.21550601720809937
1761370777908303000,10.75130322265625,1.8641023635864258,-1.3807785511016846,-0.5376192331314087
1761370777926915600,10.76991552734375,1.033041000366211,-1.3188340663909912,-1.1061842441558838
1761370777945526300,10.7885263671875,0.45528602600097656,-1.3475537300109863,-1.4457533359527588
1761370777964138800,10.807138671875,0.5804738998413086,-1.2745509147644043,-1.2380810976028442
1761370777982749400,10.82574951171875,0.4488716125488281,-0.9607443809509277,-0.6947959661483765
1761370778001362000,10.84436181640625,0.20010089874267578,-0.9022345542907715,0.3883996605873108
1761370778019972900,10.862972900390625,-0.04253864288330078,-0.8120419979095459,1.0547802448272705
