time,seconds_elapsed,z,y,x
1761370767376925700,0.21992578125,-0.5265503525733948,0.08437328040599823,-0.2298312783241272
1761370767386445000,0.229445068359375,-0.5302154421806335,0.11308310180902481,-0.2426590770483017
1761370767395963100,0.238963134765625,-0.5491516590118408,0.1546207070350647,-0.24937839806079865
1761370767405480000,0.24847998046875,-0.5839699506759644,0.21326205134391785,-0.24937839806079865
1761370767414995500,0.257995361328125,-0.6230642199516296,0.26518407464027405,-0.23899398744106293
1761370767424509700,0.267509765625,-0.6511631608009338,0.29083964228630066,-0.21272756159305573
1761370767434023000,0.27702294921875,-0.656660795211792,0.3091650605201721,-0.1644706279039383
1761370767443535400,0.286535400390625,-0.6365028619766235,0.3274904787540436,-0.10827267915010452
1761370767453046500,0.296046630859375,-0.5882459282875061,0.3274904787540436,-0.0716218426823616
1761370767462556700,0.305556640625,-0.5118899941444397,0.29022881388664246,-0.06245913356542587
1761370767472066000,0.315066162109375,-0.4220954477787018,0.22914408147335052,-0.07589777559041977
1761370767481574700,0.32457470703125,-0.3365768492221832,0.17783290147781372,-0.10827267915010452
1761370767491082500,0.33408251953125,-0.261442631483078,0.14790138602256775,-0.15652960538864136
1761370767500589300,0.34358935546875,-0.1966928243637085,0.1283542811870575,-0.21150586009025574
1761370767510095600,0.353095703125,-0.14660334587097168,0.12468919903039932,-0.2658712565898895
1761370767519601000,0.362600830078125,-0.11300674080848694,0.16011834144592285,-0.31473904848098755
1761370767529106000,0.37210595703125,-0.08735115826129913,0.2065427303314209,-0.3574983477592468
1761370767538610200,0.381610107421875,-0.06413896381855011,0.21142950654029846,-0.37887802720069885
1761370767548113700,0.39111376953125,-0.0525328628718853,0.19982340931892395,-0.3739912211894989
1761370767557617000,0.400616943359375,-0.05619794875383377,0.2077644169330597,-0.3452814221382141
1761370767567119400,0.410119384765625,-0.07269082218408585,0.2315874695777893,-0.30435463786125183
1761370767576621600,0.41962158203125,-0.09284878522157669,0.2560213506221771,-0.2536543309688568
1761370767586123000,0.429123046875,-0.10689827054738998,0.28839626908302307,-0.19684553146362305
1761370767595624200,0.438624267578125,-0.11483928561210632,0.325047105550766,-0.13453911244869232
1761370767605124900,0.448124755859375,-0.1172826737165451,0.3519243896007538,-0.06551336497068405
1761370767614625300,0.457625244140625,-0.12888877093791962,0.3806341886520386,0.004810422193259001
1761370767633624600,0.47662451171875,-0.1704263836145401,0.4649311304092407,0.11903885751962662
1761370767652622600,0.49562255859375,-0.18569757044315338,0.43438875675201416,0.20455747842788696
1761370767671619300,0.514619384765625,-0.1850867122411728,0.33176642656326294,0.3047364354133606
1761370767690543400,0.53354345703125,-0.1832541823387146,0.19004985690116882,0.37681639194488525
1761370767709154300,0.552154296875,-0.17897824943065643,0.08559497445821762,0.40552622079849243
1761370767727766500,0.5707666015625,-0.18936264514923096,0.023899398744106293,0.3682645559310913
1761370767746377200,0.589377197265625,-0.19119518995285034,-0.00908635277301073,0.33650049567222595
1761370767764989700,0.60798974609375,-0.17775654792785645,-0.015805672854185104,0.35177165269851685
1761370767783600400,0.626600341796875,-0.10017894953489304,0.0031305921729654074,0.39147675037384033
1761370767802212900,0.645212890625,0.009773556143045425,0.03306210786104202,0.41713231801986694
1761370767820823600,0.663823486328125,0.10995250940322876,0.043446511030197144,0.4385119676589966
1761370767839435800,0.682435791015625,0.208298921585083,0.057496000081300735,0.49654245376586914
1761370767858046700,0.701046630859375,0.33169007301330566,0.12468919903039932,0.5991647839546204
1761370767876659000,0.719658935546875,0.42576053738594055,0.06849125027656555,0.6474217176437378
1761370767895270000,0.738269775390625,0.38422292470932007,-0.17157171666622162,0.5582380294799805
1761370767913882000,0.756882080078125,0.20463383197784424,-0.4598916172981262,0.3957526683807373
1761370767932493000,0.7754931640625,-0.010995250195264816,-0.5509078502655029,0.32428354024887085
1761370767951105300,0.794105224609375,-0.13927318155765533,-0.4324035048484802,0.3670428395271301
1761370767969716000,0.812716064453125,-0.11972606182098389,-0.22899135947227478,0.436068594455719
1761370767988328400,0.831328369140625,0.007941014133393764,-0.0231358390301466,0.4580591022968292
1761370768006939100,0.849939208984375,0.1441599577665329,0.20104511082172394,0.46661093831062317
1761370768025551400,0.86855126953125,0.261442631483078,0.3366532027721405,0.5112028121948242
1761370768044162300,0.887162353515625,0.3549022674560547,0.348259299993515,0.6064949631690979
1761370768062774500,0.9057744140625,0.4227063059806824,0.378190815448761,0.7353837490081787
1761370768081385500,0.924385498046875,0.48073679208755493,0.4166741967201233,0.8141830563545227
1761370768099997700,0.942997802734375,0.5234960913658142,0.4007921516895294,0.7653152346611023
1761370768118608600,0.961608642578125,0.5241069197654724,0.2193705290555954,0.5869478583335876
1761370768137220900,0.980220947265625,0.48073679208755493,-0.05734328553080559,0.382924884557724
1761370768155831800,0.998831787109375,0.3799470067024231,-0.33833301067352295,0.21616357564926147
1761370768174444000,1.017444091796875,0.25655585527420044,-0.4886014461517334,0.10560022294521332
1761370768193054700,1.0360546875,0.1563768982887268,-0.4458421468734741,0.06345175951719284
1761370768211667200,1.054667236328125,0.07330167293548584,-0.2375432252883911,0.05673243850469589
1761370768230278000,1.07327783203125,0.021990500390529633,-0.04756972938776016,0.010308047756552696
1761370768248890400,1.091890380859375,-0.010995250195264816,0.08742751181125641,-0.08872556686401367
1761370768267501000,1.1105009765625,-0.042759306728839874,0.16378341615200043,-0.19562382996082306
1761370768286113500,1.129113525390625,-0.09040539711713791,0.13690614700317383,-0.26159533858299255
1761370768304724200,1.14772412109375,-0.17225892841815948,0.01779092662036419,-0.2915268540382385
1761370768323336700,1.166336669921875,-0.26999449729919434,-0.07872293889522552,-0.27564483880996704
1761370768341947400,1.184947509765625,-0.3658975064754486,-0.1459161341190338,-0.22372281551361084
1761370768360559600,1.2035595703125,-0.4489727318286896,-0.25647950172424316,-0.1632489264011383
1761370768379170600,1.222170654296875,-0.5198310017585754,-0.37498384714126587,-0.10399674624204636
1761370768397782800,1.24078271484375,-0.601073682308197,-0.4629458785057068,-0.07773031294345856
1761370768416393700,1.259393798828125,-0.6896465420722961,-0.5014292597770691,-0.10460758954286575
1761370768435006000,1.278005859375,-0.7733326554298401,-0.48493635654449463,-0.17913095653057098
1761370768453616600,1.29661669921875,-0.8435800671577454,-0.4195757210254669,-0.2664821147918701
1761370768472229000,1.31522900390625,-0.9064973592758179,-0.3554367423057556,-0.34405970573425293
1761370768490839800,1.33383984375,-0.9828532338142395,-0.34016555547714233,-0.4246915578842163
1761370768509452300,1.352452392578125,-1.0561549663543701,-0.41652145981788635,-0.5395308136940002
1761370768528063000,1.37106298828125,-1.1038010120391846,-0.4629458785057068,-0.6751389503479004
1761370768546675500,1.389675537109375,-1.1099094152450562,-0.4745519757270813,-0.7661551833152771
1761370768565286100,1.4082861328125,-1.0934165716171265,-0.4519506096839905,-0.7740961909294128
1761370768583898600,1.426898681640625,-1.054322361946106,-0.382924884557724,-0.6610894203186035
1761370768602509300,1.44550927734375,-0.9981244206428528,-0.26991814374923706,-0.45767730474472046
1761370768621121500,1.46412158203125,-0.9016105532646179,-0.16546325385570526,-0.2585411071777344
1761370768639732500,1.482732421875,-0.781884491443634,-0.2143310308456421,-0.15775130689144135
1761370768658344700,1.5013447265625,-0.7098045349121094,-0.41468894481658936,-0.11682453751564026
1761370768676955600,1.51995556640625,-0.7421793937683105,-0.5667899250984192,-0.021532366052269936
1761370768695568000,1.53856787109375,-0.7745543122291565,-0.4916556775569916,0.16912832856178284
1761370768714178600,1.557178466796875,-0.7250757217407227,-0.29679539799690247,0.3603235185146332
1761370768732791000,1.575791015625,-0.6694886088371277,-0.1880646049976349,0.42751672863960266
1761370768751401700,1.594401611328125,-0.6627692580223083,-0.24670593440532684,0.33833301067352295
1761370768770014200,1.61301416015625,-0.7024743556976318,-0.39025503396987915,0.19111883640289307
1761370768788625000,1.631625,-0.7623373866081238,-0.41713231801986694,0.12820157408714294
1761370768807237400,1.6502373046875,-0.8032641410827637,-0.24914932250976562,0.16973918676376343
1761370768825848000,1.66884814453125,-0.7501204609870911,0.0489441379904747,0.2650313675403595
1761370768844460500,1.68746044921875,-0.5729747414588928,0.22670069336891174,0.30962321162223816
1761370768863071200,1.7060712890625,-0.3665083646774292,0.12224581092596054,0.3163425326347351
1761370768881683700,1.72468359375,-0.2089097648859024,-0.22105035185813904,0.39086589217185974
1761370768900294400,1.74329443359375,-0.15210096538066864,-0.6590278148651123,0.5790068507194519
1761370768918906600,1.76190673828125,-0.20280128717422485,-1.0163735151290894,0.8380060791969299
1761370768937517600,1.780517578125,-0.3243598937988281,-1.1837456226348877,1.0621870756149292
1761370768956129800,1.7991298828125,-0.4092676639556885,-1.2203965187072754,1.138542890548706
1761370768974740700,1.81774072265625,-0.3903313875198364,-1.1959625482559204,1.051191806793213
1761370768993353000,1.83635302734375,-0.30847787857055664,-1.0799015760421753,0.8813762664794922
1761370769011964000,1.8549638671875,-0.20707722008228302,-0.8557206392288208,0.7048413753509521
1761370769030576000,1.873576171875,-0.09529217332601547,-0.6235986948013306,0.5539621114730835
1761370769049187000,1.89218701171875,-0.0036650835536420345,-0.4861580729484558,0.436068594455719
1761370769067799300,1.91079931640625,0.026877280324697495,-0.47882789373397827,0.3841465711593628
1761370769086410000,1.929409912109375,0.017714571207761765,-0.46905434131622314,0.4226299524307251
1761370769105022500,1.9480224609375,-0.0036650835536420345,-0.4501180648803711,0.47027602791786194
1761370769123633200,1.966633056640625,-0.01038440316915512,-0.5008183717727661,0.4653892517089844
1761370769142245600,1.98524560546875,0.006719320081174374,-0.6052733063697815,0.3994177579879761
1761370769160856300,2.003856201171875,0.014660334214568138,-0.6901810169219971,0.32245099544525146
1761370769179468800,2.02246875,-0.007330167107284069,-0.6449783444404602,0.2912977933883667
1761370769198079500,2.04107958984375,-0.005497625097632408,-0.5276956558227539,0.29740625619888306
1761370769216692000,2.05969189453125,0.02626643143594265,-0.42751672863960266,0.28763270378112793
1761370769235302700,2.078302734375,0.03176405653357506,-0.27113983035087585,0.2387649267911911
1761370769253915100,2.0969150390625,-0.010995250195264816,-0.04085041210055351,0.1727934181690216
1761370769272525800,2.11552587890625,-0.036039989441633224,0.20043425261974335,0.12026055157184601
1761370769291138000,2.134137939453125,-0.01832541823387146,0.348259299993515,0.04390464723110199
1761370769309749000,2.1527490234375,-0.02504473738372326,0.37147149443626404,-0.09544488787651062
1761370769328361200,2.171361328125,-0.05375456064939499,0.33176642656326294,-0.284196674823761
1761370769346972200,2.18997216796875,-0.10262233763933182,0.2468586415052414,-0.46012070775032043
1761370769365584400,2.20858447265625,-0.17714570462703705,0.10025530308485031,-0.5322006940841675
1761370769384195300,2.2271953125,-0.25716668367385864,0.07093463838100433,-0.4271349310874939
1761370769402807600,2.2458076171875,-0.30969956517219543,0.2205922156572342,-0.2017323076725006
1761370769421418200,2.264418212890625,-0.2651077210903168,0.42339351773262024,0.004199574701488018
1761370769440030700,2.28303076171875,-0.13316470384597778,0.5217399001121521,0.09093988686800003
1761370769458641700,2.3016416015625,0.01588202826678753,0.5669426321983337,0.07689040154218674
1761370769477254000,2.32025390625,0.1563768982887268,0.5046361684799194,-0.001985253533348441
1761370769495864600,2.338864501953125,0.2767138183116913,0.42461520433425903,-0.07589777559041977
1761370769514477000,2.35747705078125,0.3542914092540741,0.4166741967201233,-0.09422318637371063
1761370769533087700,2.376087646484375,0.4080459773540497,0.44843825697898865,-0.09727742522954941
1761370769551700200,2.3947001953125,0.4556920528411865,0.4453839957714081,-0.13209572434425354
1761370769570311000,2.413310791015625,0.49173203110694885,0.3390965759754181,-0.19989976286888123
1761370769588923400,2.43192333984375,0.4837910234928131,0.14729054272174835,-0.2786990702152252
1761370769607534000,2.4505341796875,0.4300364851951599,-0.09643751382827759,-0.3581092059612274
1761370769626146600,2.469146484375,0.33169007301330566,-0.3419981002807617,-0.41736137866973877
1761370769644757200,2.48775732421875,0.23212195932865143,-0.5063160061836243,-0.4424061179161072
1761370769663369700,2.50636962890625,0.21318569779396057,-0.45744824409484863,-0.4283566474914551
1761370769681980400,2.52498046875,0.237008735537529,-0.24976016581058502,-0.40514445304870605
1761370769700593000,2.543593017578125,0.28343313932418823,-0.05184566229581833,-0.4112529158592224
1761370769719203600,2.56220361328125,0.34757208824157715,0.06421531736850739,-0.4387410581111908
1761370769737816000,2.580816162109375,0.4049917459487915,0.09903360903263092,-0.4515688419342041
1761370769756426800,2.5994267578125,0.4593571424484253,0.11125055700540543,-0.43324342370033264
1761370769775039200,2.618039306640625,0.5222744345664978,0.15034478902816772,-0.38132140040397644
1761370769793650000,2.63664990234375,0.5522059202194214,0.1918824017047882,-0.30191126465797424
1761370769812262400,2.655262451171875,0.554649293422699,0.23525254428386688,-0.19684553146362305
1761370769830873000,2.673873046875,0.5405998229980469,0.26762744784355164,-0.05757235363125801
1761370769849485600,2.692485595703125,0.5131117105484009,0.28961795568466187,0.11048699915409088
1761370769868096300,2.71109619140625,0.45019441843032837,0.2340308576822281,0.2613662779331207
1761370769886708700,2.729708740234375,0.34757208824157715,0.13507360219955444,0.3853682577610016
1761370769905319400,2.7483193359375,0.20402298867702484,0.09292513877153397,0.4605024755001068
1761370769923932000,2.766931884765625,0.05619794875383377,0.10330954194068909,0.44400960206985474
1761370769942542600,2.78554248046875,-0.04947862774133682,0.11735902726650238,0.3334462344646454
1761370769961155000,2.804155029296875,-0.10811996459960938,0.08437328040599823,0.1624090075492859
1761370769979765800,2.822765869140625,-0.15393351018428802,0.06055023521184921,0.01885990984737873
1761370769998378200,2.841378173828125,-0.18936264514923096,0.04100312292575836,-0.05390727147459984
1761370770016989000,2.859989013671875,-0.19302773475646973,0.023288551717996597,-0.07040014863014221
1761370770035601400,2.878601318359375,-0.16615045070648193,-0.005421269219368696,-0.06795676052570343
1761370770054212000,2.897212158203125,-0.17409147322177887,-0.061619218438863754,-0.06245913356542587
1761370770072824600,2.915824462890625,-0.21501824259757996,-0.11231953650712967,-0.039857782423496246
1761370770091435300,2.934435302734375,-0.2644968628883362,-0.18195612728595734,-0.01175880990922451
1761370770110047700,2.9530478515625,-0.28282228112220764,-0.20333577692508698,0.044515494257211685
1761370770128658400,2.971658447265625,-0.24189551174640656,-0.12514732778072357,0.12392564117908478
1761370770147271000,2.99027099609375,-0.1557660549879074,-0.06039752438664436,0.13675342500209808
1761370770165881600,3.008881591796875,-0.06169557198882103,-0.11598462611436844,0.05856497958302498
1761370770184494000,3.027494140625,0.0036650835536420345,-0.2143310308456421,-0.03130592033267021
1761370770203104800,3.046104736328125,0.018936265259981155,-0.24548424780368805,-0.01969982497394085
1761370770221717200,3.06471728515625,0.016492875292897224,-0.14897038042545319,0.12697987258434296
1761370770240328000,3.083327880859375,0.09712471067905426,0.10330954194068909,0.3560476005077362
1761370770258940400,3.1019404296875,0.23884128034114838,0.3201603293418884,0.5386909246444702
1761370770277551000,3.120551025390625,0.3640649616718292,0.3488701283931732,0.6101600527763367
1761370770296163600,3.13916357421875,0.47646087408065796,0.17783290147781372,0.5661790370941162
1761370770314774300,3.157774169921875,0.5106683373451233,-0.11415208131074905,0.42996010184288025
1761370770333386800,3.17638671875,0.4043808877468109,-0.36154523491859436,0.2796916961669922
1761370770351997400,3.19499755859375,0.1704263836145401,-0.5002075433731079,0.13736428320407867
1761370770370610000,3.21360986328125,-0.09345962852239609,-0.5252522826194763,-0.001374406274408102
1761370770389220600,3.232220703125,-0.30664533376693726,-0.43973368406295776,-0.1632489264011383
1761370770407833000,3.2508330078125,-0.3927747905254364,-0.2558686435222626,-0.3568875193595886
1761370770426443800,3.26944384765625,-0.35795649886131287,-0.10315682739019394,-0.5425850749015808
1761370770445056300,3.28805615234375,-0.21623992919921875,0.0752105712890625,-0.6342121958732605
1761370770463667000,3.3066669921875,-0.04092676565051079,0.30305659770965576,-0.6122216582298279
1761370770482279400,3.325279541015625,0.12461283802986145,0.5028036236763,-0.5095993280410767
1761370770500890000,3.34389013671875,0.21562908589839935,0.5113555192947388,-0.39231663942337036
1761370770519502600,3.362502685546875,0.24311721324920654,0.34459421038627625,-0.2518217861652374
1761370770538113300,3.38111328125,0.21379654109477997,0.09842276573181152,-0.0844496339559555
1761370770556725800,3.399725830078125,0.1569877415895462,-0.09765920788049698,0.0555107444524765
1761370770575336400,3.41833642578125,0.14721418917179108,-0.23387815058231354,0.06650599837303162
1761370770593949000,3.436948974609375,0.208298921585083,-0.28457847237586975,-0.04107947647571564
1761370770612559600,3.4555595703125,0.2852656841278076,-0.21677441895008087,-0.16996824741363525
1761370770631172000,3.474172119140625,0.3573456406593323,-0.04695888236165047,-0.23471805453300476
1761370770649782800,3.49278271484375,0.45202696323394775,0.12407834827899933,-0.22677704691886902
1761370770668395300,3.511395263671875,0.5699204802513123,0.2578538954257965,-0.15469707548618317
1761370770687006000,3.530005859375,0.6830036044120789,0.3378748893737793,-0.055739812552928925
1761370770705618400,3.548618408203125,0.7727981209754944,0.3788016438484192,0.03596363216638565
1761370770724229000,3.56722900390625,0.8320503234863281,0.3519243896007538,0.1214822456240654
1761370770742841600,3.585841552734375,0.8430455923080444,0.2816769480705261,0.19600561261177063
1761370770761452500,3.60445263671875,0.8186116814613342,0.2749576270580292,0.23204560577869415
1761370770780064800,3.623064697265625,0.7966212034225464,0.3079433739185333,0.18867544829845428
1761370770798675700,3.64167578125,0.7923452258110046,0.352535218000412,0.08605311065912247
1761370770817288000,3.660287841796875,0.8118923902511597,0.3916294574737549,-0.037414394319057465
1761370770835899000,3.67889892578125,0.8577058911323547,0.4527141749858856,-0.14125843346118927
1761370770854511000,3.697510986328125,0.9224557280540466,0.5480063557624817,-0.19684553146362305
1761370770873122000,3.7161220703125,1.0018658638000488,0.6347466707229614,-0.19806721806526184
1761370770891734300,3.734734375,1.0886061191558838,0.6701757907867432,-0.1632489264011383
1761370770910345200,3.75334521484375,1.1564102172851562,0.7141568064689636,-0.09422318637371063
1761370770928957400,3.77195751953125,1.202223777770996,0.7404232621192932,-0.015423892997205257
1761370770947568400,3.790568359375,1.2223817110061646,0.7196544408798218,0.03962871432304382
1761370770966180600,3.8091806640625,1.229711890220642,0.6915554404258728,0.06467345356941223
1761370770984791600,3.82779150390625,1.2321553230285645,0.6555154919624329,0.06650599837303162
1761370771003403800,3.84640380859375,1.2174949645996094,0.5889331102371216,0.05856497958302498
1761370771022014700,3.8650146484375,1.1967260837554932,0.5437304377555847,0.07872293889522552
1761370771040627200,3.883627197265625,1.2181057929992676,0.5657209157943726,0.14225105941295624
1761370771059238000,3.90223779296875,1.2938508987426758,0.5987066626548767,0.20944425463676453
1761370771077850400,3.920850341796875,1.3781477212905884,0.539454460144043,0.22288289666175842
1761370771096461000,3.9394609375,1.4618338346481323,0.41056570410728455,0.20333577692508698
1761370771115073500,3.958073486328125,1.5559042692184448,0.2596864402294159,0.1880646049976349
1761370771133684200,3.976684326171875,1.6133239269256592,0.13751699030399323,0.15202461183071136
1761370771152296700,3.995296630859375,1.625540852546692,0.0489441379904747,0.0164165198802948
1761370771170907400,4.013907470703125,1.5540717840194702,0.049554985016584396,-0.24571330845355988
1761370771189520000,4.032519775390625,1.3469945192337036,0.1924932450056076,-0.5370874404907227
1761370771208130600,4.051130615234375,1.1313655376434326,0.47714805603027344,-0.7233958840370178
1761370771226743000,4.069742919921875,1.061728835105896,0.8192225098609924,-0.7624900937080383
1761370771245353700,4.088353759765625,1.1527451276779175,1.1044882535934448,-0.6641436815261841
1761370771263966200,4.10696630859375,1.3573789596557617,1.1838983297348022,-0.47417017817497253
1761370771282577000,4.125576904296875,1.5760623216629028,1.1130400896072388,-0.22372281551361084
1761370771301189400,4.144189453125,1.770311713218689,1.0977689027786255,0.07017108052968979
1761370771319800000,4.162800048828125,2.0311434268951416,1.1991695165634155,0.34993913769721985
1761370771338412500,4.18141259765625,2.34206485748291,1.314695954322815,0.5344150066375732
1761370771357023500,4.2000234375,2.611448287963867,1.330578088760376,0.5496861934661865
1761370771375635700,4.2186357421875,2.8209691047668457,1.113650918006897,0.35116082429885864
1761370771394246700,4.23724658203125,2.8783886432647705,0.7703547477722168,0.019470756873488426
1761370771412859000,4.25585888671875,2.679863214492798,0.23525254428386688,-0.3110739588737488
1761370771431469800,4.2744697265625,2.254713535308838,-0.37803810834884644,-0.5358657836914062
1761370771450082000,4.29308203125,1.673797845840454,-0.7952467799186707,-0.5236487984657288
1761370771468693000,4.31169287109375,1.0843302011489868,-0.7115607261657715,-0.14797775447368622
1761370771487305200,4.33030517578125,0.6237514019012451,-0.16485241055488586,0.33772218227386475
1761370771505916200,4.348916259765625,0.3939964771270752,0.39712706208229065,0.5515187382698059
1761370771524528400,4.3675283203125,0.41110020875930786,0.817389965057373,0.41774317622184753
1761370771543139300,4.386139404296875,0.5448757410049438,0.956052303314209,0.06711684167385101
1761370771561751800,4.404751708984375,0.6133670210838318,0.8790855407714844,-0.29946786165237427
1761370771580362500,4.423362548828125,0.569309651851654,0.7514184713363647,-0.5120427012443542
1761370771598975000,4.44197509765625,0.4605788290500641,0.605426013469696,-0.5523586273193359
1761370771617585700,4.460585693359375,0.3176405727863312,0.42156097292900085,-0.4411844313144684
1761370771636198100,4.4791982421875,0.183865025639534,0.10025530308485031,-0.2420482337474823
1761370771654808800,4.497808837890625,0.04703523963689804,-0.23143476247787476,-0.009315420873463154
1761370771673421300,4.51642138671875,-0.12155860662460327,-0.37437301874160767,0.21066594123840332
1761370771692032000,4.535031982421875,-0.2638860046863556,-0.3071798086166382,0.40125030279159546
1761370771710644500,4.55364453125,-0.33291175961494446,-0.11842801421880722,0.5112028121948242
1761370771729255200,4.572255126953125,-0.33169007301330566,0.06726955622434616,0.5044834613800049
1761370771747867600,4.59086767578125,-0.2883199155330658,0.18943901360034943,0.4207974076271057
1761370771766478300,4.609478271484375,-0.24250635504722595,0.3085542321205139,0.3218401372432709
1761370771785090800,4.6280908203125,-0.2101314514875412,0.43438875675201416,0.2253262847661972
1761370771803701500,4.646701416015625,-0.19241689145565033,0.5125772356987,0.07505785673856735
1761370771822314000,4.66531396484375,-0.16309621930122375,0.4203392565250397,-0.14064757525920868
1761370771840924700,4.683924560546875,-0.10323318839073181,0.20104511082172394,-0.3379512429237366
1761370771859537200,4.702537109375,-0.02870982140302658,0.00862821750342846,-0.4515688419342041
1761370771878147800,4.72114794921875,0.04703523963689804,-0.16973918676376343,-0.492495596408844
1761370771896760300,4.73976025390625,0.033596597611904144,-0.6034407615661621,-0.5584670901298523
1761370771915371000,4.75837109375,-0.0012216945178806782,-0.7891383171081543,-0.5083776116371155
1761370771933983500,4.7769833984375,0.04886778071522713,-0.4220190942287445,-0.26098448038101196
1761370771952594200,4.79559423828125,0.2626643180847168,0.17600037157535553,-0.007482878863811493
1761370771971206700,4.81420654296875,0.5393781065940857,0.5535039901733398,-0.06978929787874222
1761370771989817600,4.832817626953125,0.642076849937439,0.29450473189353943,-0.39476004242897034
1761370772008429800,4.851429931640625,0.4868452548980713,0.05566345527768135,-0.44607120752334595
1761370772027040800,4.870040771484375,0.32313820719718933,0.05444176122546196,-0.12843063473701477
1761370772045653000,4.888653076171875,0.28404396772384644,0.13324105739593506,0.3187859058380127
1761370772064264000,4.907263916015625,0.35856732726097107,0.19127154350280762,0.6651363372802734
1761370772082876200,4.925876220703125,0.517998456954956,0.2450261116027832,0.8117396235466003
1761370772101487000,4.944487060546875,0.6665107011795044,0.32932302355766296,0.7934142351150513
1761370772120099300,4.963099365234375,0.7825716733932495,0.46126604080200195,0.7280535697937012
1761370772138710300,4.981710205078125,0.8442672491073608,0.5993174910545349,0.6596387028694153
1761370772157322800,5.00032275390625,0.841213047504425,0.7416449189186096,0.5777851343154907
1761370772175933400,5.018933349609375,0.8045622110366821,0.8955784440040588,0.5038726329803467
1761370772194546000,5.0375458984375,0.7575269341468811,0.951776385307312,0.4446204602718353
1761370772213156600,5.056156494140625,0.7178218960762024,0.9450570940971375,0.4330143630504608
1761370772231769000,5.07476904296875,0.665289044380188,0.8155574202537537,0.4098021686077118
1761370772250379800,5.0933798828125,0.5717530250549316,0.6713975071907043,0.3584909737110138
1761370772268992300,5.1119921875,0.46729815006256104,0.6280273199081421,0.2931303381919861
1761370772287603000,5.13060302734375,0.38666632771492004,0.4038463830947876,0.1880646049976349
1761370772306215400,5.14921533203125,0.2870981991291046,0.1271325796842575,0.03229855000972748
1761370772324826000,5.167826171875,0.13744063675403595,0.09659022092819214,-0.09239064902067184
1761370772343438600,5.1864384765625,-0.023212196305394173,0.23525254428386688,-0.1766875684261322
1761370772362049300,5.20504931640625,-0.11545012891292572,0.3384857475757599,-0.28908345103263855
1761370772380661800,5.223661865234375,-0.1044548824429512,0.3775799572467804,-0.388651579618454
1761370772399272400,5.2422724609375,-0.0024433890357613564,0.4447731673717499,-0.37765631079673767
1761370772417885000,5.260885009765625,0.11606097966432571,0.44782739877700806,-0.23899398744106293
1761370772436496000,5.279495849609375,0.16004198789596558,0.40140300989151,-0.047798797488212585
1761370772455108000,5.298108154296875,0.14904673397541046,0.30366745591163635,0.053678203374147415
1761370772473719000,5.316718994140625,0.12400199472904205,0.14484715461730957,0.0164165198802948
1761370772492331300,5.335331298828125,0.08612946420907974,-0.14530529081821442,-0.11315945535898209
1761370772510942200,5.353942138671875,0.01832541823387146,-0.49532076716423035,-0.2518217861652374
1761370772529554400,5.372554443359375,-0.04886778071522713,-0.6046624183654785,-0.3709369897842407
1761370772548165400,5.391165283203125,-0.04947862774133682,-0.49470990896224976,-0.4760027229785919
1761370772566777600,5.409777587890625,0.023212196305394173,-0.2919086217880249,-0.5291464328765869
1761370772585388500,5.428388427734375,0.16492876410484314,-0.08422056585550308,-0.43385425209999084
1761370772604000800,5.447000732421875,0.29259583353996277,0.09353598952293396,-0.23227466642856598
1761370772622611700,5.46561181640625,0.284654825925827,0.022066857665777206,-0.15347537398338318
1761370772641224000,5.484223876953125,0.21868331730365753,-0.3438306450843811,-0.2725905776023865
1761370772659835000,5.5028349609375,0.25472331047058105,-0.7023980021476746,-0.3617742955684662
1761370772678447400,5.521447265625,0.3927747905254364,-0.48493635654449463,-0.2279987335205078
1761370772697058000,5.54005810546875,0.5247178077697754,-0.48188212513923645,-0.0716218426823616
1761370772715670500,5.55867041015625,0.5662553906440735,-0.3847574293613434,0.05673243850469589
1761370772734281200,5.57728125,0.573585569858551,-0.39025503396987915,0.24670593440532684
1761370772752893700,5.595893798828125,0.4746283292770386,-0.359712690114975,0.4067479074001312
1761370772771504400,5.61450439453125,0.33535513281822205,-0.10376767814159393,0.40186113119125366
1761370772790116900,5.633116943359375,0.2779355049133301,-0.012140588834881783,0.22105035185813904
1761370772808727600,5.6517275390625,0.21868331730365753,0.18638476729393005,0.0952158197760582
1761370772827340000,5.670340087890625,0.29626092314720154,0.18699561059474945,0.013362283818423748
1761370772845950700,5.68895068359375,0.3689517378807068,0.1277434378862381,-0.07345438003540039
1761370772864563200,5.707563232421875,0.22906772792339325,0.15584240853786469,-0.09544488787651062
1761370772883174000,5.726173828125,0.08796200156211853,0.14362546801567078,-0.02886253222823143
1761370772901786400,5.744786376953125,0.029320668429136276,0.1295759677886963,0.06711684167385101
1761370772920397000,5.76339697265625,0.015271181240677834,0.15767495334148407,0.14408360421657562
1761370772939009500,5.782009521484375,0.061084724962711334,0.3091650605201721,0.15324631333351135
1761370772957620200,5.8006201171875,0.15943112969398499,0.40690064430236816,0.030466007068753242
1761370772976232700,5.819232666015625,0.20585553348064423,0.2841203212738037,-0.25060009956359863
1761370772994843400,5.837843505859375,0.13560809195041656,0.04405735805630684,-0.5835118293762207
1761370773013456000,5.856455810546875,-0.01710372418165207,-0.005421269219368696,-0.798530101776123
1761370773032066800,5.87506689453125,-0.1704263836145401,0.04527905210852623,-0.8522846102714539
1761370773050679000,5.893678955078125,-0.22784602642059326,0.16011834144592285,-0.7637118101119995
1761370773069290000,5.9122900390625,-0.18691925704479218,0.23586340248584747,-0.6415423154830933
1761370773087902200,5.930902099609375,-0.07452336698770523,0.34459421038627625,-0.47417017817497253
1761370773106513200,5.94951318359375,0.042759306728839874,0.3788016438484192,-0.28664007782936096
1761370773125125400,5.96812548828125,0.1582094430923462,0.31710609793663025,-0.13270656764507294
1761370773143736300,5.986736328125,0.265718549489975,0.14851224422454834,-0.09055810421705246
1761370773162348500,6.0053486328125,0.33230090141296387,-0.19050799310207367,-0.1253764033317566
1761370773180959500,6.02395947265625,0.30969956517219543,-0.6541410684585571,-0.17118994891643524
1761370773199571700,6.04257177734375,0.21440738439559937,-1.051191806793213,-0.20051060616970062
1761370773218182700,6.0611826171875,0.05008947476744652,-1.2155096530914307,-0.23532891273498535
1761370773236795000,6.079794921875,-0.12522368133068085,-0.9705599546432495,-0.24754585325717926
1761370773255405800,6.09840576171875,-0.22967857122421265,-0.4366794228553772,-0.22250111401081085
1761370773274018000,6.11701806640625,-0.20341213047504425,0.14851224422454834,-0.15836215019226074
1761370773292629000,6.13562890625,-0.10750912129878998,0.5956524610519409,-0.08017370104789734
1761370773311241200,6.1542412109375,-0.053143709897994995,0.8161683082580566,0.015194825828075409
1761370773329852200,6.17285205078125,-0.012827792204916477,0.8027296662330627,0.10498937219381332
1761370773348464400,6.19146435546875,0.0024433890357613564,0.6035934686660767,0.1471378356218338
1761370773367075300,6.210075439453125,0.007941014133393764,0.20409934222698212,0.09704835712909698
1761370773385687800,6.228687744140625,0.010995250195264816,-0.255257785320282,0.04756972938776016
1761370773404298500,6.247298583984375,-0.014660334214568138,-0.6297071576118469,0.054899897426366806
1761370773422911000,6.265910888671875,-0.056808795779943466,-0.8905389308929443,0.04756972938776016
1761370773441521700,6.284521728515625,-0.06658235192298889,-1.0102649927139282,0.005421269219368696
1761370773460134100,6.303134033203125,-0.06902574002742767,-0.9839985966682434,-0.04107947647571564
1761370773478744800,6.321744873046875,-0.08979454636573792,-0.7744779586791992,-0.04352286830544472
1761370773497357300,6.340357421875,-0.04825693368911743,-0.30046048760414124,0.04512634128332138
1761370773515968000,6.358968017578125,0.05619794875383377,0.28045526146888733,0.18867544829845428
1761370773534580500,6.37758056640625,0.1704263836145401,0.5767161846160889,0.31328830122947693
1761370773553191200,6.396191162109375,0.23273280262947083,0.6616239547729492,0.39330926537513733
1761370773571803600,6.4148037109375,0.27976804971694946,0.7282062768936157,0.4739411175251007
1761370773590414300,6.433414306640625,0.31947311758995056,0.7697439193725586,0.5942780375480652
1761370773609026800,6.45202685546875,0.33291175961494446,0.8766421675682068,0.7763105034828186
1761370773627637500,6.470637451171875,0.3170297145843506,1.094714641571045,0.9479585886001587
1761370773646250000,6.48925,0.1325538605451584,0.7190435528755188,0.926578938961029
1761370773664860700,6.507860595703125,-0.1844758689403534,-0.008475505746901035,0.6584169864654541
1761370773683473200,6.52647314453125,-0.32008397579193115,-0.6272637844085693,0.36154523491859436
1761370773702083800,6.545083740234375,-0.2993151545524597,-0.9198595881462097,0.15813308954238892
1761370773720696300,6.5636962890625,-0.20707722008228302,-0.8825979232788086,0.08788564801216125
1761370773739307000,6.58230712890625,-0.1429382562637329,-0.6235986948013306,0.03779617324471474
1761370773757919500,6.60091943359375,-0.09895725548267365,-0.007253811229020357,-0.001374406274408102
1761370773776530200,6.6195302734375,-0.06719319522380829,0.642076849937439,-0.08017370104789734
1761370773795142700,6.638142578125,-0.05741964280605316,0.9896489381790161,-0.20845162868499756
1761370773813753300,6.65675341796875,0.09284878522157669,1.0452359914779663,-0.3715478479862213
1761370773832365800,6.67536572265625,0.34635040163993835,0.7465317249298096,-0.47417017817497253
1761370773850976500,6.6939765625,0.4092676639556885,0.6310815811157227,-0.44790375232696533
1761370773869589000,6.712589111328125,0.4294256269931793,0.5980958342552185,-0.34161633253097534
1761370773888199700,6.73119970703125,0.43858832120895386,0.39834877848625183,-0.2652604281902313
1761370773906812200,6.749812255859375,0.4746283292770386,0.13690614700317383,-0.27625566720962524
1761370773925422800,6.7684228515625,0.5583143830299377,-0.15385715663433075,-0.3336753249168396
1761370773944035300,6.787035400390625,0.6408551335334778,-0.40369367599487305,-0.31657159328460693
1761370773962646000,6.80564599609375,0.609701931476593,-0.5362475514411926,-0.18096350133419037
1761370773981258500,6.824258544921875,0.49417543411254883,-0.3957526683807373,0.010308047756552696
1761370773999869200,6.842869140625,0.337798535823822,-0.09093988686800003,0.13858596980571747
1761370774018481700,6.861481689453125,0.21623992919921875,0.193104088306427,0.15507884323596954
1761370774037092400,6.88009228515625,0.14904673397541046,0.25235626101493835,0.07994463294744492
1761370774055704800,6.898704833984375,0.13377554714679718,0.13568444550037384,-0.029473381116986275
1761370774074315800,6.917315673828125,0.14049486815929413,-0.07078192383050919,-0.1375933438539505
1761370774092928000,6.935927978515625,0.1319430023431778,-0.25647950172424316,-0.20234315097332
1761370774111539000,6.9545390625,0.09834641218185425,-0.39208757877349854,-0.20356485247612
1761370774130151200,6.973151123046875,0.028098974376916885,-0.5686224699020386,-0.13148486614227295
1761370774148762000,6.99176220703125,-0.05070032179355621,-0.6309288740158081,-0.011147962883114815
1761370774167374300,7.010374267578125,-0.1459924876689911,-0.5454102754592896,0.10254598408937454
1761370774185985300,7.0289853515625,-0.24494975805282593,-0.3817031681537628,0.13186664879322052
1761370774204597500,7.047597412109375,-0.3035911023616791,-0.3163425326347351,0.07689040154218674
1761370774223208400,7.06620849609375,-0.314586341381073,-0.3163425326347351,0.03229855000972748
1761370774241820700,7.084820556640625,-0.30969956517219543,-0.2674747407436371,0.020692450925707817
1761370774260431600,7.103431640625,-0.3549022674560547,-0.2790808379650116,-0.019088976085186005
1761370774279043800,7.1220439453125,-0.4318690001964569,-0.3584909737110138,-0.05268557742238045
1761370774297654800,7.14065478515625,-0.5454866290092468,-0.352993369102478,-0.03497100621461868
1761370774316267000,7.15926708984375,-0.6358919739723206,-0.21616357564926147,0.0005344913806766272
1761370774334878000,7.1778779296875,-0.6835380792617798,-0.06711684167385101,-0.04352286830544472
1761370774353490200,7.196490234375,-0.6890357136726379,-0.09338327497243881,-0.18523943424224854
1761370774372101000,7.21510107421875,-0.6707102656364441,-0.17951273918151855,-0.30313295125961304
1761370774390713300,7.23371337890625,-0.6200099587440491,-0.2137201875448227,-0.2725905776023865
1761370774409324300,7.25232421875,-0.5497625470161438,-0.014583977870643139,-0.0716218426823616
1761370774427936500,7.2709365234375,-0.4556920528411865,0.3641413152217865,0.17768019437789917
1761370774446547500,7.28954736328125,-0.3530697226524353,0.586489737033844,0.33527877926826477
1761370774465159700,7.30815966796875,-0.26755109429359436,0.5180748105049133,0.3450523316860199
1761370774483770600,7.3267705078125,-0.18019993603229523,0.22547899186611176,0.26197710633277893
1761370774502382800,7.3453828125,-0.16309621930122375,-0.13980767130851746,0.12636902928352356
1761370774520993800,7.363993896484375,-0.1178935244679451,-0.40491536259651184,-0.03558185324072838
1761370774539606000,7.38260595703125,-0.042759306728839874,-0.5197546482086182,-0.16935740411281586
1761370774558217000,7.401217041015625,0.005497625097632408,-0.48310381174087524,-0.28541839122772217
1761370774576829200,7.4198291015625,0.029320668429136276,-0.3163425326347351,-0.35627666115760803
1761370774595440000,7.438440185546875,0.0525328628718853,-0.13064496219158173,-0.35261157155036926
1761370774614052400,7.45705224609375,0.08429691940546036,-0.004810422193259001,-0.26281702518463135
1761370774632663300,7.475663330078125,0.09895725548267365,0.006184828467667103,-0.11315945535898209
1761370774651275500,7.494275634765625,0.07330167293548584,-0.034131091088056564,0.008475505746901035
1761370774669886500,7.512886474609375,0.025655584409832954,-0.05978667363524437,0.06528430432081223
1761370774688498700,7.531498779296875,-0.0397050715982914,-0.04879142343997955,0.06650599837303162
1761370774707109600,7.550109619140625,-0.1313321590423584,-0.013973130844533443,0.045737188309431076
1761370774725721900,7.568721923828125,-0.22967857122421265,0.07398887723684311,0.020692450925707817
1761370774744332800,7.587332763671875,-0.3310792148113251,0.13751699030399323,-0.05207473039627075
1761370774762945000,7.605945068359375,-0.40132665634155273,0.19066070020198822,-0.15347537398338318
1761370774781556000,7.624555908203125,-0.4282039403915405,0.33054471015930176,-0.2170034945011139
1761370774800168200,7.643168212890625,-0.41476529836654663,0.5003602504730225,-0.23105297982692719
1761370774818779100,7.661779052734375,-0.3512371778488159,0.5999283790588379,-0.19867807626724243
1761370774837391400,7.680391357421875,-0.2644968628883362,0.6530720591545105,-0.13514995574951172
1761370774856002300,7.699002197265625,-0.1704263836145401,0.6640673279762268,-0.07101099193096161
1761370774874614500,7.717614501953125,-0.07757759839296341,0.6206972002983093,-0.03374931216239929
1761370774893225500,7.7362255859375,0.01710372418165207,0.5290700793266296,-0.013591351918876171
1761370774911837700,7.754837646484375,0.04153761267662048,0.3647521734237671,-0.016645587980747223
1761370774930448600,7.77344873046875,0.023823043331503868,0.27617931365966797,-0.024586603045463562
1761370774949060900,7.792060791015625,0.004275931045413017,0.11002886295318604,-0.06917845457792282
1761370774967671800,7.810671875,0.007330167107284069,-0.09277242422103882,-0.125987246632576
1761370774986284000,7.829283935546875,-0.012827792204916477,-0.29679539799690247,-0.19256959855556488
1761370775004895000,7.84789501953125,-0.05008947476744652,-0.4476746916770935,-0.25060009956359863
1761370775023507200,7.866507080078125,-0.08307522535324097,-0.40308284759521484,-0.2041756957769394
1761370775042118100,7.8851181640625,-0.10017894953489304,-0.16363070905208588,-0.036192700266838074
1761370775060730400,7.90373046875,-0.06902574002742767,0.11002886295318604,0.14286190271377563
1761370775079341000,7.922341064453125,0.016492875292897224,0.30305659770965576,0.23204560577869415
1761370775097953500,7.94095361328125,0.08185353130102158,0.47653722763061523,0.23632153868675232
1761370775116564200,7.959564208984375,0.11422843486070633,0.6005392074584961,0.17645850777626038
1761370775135176700,7.9781767578125,0.18630841374397278,0.5871005654335022,0.07078192383050919
1761370775153787600,7.99678759765625,0.26632940769195557,0.4270585775375366,-0.06795676052570343
1761370775172399900,8.01539990234375,0.30908870697021484,0.18455222249031067,-0.20722992718219757
1761370775191010800,8.0340107421875,0.2864873707294464,-0.03901786729693413,-0.31351736187934875
1761370775209623000,8.052623046875,0.2101314514875412,-0.22410458326339722,-0.39231663942337036
1761370775228233700,8.071233642578125,0.12522368133068085,-0.27297237515449524,-0.4369085133075714
1761370775246846200,8.08984619140625,0.05070032179355621,-0.22899135947227478,-0.46928340196609497
1761370775265457000,8.108456787109375,0.015271181240677834,-0.12514732778072357,-0.4766135811805725
1761370775284069400,8.1270693359375,0.004886778071522713,0.04772244393825531,-0.4411844313144684
1761370775302680000,8.14568017578125,0.02076880633831024,0.15095563232898712,-0.386208176612854
1761370775321292500,8.16429248046875,0.0647498071193695,0.18943901360034943,-0.29030516743659973
1761370775339903500,8.182903564453126,0.09529217332601547,0.18638476729393005,-0.17180079221725464
1761370775358515700,8.201515625,0.10873081535100937,0.15706409513950348,-0.06795676052570343
1761370775377126400,8.22012646484375,0.10689827054738998,0.11919157207012177,0.008475505746901035
1761370775395739000,8.23873876953125,0.08857285231351852,0.0623827762901783,0.05184566229581833
1761370775414349600,8.257349609375,0.07513421028852463,-0.013973130844533443,0.05428905040025711
1761370775432962000,8.275962158203125,0.07513421028852463,-0.09888090193271637,0.017027366906404495
1761370775451572700,8.29457275390625,0.06963659077882767,-0.18501035869121552,-0.03924693539738655
1761370775470185200,8.313185302734375,0.054365407675504684,-0.2503710091114044,-0.0716218426823616
1761370775488796000,8.3317958984375,0.021379653364419937,-0.20577916502952576,-0.07956285774707794
1761370775507408400,8.350408447265625,0.007941014133393764,-0.22288289666175842,-0.06978929787874222
1761370775526019000,8.36901904296875,-0.01038440316915512,-0.2375432252883911,-0.027029991149902344
1761370775544631600,8.387631591796875,-0.04459185153245926,-0.17951273918151855,0.05673243850469589
1761370775563242500,8.406242431640624,-0.062306419014930725,-0.043293800204992294,0.15263545513153076
1761370775581854700,8.424854736328125,-0.0653606578707695,-0.04023956134915352,0.19722731411457062
1761370775600465400,8.44346533203125,-0.09895725548267365,-0.21005509793758392,0.16973918676376343
1761370775619078000,8.462077880859376,-0.22051586210727692,-0.6138251423835754,0.07139277458190918
1761370775637688600,8.4806884765625,-0.4416425824165344,-1.12082839012146,-0.05268557742238045
1761370775656301000,8.499301025390626,-0.6927008032798767,-1.3138561248779297,-0.11499200016260147
1761370775674911700,8.517911865234375,-0.841747522354126,-1.0682954788208008,-0.10521844029426575
1761370775693524200,8.536524169921876,-0.8857285380363464,-0.5686224699020386,-0.06673506647348404
1761370775712135000,8.555135009765625,-0.8075400590896606,0.01046075951308012,-0.016034740954637527
1761370775730747400,8.573747314453126,-0.6548282504081726,0.378190815448761,-0.012980503961443901
1761370775749358000,8.592358154296875,-0.5522059202194214,0.48631078004837036,-0.04046862944960594
1761370775767970600,8.610970458984376,-0.45141613483428955,0.44660571217536926,-0.05085303261876106
1761370775786581500,8.62958154296875,-0.3787252902984619,0.3213820159435272,-0.0716218426823616
1761370775805193700,8.64819384765625,-0.3561239540576935,0.14606885612010956,-0.14003673195838928
1761370775823804700,8.6668046875,-0.3268032968044281,-0.1074327602982521,-0.23838314414024353
1761370775842417000,8.6854169921875,-0.2993151545524597,-0.308401495218277,-0.3049654960632324
1761370775861027800,8.70402783203125,-0.2901524603366852,-0.3560476005077362,-0.28541839122772217
1761370775879640000,8.72264013671875,-0.28343313932418823,-0.17706935107707977,-0.18157434463500977
1761370775898251000,8.7412509765625,-0.24617144465446472,0.08376242965459824,-0.0459662564098835
1761370775916863200,8.75986328125,-0.2089097648859024,0.27679017186164856,0.07139277458190918
1761370775935474200,8.77847412109375,-0.17348061501979828,0.27984440326690674,0.1330883502960205
1761370775954086400,8.79708642578125,-0.12216944992542267,0.22242476046085358,0.15019206702709198
1761370775972697300,8.815697265625,-0.03420744836330414,0.09842276573181152,0.12392564117908478
1761370775991309600,8.8343095703125,0.07269082218408585,-0.03596363216638565,0.11598462611436844
1761370776009920500,8.85292041015625,0.15087927877902985,-0.13064496219158173,0.17157171666622162
1761370776028532700,8.87153271484375,0.1588202863931656,-0.20272493362426758,0.24365170300006866
1761370776047143700,8.890143798828126,0.11056335270404816,-0.3053472638130188,0.25953373312950134
1761370776065756000,8.908755859375,0.045202698558568954,-0.41774317622184753,0.22227205336093903
1761370776084366800,8.927366943359376,-0.023212196305394173,-0.45439401268959045,0.17706935107707977
1761370776102979000,8.94597900390625,-0.08002099394798279,-0.32550522685050964,0.1330883502960205
1761370776121590000,8.964590087890626,-0.11117420345544815,-0.0555107444524765,0.10376767814159393
1761370776140202500,8.983202392578125,-0.10078980028629303,0.2578538954257965,0.10010259598493576
1761370776158813200,9.001813232421876,-0.046424392610788345,0.4924192428588867,0.11842801421880722
1761370776177425700,9.02042578125,-0.023823043331503868,0.6042042970657349,0.1330883502960205
1761370776196036400,9.039036376953124,-0.0018325417768210173,0.637190043926239,0.1343100368976593
1761370776214648800,9.05764892578125,0.08246438205242157,0.5137988924980164,0.08971819281578064
1761370776233259500,9.076259521484374,0.18569757044315338,0.1674485057592392,0.021303297951817513
1761370776251872000,9.0948720703125,0.237008735537529,-0.28518930077552795,-0.04963133856654167
1761370776270482700,9.113482666015624,0.2742704153060913,-0.6730773448944092,-0.09361234307289124
1761370776289095200,9.13209521484375,0.25472331047058105,-0.7628718614578247,-0.006261184345930815
1761370776307705900,9.150705810546874,0.1588202863931656,-0.4372902810573578,0.21982865035533905
1761370776326318300,9.169318359375,0.10628741979598999,0.15156647562980652,0.4495072364807129
1761370776344929000,9.187928955078124,0.1844758689403534,0.7288171648979187,0.5759525895118713
1761370776363541500,9.20654150390625,0.33718767762184143,1.0886061191558838,0.5845044851303101
1761370776382152200,9.225152099609375,0.5082249045372009,1.1063207387924194,0.49532076716423035
1761370776400764700,9.2437646484375,0.6390225887298584,0.8815289735794067,0.34016555547714233
1761370776419375400,9.262375244140625,0.692777156829834,0.5840463638305664,0.17584764957427979
1761370776437987800,9.28098779296875,0.6866686940193176,0.3103867769241333,0.05673243850469589
1761370776456598500,9.2995986328125,0.6402443051338196,0.05932854115962982,-0.001985253533348441
1761370776475211000,9.3182109375,0.5308262705802917,-0.2015032321214676,-0.045355409383773804
1761370776493821700,9.33682177734375,0.33596599102020264,-0.47943875193595886,-0.1382041871547699
1761370776512434200,9.35543408203125,0.0916270911693573,-0.5906129479408264,-0.28664007782936096
1761370776531044900,9.374044921875,-0.11239589750766754,-0.45500484108924866,-0.46867257356643677
1761370776549657300,9.3926572265625,-0.21868331730365753,-0.15630054473876953,-0.6287145614624023
1761370776568268300,9.411268310546875,-0.21868331730365753,0.09048175066709518,-0.7069029808044434
1761370776586880500,9.429880615234374,-0.09834641218185425,0.23769593238830566,-0.668419599533081
1761370776605491500,9.448491455078125,0.0787992998957634,0.38124504685401917,-0.5065450668334961
1761370776624103700,9.467103759765624,0.2363978922367096,0.4557684063911438,-0.26159533858299255
1761370776642714600,9.485714599609375,0.3310792148113251,0.42217180132865906,0.008475505746901035
1761370776661326800,9.504326904296875,0.38483378291130066,0.3378748893737793,0.20883341133594513
1761370776679937800,9.522937744140625,0.4422534108161926,0.21570543944835663,0.3432198166847229
1761370776698550300,9.54155029296875,0.4721849262714386,0.2560213506221771,0.4782170355319977
1761370776717161000,9.560160888671875,0.4825693368911743,0.38368842005729675,0.5948888659477234
1761370776735773400,9.5787734375,0.4703523814678192,0.5559473633766174,0.6181010603904724
1761370776754384100,9.597384033203125,0.4459185004234314,0.6475744247436523,0.5093702673912048
1761370776772996600,9.61599658203125,0.418430358171463,0.664678156375885,0.3438306450843811
1761370776791607300,9.634607177734376,0.3793361485004425,0.6048151254653931,0.20822255313396454
1761370776810219800,9.6532197265625,0.3017585575580597,0.4295019805431366,0.11537377536296844
1761370776828830500,9.67183056640625,0.20707722008228302,0.17294612526893616,0.07078192383050919
1761370776847443000,9.69044287109375,0.1423274129629135,0.011071606539189816,0.08055548369884491
1761370776866053600,9.7090537109375,0.11545012891292572,-0.013362283818423748,0.08788564801216125
1761370776884666000,9.727666015625,0.130721315741539,-0.006642963737249374,0.07383616268634796
1761370776903276800,9.74627685546875,0.09468132257461548,-0.2247154414653778,0.009697199799120426
1761370776921889300,9.76488916015625,-0.04092676565051079,-0.48310381174087524,-0.12720894813537598
1761370776940500200,9.783500244140624,-0.1692046970129013,-0.6822400093078613,-0.33978378772735596
1761370776959112400,9.802112548828125,-0.26632940769195557,-0.7176691889762878,-0.4918847680091858
1761370776977723400,9.820723388671874,-0.2852656841278076,-0.4073587656021118,-0.4662291705608368
1761370776996335600,9.839335693359375,-0.17836740612983704,0.13751699030399323,-0.2970244884490967
1761370777014946600,9.857946533203124,0.016492875292897224,0.7410340905189514,-0.09300149232149124
1761370777033558800,9.876558837890625,0.2480039894580841,1.136863112449646,0.0561215914785862
1761370777052169700,9.895169677734375,0.42514967918395996,1.2591089010238647,0.08788564801216125
1761370777070782200,9.9137822265625,0.605426013469696,1.1857309341430664,0.044515494257211685
1761370777089393000,9.932392822265625,0.762413740158081,0.9542197585105896,-0.04169032722711563
1761370777108005400,9.95100537109375,0.8338828682899475,0.4936409294605255,-0.1369825005531311
1761370777126616000,9.969615966796875,0.7770740985870361,-0.04023956134915352,-0.2029540091753006
1761370777145228500,9.988228515625,0.6151995658874512,-0.459280788898468,-0.256708562374115
1761370777163839200,10.006839111328125,0.46485477685928345,-0.6645254492759705,-0.3593308925628662
1761370777182451700,10.02545166015625,0.37383851408958435,-0.667579710483551,-0.4424061179161072
1761370777201062400,10.0440625,0.3365768492221832,-0.4232407808303833,-0.38132140040397644
1761370777219675000,10.0626748046875,0.4056025743484497,0.07154548168182373,-0.19867807626724243
1761370777238285600,10.08128564453125,0.6255839467048645,0.47653722763061523,-0.023975754156708717
1761370777256898000,10.09989794921875,0.873587965965271,0.6408551335334778,0.06528430432081223
1761370777275509000,10.118509033203125,1.0146936178207397,0.660402238368988,0.0823880210518837
1761370777294121200,10.137121337890624,1.103877305984497,0.5736619234085083,0.09827005118131638
1761370777312732200,10.155732177734375,1.1295329332351685,0.5254049897193909,0.15630054473876953
1761370777331344400,10.174344482421875,1.077610969543457,0.4252260625362396,0.22166119515895844
1761370777349955300,10.192955322265625,0.9755994081497192,0.35681116580963135,0.26075541973114014
1761370777368567800,10.21156787109375,0.8998543620109558,0.34642675518989563,0.23265644907951355
1761370777387178500,10.230178466796875,0.8894699811935425,0.3378748893737793,0.14408360421657562
1761370777405791000,10.248791015625,0.9047411680221558,0.4032355546951294,0.05673243850469589
1761370777424401700,10.267401611328125,0.9676584005355835,0.642076849937439,-0.019088976085186005
1761370777443014100,10.28601416015625,1.0782217979431152,0.947500467300415,-0.10094250738620758
1761370777461624800,10.304624755859376,1.21077561378479,1.1667946577072144,-0.13453911244869232
1761370777480237300,10.3232373046875,1.339664340019226,1.3134742975234985,-0.09239064902067184
1761370777498848000,10.341847900390626,1.5052039623260498,1.427702784538269,-0.024586603045463562
1761370777517460500,10.36046044921875,1.686625599861145,1.3965495824813843,-0.06368082761764526
1761370777536071200,10.3790712890625,1.8564411401748657,1.1301437616348267,-0.23838314414024353
1761370777554683600,10.39768359375,1.9523441791534424,0.6323032975196838,-0.4631749391555786
1761370777573294300,10.41629443359375,1.9340187311172485,0.2682383060455322,-0.5706840753555298
1761370777591906800,10.43490673828125,1.922412633895874,0.10941801220178604,-0.5694623589515686
1761370777610517500,10.453517578125,1.9205801486968994,0.11125055700540543,-0.4680617153644562
1761370777629130000,10.4721298828125,1.9492899179458618,0.28961795568466187,-0.2811424434185028
1761370777647741000,10.490740966796874,2.038473606109619,0.4252260625362396,-0.1113269105553627
1761370777666353200,10.509353271484375,2.1404850482940674,0.5535039901733398,0.00786465872079134
1761370777684964000,10.527964111328124,2.2040133476257324,0.6426876783370972,0.06039752438664436
1761370777703576300,10.546576416015625,2.234555721282959,0.5962632894515991,0.08910734206438065
1761370777722187300,10.565187255859374,2.229058027267456,0.5370110869407654,0.13797512650489807
1761370777740799500,10.583799560546876,2.1691949367523193,0.5486171841621399,0.1349208950996399
1761370777759410400,10.602410400390625,2.0824546813964844,0.5205182433128357,0.08666395395994186
1761370777778023000,10.62102294921875,1.9028655290603638,0.5064687132835388,0.03168770298361778
1761370777796633600,10.639633544921875,1.6670784950256348,0.5199073553085327,-0.14186927676200867
1761370777815246000,10.65824609375,1.4209071397781372,0.405678927898407,-0.4491254389286041
1761370777833856800,10.676856689453125,1.1863417625427246,0.15217731893062592,-0.6830799579620361
1761370777852469200,10.69546923828125,1.0146936178207397,0.07154548168182373,-0.669030487537384
1761370777871080000,10.714079833984375,0.8870265483856201,0.27984440326690674,-0.44607120752334595
1761370777889692400,10.7326923828125,0.7410340905189514,0.6946097016334534,-0.17057909071445465
1761370777908303000,10.75130322265625,0.692777156829834,1.0201913118362427,0.013973130844533443
1761370777926915600,10.76991552734375,0.8192225098609924,1.002476692199707,0.06345175951719284
1761370777945526300,10.7885263671875,0.9829295873641968,0.9059628248214722,0.21677441895008087
1761370777964138800,10.807138671875,0.9847621321678162,0.40140300989151,0.433625191450119
1761370777982749400,10.82574951171875,1.0580638647079468,0.24136102199554443,0.5032618045806885
1761370778001362000,10.84436181640625,0.9847621321678162,0.5199073553085327,0.40430453419685364
1761370778019972900,10.862972900390625,0.8234984874725342,0.9884272217750549,0.250981867313385
