time,seconds_elapsed,z,y,x
1761369674633271300,0.208271240234375,-0.544825553894043,0.16508090496063232,1.0739834308624268
1761369674651881200,0.226881103515625,-1.4365696907043457,0.3014177083969116,0.6450762748718262
1761369674670492700,0.24549267578125,-1.8341526985168457,0.4271731376647949,0.6213433742523193
1761369674689102600,0.2641025390625,-1.758923053741455,0.3732994794845581,0.75042724609375
1761369674707714000,0.282714111328125,-1.484095573425293,0.20125651359558105,0.770596981048584
1761369674726324000,0.301323974609375,-1.259382724761963,-0.02632594108581543,0.8231418132781982
1761369674744935400,0.319935302734375,-1.2882671356201172,-0.327150821685791,0.8955755233764648
1761369674763545300,0.33854541015625,-1.567826271057129,-0.6861642599105835,0.9143021106719971
1761369674782156500,0.357156494140625,-1.836656093597412,-0.9356471300125122,0.9213912487030029
1761369674800766500,0.375766357421875,-2.0606656074523926,-0.9557137489318848,0.625241756439209
1761369674819378000,0.3943779296875,-2.2598061561584473,-0.978992223739624,0.3336212635040283
1761369674837987800,0.41298779296875,-2.189121723175049,-0.9124654531478882,-0.02519392967224121
1761369674856599300,0.431599365234375,-1.589327335357666,-0.9183695316314697,-0.17895102500915527
1761369674875209200,0.450209228515625,-0.8471956253051758,-0.6830546855926514,-0.43996715545654297
1761369674893820700,0.468820556640625,-0.3166317939758301,0.20467019081115723,-1.385899305343628
1761369674912430600,0.4874306640625,0.9698529243469238,1.1014344692230225,-2.3221473693847656
1761369674931042000,0.5060419921875,3.5299158096313477,1.8905978202819824,-2.8620901107788086
1761369674949652000,0.52465185546875,6.654916286468506,2.026954174041748,-2.9499905109405518
1761369674968263400,0.543263427734375,9.491416931152344,2.319784164428711,-2.6275501251220703
1761369674986873000,0.561873046875,11.144794464111328,2.98936128616333,-1.0141618251800537
1761369675005484500,0.580484619140625,13.165413856506348,3.492009162902832,1.5956722497940063
1761369675024094500,0.599094482421875,13.096197128295898,1.5731134414672852,3.5168874263763428
1761369675042706000,0.617705810546875,9.956149101257324,0.21880435943603516,2.317953586578369
1761369675061315800,0.63631591796875,5.715065002441406,0.44671010971069336,0.13481640815734863
1761369675079927300,0.65492724609375,1.435342788696289,1.1738920211791992,-0.9849693775177002
1761369675098537200,0.673537109375,-1.5945510864257812,1.89300537109375,-1.4662675857543945
1761369675117148700,0.692148681640625,-2.679215431213379,1.8242497444152832,-0.6649997234344482
1761369675135758600,0.710758544921875,-3.246145248413086,1.2317392826080322,1.0463930368423462
1761369675154370000,0.7293701171875,-3.9894938468933105,0.9890623092651367,1.5202280282974243
1761369675172980000,0.74797998046875,-4.577822685241699,0.8840084075927734,1.4176467657089233
1761369675191591200,0.766591064453125,-5.038514137268066,0.8826837539672852,1.2166919708251953
1761369675210201300,0.785201416015625,-5.2390456199646,1.1378378868103027,1.3773839473724365
1761369675228812500,0.8038125,-5.060135364532471,1.1688483953475952,1.729241967201233
1761369675247422500,0.82242236328125,-5.048523426055908,0.9140306711196899,2.3792724609375
1761369675266034000,0.841033935546875,-5.67473840713501,0.8699332475662231,2.635009288787842
1761369675284643800,0.859643798828125,-6.213869571685791,0.8510602116584778,2.6477832794189453
1761369675303255300,0.87825537109375,-6.498221397399902,0.5528275966644287,2.7890772819519043
1761369675321865200,0.896865234375,-7.120007038116455,-0.27213048934936523,3.5323925018310547
1761369675340476700,0.9154765625,-7.369047164916992,-0.7662332057952881,4.329840183258057
1761369675359086600,0.934086669921875,-6.488195419311523,-1.1345089673995972,4.2470383644104
1761369675377698000,0.952697998046875,-5.13278865814209,-0.9440627694129944,3.7934322357177734
1761369675396308000,0.971307861328125,-4.810995101928711,-0.9591975212097168,3.641878843307495
1761369675414919200,0.989919189453125,-3.4835214614868164,-0.4540296792984009,3.1285147666931152
1761369675433529300,1.008529296875,-0.19345998764038086,0.12045884132385254,2.020317554473877
1761369675452140500,1.027140625,2.53271484375,-0.05255317687988281,0.10941696166992188
1761369675470750500,1.04575048828125,4.188563346862793,1.7477140426635742,-5.811917304992676
1761369675489362000,1.06436181640625,2.526458740234375,4.497131824493408,-7.118950843811035
1761369675507971800,1.082971923828125,1.031682014465332,2.881105899810791,-4.033175945281982
1761369675526583300,1.101583251953125,4.243161201477051,3.805176258087158,-5.959916114807129
1761369675545193200,1.120193115234375,6.236528396606445,-0.5654864311218262,-1.0662271976470947
1761369675563804700,1.1388046875,9.301862716674805,-0.4034602642059326,-1.5024974346160889
1761369675582414600,1.15741455078125,10.253108978271484,-0.5763781070709229,-0.9210425615310669
1761369675601026000,1.176026123046875,9.211227416992188,0.010250866413116455,0.11268603801727295
1761369675619636000,1.194635986328125,4.837960243225098,0.8249964714050293,1.156726598739624
1761369675638247400,1.213247314453125,-0.8105297088623047,0.9248397350311279,1.8307645320892334
1761369675656857300,1.231857421875,-4.579128265380859,0.4777379333972931,2.451920509338379
1761369675675468500,1.250468505859375,-4.730637073516846,0.4404580891132355,2.695374011993408
1761369675694078700,1.26907861328125,-4.316025733947754,0.47203898429870605,2.240865707397461
1761369675712690000,1.28768994140625,-4.035982608795166,0.7335978746414185,0.7606828212738037
1761369675731300000,1.306300048828125,-4.201019763946533,1.204845666885376,-0.8854597210884094
1761369675749911300,1.324911376953125,-4.1044511795043945,1.9650514125823975,-1.8479254245758057
1761369675768521200,1.343521240234375,-3.3501062393188477,2.933525323867798,-2.814359188079834
1761369675787132700,1.362132568359375,-2.338472366333008,3.6626744270324707,-3.177135944366455
1761369675805742600,1.38074267578125,-2.2659554481506348,3.881920576095581,-2.8464584350585938
1761369675824354000,1.39935400390625,-2.8075313568115234,3.6397652626037598,-2.220430850982666
1761369675842964000,1.4179638671875,-3.1455860137939453,2.9560670852661133,-1.9823848009109497
1761369675861575400,1.436575439453125,-2.7930665016174316,2.419386148452759,-2.0236518383026123
1761369675880185300,1.455185302734375,-2.929105758666992,1.0423970222473145,-1.520014762878418
1761369675898796800,1.473796875,-2.7758259773254395,0.6034442186355591,-1.8307334184646606
1761369675917406700,1.49240673828125,-2.6123008728027344,0.4682852029800415,-1.6448073387145996
1761369675936018000,1.511017822265625,-2.413268566131592,0.35582125186920166,-0.723060131072998
1761369675954628000,1.529628173828125,-1.9441499710083008,-0.01952981948852539,-0.1698209047317505
1761369675973239300,1.5482392578125,-0.7435235977172852,-0.4970536231994629,-0.03693652153015137
1761369675991849200,1.56684912109375,1.7958650588989258,-0.8867561221122742,0.6128697395324707
1761369676010460700,1.585460693359375,4.956101417541504,-2.146223545074463,2.9230198860168457
1761369676029070600,1.604070556640625,7.62918758392334,-3.422330379486084,3.7473533153533936
1761369676047682000,1.62268212890625,8.86779499053955,-4.1399126052856445,2.1555118560791016
1761369676066292000,1.6412919921875,9.771379470825195,-4.446402072906494,1.1543786525726318
1761369676084903400,1.6599033203125,10.701638221740723,-4.662158966064453,2.035824775695801
1761369676103513300,1.678513427734375,11.80957317352295,-4.50779390335083,2.9389660358428955
1761369676122124800,1.697124755859375,11.425365447998047,-3.975268602371216,3.7466306686401367
1761369676140734700,1.715734619140625,9.846993446350098,-2.886913299560547,4.888057708740234
1761369676159346200,1.73434619140625,7.683429718017578,-1.9100215435028076,5.518936634063721
1761369676177956000,1.7529560546875,6.173788070678711,0.037240028381347656,4.24314022064209
1761369676196567300,1.7715673828125,5.360130310058594,1.8382534980773926,2.258059024810791
1761369676215177500,1.790177490234375,4.829567909240723,3.8194923400878906,0.18513858318328857
1761369676233788700,1.80878857421875,3.216958999633789,4.688979148864746,0.13257092237472534
1761369676252398600,1.827398681640625,0.9543495178222656,5.100314140319824,0.9841887950897217
1761369676271010000,1.846010009765625,-1.237030029296875,4.687331199645996,1.140529751777649
1761369676289620000,1.864619873046875,-3.874584674835205,4.306079864501953,1.2031571865081787
1761369676308231400,1.8832314453125,-5.589413166046143,3.5138511657714844,1.361618995666504
1761369676326841300,1.90184130859375,-6.828042984008789,2.3717586994171143,1.2499406337738037
1761369676345452800,1.920452880859375,-7.81873893737793,1.6643227338790894,0.7769728899002075
1761369676364062700,1.939062744140625,-8.454009056091309,0.6883536577224731,0.7852119207382202
1761369676382674200,1.957674072265625,-8.766437530517578,-0.3863332271575928,1.4567700624465942
1761369676401284000,1.9762841796875,-7.856403827667236,-1.1854991912841797,1.8581807613372803
1761369676419895600,1.9948955078125,-6.670963287353516,-2.48081636428833,2.0694236755371094
1761369676438505500,2.01350537109375,-6.065036296844482,-3.3258683681488037,1.5434950590133667
1761369676457116700,2.03211669921875,-5.941728591918945,-3.503488540649414,0.9040101766586304
1761369676475726600,2.0507265625,-5.866626739501953,-3.002432346343994,0.3248591423034668
1761369676494338000,2.069338134765625,-5.7278218269348145,-2.2141897678375244,-0.6393725872039795
1761369676512948000,2.087947998046875,-4.71788215637207,-0.6178278923034668,-2.1494951248168945
1761369676531559400,2.106559326171875,-2.7488365173339844,0.985511302947998,-2.400097131729126
1761369676550169300,2.12516943359375,-1.348160743713379,0.9503684043884277,-1.0676579475402832
1761369676568780800,2.14378076171875,1.4861721992492676,0.6614584922790527,-1.4212956428527832
1761369676587390700,2.162390625,7.903947830200195,0.08688211441040039,-1.9686089754104614
1761369676606002200,2.181002197265625,11.764015197753906,-0.772491455078125,-1.7446839809417725
1761369676624612000,2.199612060546875,13.632794380187988,0.2491002082824707,-2.1807310581207275
1761369676643223600,2.2182236328125,13.706822395324707,1.0494999885559082,-0.7953109741210938
1761369676661833500,2.23683349609375,11.370409965515137,2.1580638885498047,-0.38979053497314453
1761369676680445000,2.25544482421875,7.382901191711426,2.1429476737976074,0.5507628917694092
1761369676699054600,2.2740546875,2.461153984069824,1.4096553325653076,0.8651440143585205
1761369676717666000,2.292666015625,0.03178977966308594,0.17346882820129395,0.8627587556838989
1761369676736276000,2.31127587890625,0.7192039489746094,-1.119922399520874,0.7937831878662109
1761369676754887400,2.329887451171875,3.1519479751586914,-1.2126741409301758,-0.001432180404663086
1761369676773497300,2.348497314453125,4.195618629455566,-1.6172351837158203,1.2082620859146118
1761369676792108800,2.36710888671875,1.9170112609863281,-2.561634063720703,2.0277609825134277
1761369676810718700,2.38571875,-1.0744132995605469,-2.961127519607544,1.2650524377822876
1761369676829330200,2.404330078125,-3.886288642883301,-2.8008604049682617,0.21091485023498535
1761369676847940000,2.422940185546875,-6.508070945739746,-2.7572154998779297,0.6926172971725464
1761369676866551600,2.441551513671875,-8.563340187072754,-2.6649622917175293,2.2554237842559814
1761369676885161500,2.460161376953125,-10.854470252990723,-2.840812921524048,3.716610908508301
1761369676903772700,2.478772705078125,-12.052255630493164,-2.6011064052581787,3.2739477157592773
1761369676922382600,2.497382568359375,-12.010236740112305,-2.5585896968841553,1.9717354774475098
1761369676940994000,2.515994140625,-10.465851783752441,-2.4206416606903076,1.3382601737976074
1761369676959604000,2.53460400390625,-8.507366180419922,-2.2374918460845947,1.1701942682266235
1761369676978215400,2.55321533203125,-6.177215099334717,-1.47633695602417,0.7481638789176941
1761369676996825300,2.571825439453125,-4.349618911743164,-0.5721020698547363,0.9897280931472778
1761369677015436800,2.590436767578125,-4.312519073486328,0.4042987823486328,1.823807954788208
1761369677034046700,2.609046630859375,-4.3208136558532715,1.2145891189575195,0.9964900612831116
1761369677052658200,2.627658203125,-3.972259759902954,1.651756763458252,-1.6225980520248413
1761369677071268000,2.64626806640625,-3.265590190887451,2.4014501571655273,-3.2456977367401123
1761369677089879300,2.66487939453125,-1.069650650024414,2.3963284492492676,-2.27958607673645
1761369677108489500,2.683489501953125,2.2281904220581055,2.705160617828369,-1.3136532306671143
1761369677127100700,2.7021005859375,3.3448705673217773,3.860623836517334,-1.751924991607666
1761369677145710600,2.720710693359375,4.791260719299316,3.023991107940674,-0.8421738147735596
1761369677164322000,2.739322021484375,7.457979202270508,1.185211181640625,1.9561116695404053
1761369677182932000,2.757931884765625,8.133068084716797,-2.12313175201416,4.193927764892578
1761369677201543400,2.77654345703125,8.952136039733887,-5.405425548553467,3.6016013622283936
1761369677220153300,2.7951533203125,8.401816368103027,-6.037365913391113,2.87752366065979
1761369677238764800,2.813764892578125,8.187311172485352,-3.1831905841827393,5.123635292053223
1761369677257374700,2.832374755859375,8.820849418640137,1.3439714908599854,10.846220016479492
1761369677275986200,2.850986083984375,9.151507377624512,2.3782899379730225,13.374624252319336
1761369677294595800,2.869595947265625,7.74436092376709,4.02670955657959,7.778868675231934
1761369677313207300,2.888207275390625,2.8114023208618164,4.895233154296875,1.488481044769287
1761369677331817200,2.906817138671875,-2.7070794105529785,4.461606025695801,-1.5119187831878662
1761369677350428700,2.9254287109375,-5.537862300872803,4.70134162902832,-3.528339385986328
1761369677369038600,2.94403857421875,-5.968433856964111,4.811978340148926,-4.381771087646484
1761369677387650000,2.962650146484375,-4.947213172912598,4.483281135559082,-3.8916609287261963
1761369677406260000,2.981260009765625,-3.6765856742858887,3.7826027870178223,-3.472874164581299
1761369677424871400,2.999871337890625,-2.7562685012817383,2.8403496742248535,-3.3175442218780518
1761369677443481300,3.0184814453125,-1.6616058349609375,2.462780237197876,-3.4876232147216797
1761369677462092800,3.0370927734375,-1.3117361068725586,1.6089181900024414,-3.700606107711792
1761369677480702500,3.055702392578125,-1.4347834587097168,1.2263675928115845,-3.962937593460083
1761369677499314000,3.07431396484375,-1.8038020133972168,0.5717575550079346,-4.099340438842773
1761369677517923800,3.092923828125,-1.8190274238586426,-0.10638058185577393,-4.143884181976318
1761369677536535300,3.111535400390625,-1.076077938079834,-0.35570502281188965,-4.050377368927002
1761369677555145200,3.130145263671875,-0.4660015106201172,-1.3245081901550293,-3.6804826259613037
1761369677573756700,3.148756591796875,0.2675647735595703,-2.3772130012512207,-2.4982476234436035
1761369677592366600,3.16736669921875,1.821263313293457,-3.050778865814209,-2.439598321914673
1761369677610978000,3.18597802734375,2.7709832191467285,-3.818490505218506,-1.6541171073913574
1761369677629588000,3.204587890625,3.0678043365478516,-4.41506290435791,-0.6434507369995117
1761369677648199200,3.22319921875,5.0602216720581055,-5.496323585510254,1.359367847442627
1761369677666809000,3.24180908203125,6.401698112487793,-5.6191205978393555,4.007262229919434
1761369677685420500,3.260420654296875,7.206816673278809,-3.420297622680664,6.820130348205566
1761369677704030500,3.279030517578125,5.554566383361816,-1.9851945638656616,9.981430053710938
1761369677722642000,3.297641845703125,3.2041873931884766,-1.7539869546890259,10.405659675598145
1761369677741251800,3.316251953125,1.7410573959350586,-1.0664252042770386,6.940179824829102
1761369677759863300,3.33486328125,0.44047069549560547,-0.2232804298400879,4.4829277992248535
1761369677778473200,3.35347314453125,-1.4708137512207031,0.7050773501396179,7.072515487670898
1761369677797084700,3.372084716796875,-2.1181516647338867,1.0751745700836182,7.252655029296875
1761369677815694600,3.390694580078125,-1.7406349182128906,2.649604558944702,3.2109909057617188
1761369677834305800,3.409305908203125,-2.4842886924743652,2.6184327602386475,-1.3794667720794678
1761369677852915700,3.427915771484375,-4.267520427703857,2.290909767150879,-4.762484550476074
1761369677871527200,3.446527099609375,-6.381415367126465,2.749737501144409,-7.176114082336426
1761369677890137000,3.46513720703125,-7.238287925720215,3.077197551727295,-8.103381156921387
1761369677908748500,3.48374853515625,-6.840462684631348,3.2798683643341064,-7.136780738830566
1761369677927358500,3.5023583984375,-6.389169692993164,3.6017630100250244,-4.085916519165039
1761369677945970000,3.520969970703125,-6.056215286254883,3.7090630531311035,-0.845618486404419
1761369677964579800,3.539579833984375,-5.537993431091309,3.8063042163848877,-1.4382343292236328
1761369677983191300,3.55819140625,-4.1481547355651855,3.203720808029175,-3.3594300746917725
1761369678001801200,3.57680126953125,-2.065298557281494,2.297544240951538,-4.354938507080078
1761369678020412400,3.595412353515625,0.6525602340698242,1.8024842739105225,-4.611029148101807
1761369678039022300,3.614022216796875,2.8492250442504883,1.519200086593628,-4.170553684234619
1761369678057633800,3.6326337890625,3.605203628540039,1.3723077774047852,-3.8371453285217285
1761369678076243700,3.65124365234375,3.708791732788086,1.2057377099990845,-2.8957395553588867
1761369678094855200,3.669855224609375,3.0685997009277344,0.05258353799581528,-1.5940148830413818
1761369678113465000,3.688465087890625,2.1962289810180664,-1.0523823499679565,-0.5691847801208496
1761369678132076500,3.70707666015625,1.3538074493408203,-2.63387393951416,-0.24004650115966797
1761369678150686500,3.7256865234375,2.132784366607666,-4.421721458435059,0.5141549110412598
1761369678169297700,3.744297607421875,4.097352981567383,-4.989291667938232,2.506196975708008
1761369678187907600,3.762907470703125,6.613702774047852,-5.186738967895508,7.0935235023498535
1761369678206519000,3.78151904296875,9.72572135925293,-4.712691783905029,13.533493995666504
1761369678225129000,3.80012890625,12.156291961669922,-3.8120782375335693,18.211822509765625
1761369678243740400,3.818740478515625,13.012374877929688,-2.633476495742798,17.498802185058594
1761369678262350300,3.837350341796875,12.107096672058105,-0.954962968826294,13.832542419433594
1761369678280961800,3.8559619140625,10.387080192565918,0.44868871569633484,9.989461898803711
1761369678299571700,3.87457177734375,7.223506450653076,1.4465174674987793,6.574049472808838
1761369678318183200,3.89318310546875,3.46978759765625,1.859646201133728,3.3586783409118652
1761369678336793000,3.91179296875,0.3867921829223633,1.9413410425186157,-0.5367560386657715
1761369678355404300,3.930404296875,-1.4361753463745117,1.860534906387329,-4.1285905838012695
1761369678374014200,3.94901416015625,-2.435584545135498,1.589766025543213,-6.17723274230957
1761369678392625700,3.967625732421875,-2.9664621353149414,1.7719258069992065,-7.457386493682861
1761369678411235600,3.986235595703125,-3.156752109527588,2.326608896255493,-8.160531044006348
1761369678429847000,4.004846923828125,-3.489938259124756,2.599149227142334,-8.05683422088623
1761369678448457000,4.02345703125,-3.8118362426757812,2.838303565979004,-7.630653381347656
1761369678467068400,4.042068359375,-4.169538974761963,3.0690462589263916,-6.935327529907227
1761369678485678300,4.06067822265625,-4.556408882141113,2.990333080291748,-5.683659076690674
1761369678504289500,4.07928955078125,-5.291059494018555,2.4095776081085205,-4.364314556121826
1761369678522899500,4.0978994140625,-6.095545768737793,1.9120073318481445,-4.194921016693115
1761369678541511000,4.116510986328125,-6.609389781951904,0.9252161383628845,-3.9677774906158447
1761369678560120800,4.135120849609375,-5.977848052978516,0.8306090235710144,-4.053011894226074
1761369678578732300,4.153732177734375,-5.267873287200928,1.0817720890045166,-3.964282274246216
1761369678597342200,4.17234228515625,-4.75314998626709,1.0889923572540283,-2.8218154907226562
1761369678615953700,4.19095361328125,-3.619683265686035,1.140268325805664,-1.5559735298156738
1761369678634563600,4.2095634765625,-0.40051746368408203,0.8535538911819458,-0.3237426280975342
1761369678653175000,4.228175048828125,1.9715423583984375,-0.34800994396209717,0.09562826156616211
1761369678671784700,4.24678466796875,3.1814498901367188,-1.6152009963989258,1.9838519096374512
1761369678690396200,4.265396240234375,4.9475202560424805,-3.3120546340942383,4.188857078552246
1761369678709006000,4.284006103515625,6.418073654174805,-4.862320423126221,4.3326263427734375
1761369678727617500,4.302617431640625,7.541357040405273,-4.558154106140137,4.0912394523620605
1761369678746227500,4.3212275390625,7.24057674407959,-4.168361186981201,5.254115104675293
1761369678764839000,4.3398388671875,4.69697380065918,-3.1253130435943604,7.515773296356201
1761369678783448800,4.35844873046875,2.6153669357299805,-2.9329380989074707,7.981953144073486
1761369678802060300,4.377060302734375,5.068981170654297,-1.1606850624084473,4.846704006195068
1761369678820670000,4.395669921875,4.002363204956055,-0.31929153203964233,5.0254716873168945
1761369678839281400,4.414281494140625,1.711592674255371,0.4482012391090393,4.2699103355407715
1761369678857891300,4.432891357421875,-0.5435848236083984,-0.6306508779525757,3.944392681121826
1761369678876502800,4.451502685546875,-0.14568614959716797,1.881443977355957,0.8846206665039062
1761369678895112700,4.47011279296875,-0.9063358306884766,3.1206583976745605,0.3900032043457031
1761369678913724200,4.48872412109375,-0.2948455810546875,3.543527126312256,0.8168277740478516
1761369678932334000,4.507333984375,0.7310771942138672,3.4075751304626465,0.18316364288330078
1761369678950945500,4.525945556640625,0.1638784408569336,3.031212329864502,-0.576789379119873
1761369678969555500,4.544555419921875,-0.8592844009399414,3.2989609241485596,-1.262193202972412
1761369678988166700,4.563166748046875,-2.1434755325317383,3.5827596187591553,-1.7847390174865723
1761369679006776600,4.581776611328125,-2.8680577278137207,3.6014609336853027,-1.4604840278625488
1761369679025388000,4.600387939453125,-4.612277507781982,2.8380494117736816,-1.3343043327331543
1761369679043998000,4.618998046875,-6.323391914367676,1.9874931573867798,-1.2344651222229004
1761369679062609400,4.637609375,-6.9702253341674805,1.4827638864517212,-1.389622449874878
1761369679081219300,4.65621923828125,-2.9182028770446777,0.788183331489563,-1.8734517097473145
1761369679099830800,4.674830810546875,-6.434741973876953,-0.8668911457061768,-1.044298768043518
1761369679118440700,4.693440673828125,-5.351045608520508,-0.5581479668617249,-0.8751852512359619
1761369679137052000,4.712052001953125,-4.520102024078369,-0.3949432373046875,0.6866388320922852
1761369679155661800,4.730661865234375,-3.185187339782715,-0.8712531924247742,1.6512763500213623
1761369679174273300,4.749273193359375,-1.2880401611328125,-2.4391798973083496,0.9098377227783203
1761369679192883200,4.76788330078125,0.8687906265258789,-3.891630172729492,-0.4465399980545044
1761369679211494700,4.78649462890625,2.882784843444824,-3.7117557525634766,-1.2280311584472656
1761369679230104600,4.8051044921875,2.800872802734375,-3.489748477935791,-1.4232242107391357
1761369679248716000,4.823716064453125,1.9575891494750977,-1.8335587978363037,-2.5512547492980957
1761369679267326000,4.842325927734375,1.5907602310180664,-0.38789457082748413,-4.223575592041016
1761369679285937200,4.860937255859375,1.8998565673828125,-0.43789541721343994,-5.28101921081543
1761369679304547000,4.879547119140625,3.1218795776367188,-0.1191936731338501,-6.508335113525391
1761369679323158500,4.898158447265625,2.1094608306884766,-0.8390259742736816,-5.508553504943848
1761369679341768400,4.9167685546875,-0.9366273880004883,-1.7986968755722046,-3.3938088417053223
1761369679360380000,4.9353798828125,-1.2023353576660156,-1.9698944091796875,-1.7659449577331543
1761369679378989800,4.95398974609375,0.3565397262573242,-1.086677074432373,2.065791606903076
1761369679397601300,4.972601318359375,1.8764867782592773,-0.2415609359741211,5.006322860717773
1761369679416211000,4.9912109375,0.4813070297241211,-1.4967713356018066,7.6389641761779785
1761369679434822400,5.009822509765625,-3.453151226043701,0.0573267936706543,6.277325630187988
1761369679453432300,5.028432373046875,-5.912323951721191,1.103865385055542,3.0361318588256836
1761369679472043800,5.047043701171875,-6.8084492683410645,2.443969488143921,-0.46845149993896484
1761369679490653700,5.06565380859375,-6.678982734680176,2.5741279125213623,-3.19677734375
1761369679509265200,5.08426513671875,-6.789914131164551,2.8803658485412598,-3.7313899993896484
1761369679527875000,5.102875,-6.548854351043701,3.087095022201538,-2.6533920764923096
1761369679546486500,5.121486572265625,-5.113190174102783,2.4129059314727783,-0.5852975845336914
1761369679565096400,5.140096435546875,-1.955209732055664,1.9155683517456055,0.5114974975585938
1761369679583707600,5.158707763671875,0.16031455993652344,1.2606747150421143,0.36681652069091797
1761369679602317600,5.177317626953125,1.0465002059936523,0.8270506858825684,-0.8575806617736816
1761369679620929000,5.195928955078125,1.8056278228759766,0.6048567891120911,-1.9290540218353271
1761369679639539000,5.2145390625,2.116161346435547,0.5352699756622314,-2.1632821559906006
1761369679658150400,5.233150390625,0.4741182327270508,0.5782619714736938,-2.0909087657928467
1761369679676760300,5.25176025390625,-1.0603036880493164,1.115516185760498,-2.0445473194122314
1761369679695371500,5.27037158203125,-1.5672121047973633,0.5558611750602722,-0.5916719436645508
1761369679713981400,5.2889814453125,0.8355798721313477,-1.082250952720642,1.7755036354064941
1761369679732593000,5.307593017578125,4.373431205749512,-2.9248342514038086,3.5915913581848145
1761369679751202800,5.326202880859375,9.195828437805176,-2.095944881439209,3.3988261222839355
1761369679769814300,5.344814208984375,13.032515525817871,-5.490276336669922,5.135990142822266
1761369679788424200,5.363424072265625,14.944650650024414,-6.99819803237915,3.746884822845459
1761369679807035600,5.38203564453125,12.828693389892578,-5.380406856536865,2.0136537551879883
1761369679825645300,5.400645263671875,10.685830116271973,-3.5128402709960938,4.611705780029297
1761369679844256800,5.4192568359375,9.369830131530762,-2.000638008117676,7.325047492980957
1761369679862866700,5.43786669921875,7.181421279907227,-0.8649910688400269,6.7752556800842285
1761369679881478100,5.45647802734375,4.745896339416504,0.10996735095977783,4.167916297912598
1761369679900088000,5.475088134765625,2.505441665649414,0.7789890170097351,2.6173553466796875
1761369679918699500,5.493699462890625,0.8947954177856445,1.2008640766143799,2.0391626358032227
1761369679937309400,5.512309326171875,0.45696544647216797,1.6255651712417603,1.3678250312805176
1761369679955920600,5.530920654296875,0.6183900833129883,2.3034260272979736,0.5415427684783936
1761369679974530600,5.549530517578125,0.135955810546875,3.1160268783569336,-0.27834391593933105
1761369679993142000,5.56814208984375,-1.8204646110534668,3.467337131500244,-0.6001956462860107
1761369680011752000,5.586751953125,-4.130561351776123,3.9504218101501465,-1.3548989295959473
1761369680030363400,5.60536328125,-5.790201187133789,3.9382312297821045,-1.7080271244049072
1761369680048973300,5.623973388671875,-7.168198108673096,3.471771001815796,-1.5146393775939941
1761369680067584800,5.642584716796875,-8.400577545166016,3.165555715560913,-1.273679494857788
1761369680086194400,5.6611943359375,-9.1559476852417,3.216171979904175,-0.9221248626708984
1761369680104806000,5.679805908203125,-9.013917922973633,2.5929951667785645,-0.6253068447113037
1761369680123415800,5.698415771484375,-8.079180717468262,1.9565309286117554,-0.6119667291641235
1761369680142027300,5.71702734375,-7.26663064956665,1.7073686122894287,-0.7346823215484619
1761369680160637200,5.73563720703125,-6.645275115966797,1.6686365604400635,-0.6466397047042847
1761369680179248600,5.75424853515625,-6.437415599822998,1.1923819780349731,-0.706247091293335
1761369680197858600,5.772858642578125,-5.98885440826416,0.621789813041687,-0.8205609321594238
1761369680216469800,5.7914697265625,-4.5392165184021,0.4608711004257202,-0.4386930465698242
1761369680235079700,5.81007958984375,-2.5242700576782227,0.46939611434936523,0.6912822723388672
1761369680253691100,5.828691162109375,-1.166910171508789,0.10633468627929688,1.304297924041748
1761369680272301000,5.847301025390625,-0.6427011489868164,-0.5846612453460693,0.9886116981506348
1761369680290912500,5.86591259765625,0.41077136993408203,-0.59153151512146,0.9569121599197388
1761369680309522400,5.8845224609375,2.7725048065185547,1.8390989303588867,-0.3000866174697876
1761369680328134000,5.9031337890625,3.5452890396118164,2.1385183334350586,-1.7409563064575195
1761369680346743600,5.92174365234375,4.821403503417969,2.8898191452026367,-3.2276418209075928
1761369680365355000,5.94035498046875,10.454923629760742,0.9375615119934082,-1.5607318878173828
1761369680383965000,5.95896484375,16.32334327697754,-2.621716022491455,-0.0826457142829895
1761369680402576400,5.977576416015625,17.394847869873047,-3.3722901344299316,1.5037338733673096
1761369680421186300,5.996186279296875,14.426255226135254,-2.288616180419922,1.606980323791504
1761369680439797800,6.0147978515625,9.431763648986816,-0.6354615092277527,1.8022860288619995
1761369680458407700,6.03340771484375,3.45389461517334,0.4100220203399658,2.670633316040039
1761369680477019000,6.052018798828125,-1.2017059326171875,0.970914363861084,2.6637821197509766
1761369680495628800,6.07062890625,-2.442509651184082,1.05097496509552,1.3190315961837769
1761369680514240300,6.089240234375,-1.3549041748046875,1.1435658931732178,0.2879124879837036
1761369680532850200,6.10785009765625,-0.2626161575317383,1.032789707183838,0.3664029538631439
1761369680551461600,6.126461669921875,0.4403562545776367,1.5892012119293213,0.762385368347168
1761369680570071600,6.145071533203125,-0.3437232971191406,1.8735854625701904,0.5268635749816895
1761369680588682800,6.163682861328125,-1.9631500244140625,1.559765100479126,-1.1003519296646118
1761369680607292700,6.182292724609375,-3.6280784606933594,1.0604028701782227,-2.086268424987793
1761369680625904000,6.200904052734375,-5.243788242340088,0.5639102458953857,-1.6350195407867432
1761369680644514000,6.21951416015625,-5.940095901489258,0.4430274963378906,-0.6481289267539978
1761369680663125500,6.23812548828125,-5.713195323944092,0.00944375991821289,-0.06240034103393555
1761369680681735400,6.2567353515625,-5.199611186981201,-0.8935842514038086,0.15916645526885986
1761369680700346600,6.2753466796875,-5.056159019470215,-1.5317285060882568,-0.1690504550933838
1761369680718956500,6.29395654296875,-5.17634916305542,-2.3923041820526123,-0.5366665124893188
1761369680737568000,6.312568115234375,-5.483788013458252,-3.0986247062683105,-0.7949936389923096
1761369680756178000,6.331177978515625,-5.944803237915039,-3.294647693634033,-1.3558645248413086
1761369680774789400,6.349789306640625,-4.787301540374756,-2.866013765335083,-1.644651174545288
1761369680793399300,6.3683994140625,-1.153799057006836,-2.4892306327819824,-1.3517394065856934
1761369680812010500,6.387010498046875,3.59694766998291,-1.8984653949737549,-1.1259092092514038
1761369680830620400,6.405620361328125,6.008696556091309,-2.642259120941162,-0.5741283297538757
1761369680849232000,6.42423193359375,8.499004364013672,-2.3114030361175537,0.7186334133148193
1761369680867841800,6.442841796875,8.750304222106934,-1.3228235244750977,1.0355470180511475
1761369680886453200,6.461453369140625,6.585661888122559,0.7013754844665527,-0.27786481380462646
1761369680905063200,6.480063232421875,4.240566253662109,3.209771156311035,-1.2329834699630737
1761369680923674400,6.49867431640625,3.1067075729370117,5.490418434143066,-0.8358206748962402
1761369680942284300,6.5172841796875,3.6007766723632812,6.010931015014648,0.32177507877349854
1761369680960895700,6.535895751953125,4.755672454833984,6.113824367523193,2.217517852783203
1761369680979505700,6.554505615234375,3.506688117980957,4.779957294464111,4.775211811065674
1761369680998117000,6.5731171875,-0.08645248413085938,2.3918070793151855,5.003922462463379
1761369681016727000,6.59172705078125,-1.1512722969055176,0.4597644805908203,2.226606607437134
1761369681035338200,6.610338134765625,3.2443885803222656,1.7709197998046875,-1.2482266426086426
1761369681053948200,6.6289482421875,3.5984315872192383,1.2952423095703125,1.333749771118164
1761369681072559600,6.6475595703125,1.9770984649658203,0.7186779975891113,3.238187074661255
1761369681091169500,6.66616943359375,-0.4894886016845703,-0.23872041702270508,3.497760772705078
1761369681109781000,6.684781005859375,-3.0688509941101074,-1.076148509979248,2.6413002014160156
1761369681128391000,6.703390869140625,-4.363415718078613,-2.0826804637908936,2.231858253479004
1761369681147002000,6.722002197265625,-4.962005615234375,-3.28985595703125,0.8939292430877686
1761369681165612000,6.740612060546875,-5.911602973937988,-4.337175369262695,-0.5987639427185059
1761369681184223500,6.759223388671875,-5.801784515380859,-4.917588710784912,-1.410879135131836
1761369681202833400,6.77783349609375,-7.090234279632568,-5.491368770599365,-0.907401978969574
1761369681221444900,6.79644482421875,-7.753913879394531,-6.082144737243652,-1.0437061786651611
1761369681240054800,6.8150546875,-6.736967086791992,-6.429316997528076,-1.737074375152588
1761369681258666000,6.833666015625,-5.403764724731445,-6.141064643859863,-1.587686538696289
1761369681277276000,6.85227587890625,-3.3602635860443115,-5.899190902709961,-0.061370849609375
1761369681295887400,6.870887451171875,-1.8379526138305664,-5.42736291885376,0.9049655199050903
1761369681314497300,6.889497314453125,-1.8445549011230469,-4.585717678070068,0.2266504168510437
1761369681333108700,6.908108642578125,-1.6352744102478027,-2.9603829383850098,-0.4164673089981079
1761369681351718400,6.926718505859375,-1.882483720779419,-1.2081899642944336,-0.5131393671035767
1761369681370329900,6.945329833984375,-2.8515913486480713,0.5840587615966797,-1.1738364696502686
1761369681388939800,6.963939697265625,-2.4452667236328125,2.435915946960449,-2.1173577308654785
1761369681407551200,6.98255126953125,0.9967827796936035,4.521050453186035,-2.7787065505981445
1761369681426161200,7.0011611328125,5.257409572601318,7.2957611083984375,-3.8168892860412598
1761369681444772400,7.0197724609375,7.192207336425781,8.284625053405762,-2.6397600173950195
1761369681463382300,7.03838232421875,8.465911865234375,8.69796371459961,-0.9362543821334839
1761369681481993700,7.05699365234375,8.551166534423828,8.228097915649414,0.3716471791267395
1761369681500603600,7.075603759765625,8.692706108093262,7.578068733215332,0.8711861968040466
1761369681519215000,7.094215087890625,5.061764240264893,5.392179489135742,2.0879576206207275
1761369681537825000,7.112824951171875,-0.40384721755981445,3.561551094055176,0.12490475177764893
1761369681556436200,7.131436279296875,-0.7787857055664062,2.583454132080078,-4.210113525390625
1761369681575046100,7.150046142578125,4.584073543548584,1.9800662994384766,-3.650726795196533
1761369681593657600,7.16865771484375,5.230708122253418,0.2077951431274414,3.4924213886260986
1761369681612267500,7.187267578125,1.8262605667114258,-0.8570137023925781,6.357758522033691
1761369681630879000,7.20587890625,-2.0125322341918945,-2.0858092308044434,4.6122236251831055
1761369681649489000,7.224489013671875,-4.714062690734863,-3.28739595413208,0.8316500782966614
1761369681668100000,7.24310009765625,-5.731531143188477,-4.678452491760254,-1.667512059211731
1761369681686710000,7.2617099609375,-4.551612377166748,-6.029975891113281,-1.7205358743667603
1761369681705321500,7.280321533203125,-3.242258310317993,-6.9082746505737305,-0.5461326241493225
1761369681723931400,7.298931396484375,-3.425410747528076,-7.544156074523926,0.5304090976715088
1761369681742542600,7.31754248046875,-4.233175277709961,-7.859543800354004,0.3258439600467682
1761369681761152500,7.336152587890625,-4.550716400146484,-8.000608444213867,-0.02580082416534424
1761369681779764000,7.354763916015625,-4.625763416290283,-7.89597749710083,0.8169093132019043
1761369681798374000,7.373373779296875,-3.506504774093628,-6.537875175476074,-0.17281365394592285
1761369681816985300,7.3919853515625,-3.1253113746643066,-5.79661750793457,0.3933590054512024
1761369681835595000,7.410594970703125,-2.0767922401428223,-4.744075298309326,1.0089688301086426
1761369681854206500,7.42920654296875,-1.1617951393127441,-3.4387426376342773,0.8661199808120728
1761369681872816400,7.44781640625,-0.5182557106018066,-1.5543065071105957,0.15948593616485596
1761369681891427800,7.466427734375,-0.38620924949645996,0.24033641815185547,-0.09391748905181885
1761369681910037800,7.485037841796875,-0.2857851982116699,2.1633033752441406,-0.8803027868270874
1761369681928649000,7.50364892578125,0.40351080894470215,4.679793357849121,-2.0658226013183594
1761369681947259000,7.5222587890625,1.6032459735870361,6.434886932373047,-1.9779831171035767
1761369681965870300,7.540870361328125,2.4668426513671875,6.788825988769531,-0.8630397319793701
1761369681984480300,7.559480224609375,3.830752372741699,8.603242874145508,-1.070704460144043
1761369682003091700,7.578091796875,2.8834073543548584,10.083321571350098,-0.20824682712554932
1761369682021701600,7.59670166015625,0.886009931564331,10.495685577392578,0.1161426305770874
1761369682040312800,7.615312744140625,-0.3772919178009033,10.138270378112793,-0.105227530002594
1761369682058922800,7.6339228515625,-2.2989838123321533,7.843140602111816,1.1865737438201904
1761369682077534200,7.6525341796875,-3.037470817565918,4.48897647857666,1.5649259090423584
1761369682096144100,7.67114404296875,-2.5286734104156494,0.899200439453125,1.2170979976654053
1761369682114755300,7.68975537109375,1.510509967803955,-0.9875621795654297,0.41517174243927
1761369682133365200,7.708365234375,2.9851603507995605,-2.364560127258301,3.3125009536743164
1761369682151976700,7.726976806640625,0.6269626617431641,-3.5516223907470703,6.1277313232421875
1761369682170586600,7.745586669921875,-1.5468831062316895,-3.9082727432250977,4.620643615722656
1761369682189198000,7.764197998046875,-3.6251235008239746,-3.850433826446533,1.8377490043640137
1761369682207808000,7.78280810546875,-5.207592010498047,-3.747959613800049,-0.21954934298992157
1761369682226419200,7.801419189453125,-5.514852046966553,-3.295776128768921,-1.5622167587280273
1761369682245029000,7.820029052734375,-5.069336414337158,-2.691457509994507,-1.655296802520752
1761369682263640600,7.838640625,-4.633140563964844,-2.1624183654785156,-0.7884731292724609
1761369682282250500,7.85725048828125,-4.691741943359375,-2.0635697841644287,0.3663893938064575
1761369682300861700,7.87586181640625,-4.520234107971191,-2.3275415897369385,1.350699543952942
1761369682319471600,7.8944716796875,-4.021060466766357,-2.332404613494873,1.5962563753128052
1761369682338083000,7.9130830078125,-4.076895713806152,-2.498218297958374,1.2325987815856934
1761369682356693000,7.93169287109375,-3.978740692138672,-3.114278554916382,1.1415376663208008
1761369682375304400,7.950304443359375,-4.1399006843566895,-3.456674575805664,0.6187925934791565
1761369682393914400,7.968914306640625,-3.6476078033447266,-2.4027717113494873,-1.006408929824829
1761369682412525600,7.987525634765625,-2.1016740798950195,-1.2704861164093018,-1.8511393070220947
1761369682431135500,8.006135498046875,-0.7252960205078125,0.17270708084106445,-1.1563664674758911
1761369682449747000,8.024746826171874,0.29811811447143555,2.2606921195983887,0.028636708855628967
1761369682468356900,8.04335693359375,3.926973342895508,4.102701663970947,0.10501047968864441
1761369682486968000,8.061968017578126,3.2302379608154297,3.0355300903320312,-0.5820720791816711
1761369682505578000,8.080577880859375,4.989993095397949,3.2580323219299316,-1.9020816087722778
1761369682524189400,8.099189453125,7.443685531616211,5.092743873596191,-4.75676155090332
1761369682542799400,8.11779931640625,8.930865287780762,6.740900039672852,-4.650862693786621
1761369682561410800,8.136410888671875,7.678899765014648,5.85805606842041,-0.8107988238334656
1761369682580020500,8.1550205078125,8.141833305358887,5.056254863739014,2.1366190910339355
1761369682598632000,8.1736318359375,8.322124481201172,3.020907402038574,2.744778633117676
1761369682617241900,8.192241943359376,5.82357120513916,0.9605250358581543,0.8785421252250671
1761369682635853300,8.210853271484375,3.103046417236328,0.12962889671325684,-0.4968690872192383
1761369682654463000,8.229462890625,3.4556970596313477,1.2642302513122559,0.44510066509246826
1761369682673074400,8.248074462890624,4.499391555786133,1.0957891941070557,3.959139347076416
1761369682691684400,8.266684326171875,3.5755672454833984,0.4359724521636963,5.431427001953125
1761369682710295800,8.2852958984375,1.9328346252441406,0.4404304027557373,3.561917781829834
1761369682728905700,8.30390576171875,-0.7107229232788086,-0.8377745151519775,1.2188478708267212
1761369682747517000,8.322516845703126,-3.4769115447998047,-2.130373001098633,-0.518130898475647
1761369682766126800,8.341126953125,-4.96513032913208,-2.7654643058776855,-1.9023030996322632
1761369682784738300,8.35973828125,-5.763277530670166,-3.2285306453704834,-2.4028072357177734
1761369682803348200,8.37834814453125,-6.755556106567383,-3.8372111320495605,-1.8080213069915771
1761369682821959700,8.396959716796875,-7.399814128875732,-4.160604476928711,-0.38071179389953613
1761369682840569300,8.4155693359375,-6.848118782043457,-4.921545505523682,0.3215034008026123
1761369682859180800,8.434180908203125,-6.570101261138916,-6.64333438873291,0.4304701089859009
1761369682877790700,8.452790771484375,-6.228115081787109,-6.588301181793213,-0.5061753988265991
1761369682896402200,8.471402099609374,-5.2860260009765625,-5.177343368530273,-2.1755776405334473
1761369682915011800,8.49001171875,-4.705087184906006,-4.504243850708008,-2.7125978469848633
1761369682933623300,8.508623291015626,-4.004847526550293,-3.3367254734039307,-2.082521677017212
1761369682952233200,8.527233154296875,-3.67649245262146,-2.6263415813446045,-1.3881433010101318
1761369682970844700,8.5458447265625,-2.822678565979004,-0.8091363906860352,-1.2009050846099854
1761369682989454600,8.56445458984375,-1.916944980621338,0.5931425094604492,-0.771064817905426
1761369683008065800,8.583065673828125,-0.9307265281677246,1.8124256134033203,-0.3140876591205597
1761369683026675700,8.60167578125,0.6026911735534668,2.84736967086792,0.4805406630039215
1761369683045287200,8.620287109375,2.7484254837036133,2.678055763244629,0.3706507384777069
1761369683063897000,8.63889697265625,5.3364057540893555,2.607522487640381,-1.0193829536437988
1761369683082508300,8.65750830078125,8.937541007995605,6.052314758300781,-3.8185620307922363
1761369683101118200,8.6761181640625,9.901754379272461,7.64150857925415,-4.903739929199219
1761369683119729700,8.694729736328124,6.411206245422363,6.771844387054443,-2.7238388061523438
1761369683138339600,8.713339599609375,2.741427421569824,6.336788177490234,-0.3003929555416107
1761369683156951000,8.731950927734376,-0.6216058731079102,3.4432435035705566,1.3102011680603027
1761369683175560700,8.750560791015625,-1.9126815795898438,2.0617403984069824,0.9418131709098816
1761369683194172200,8.769172119140626,0.717503547668457,2.435917377471924,2.0755550861358643
1761369683212782000,8.787781982421874,4.347857475280762,1.145108938217163,5.028101921081543
1761369683231393500,8.8063935546875,6.050061225891113,-0.5870840549468994,6.98388671875
1761369683250003500,8.82500341796875,5.356256484985352,-0.9131263494491577,5.485097408294678
1761369683268614700,8.84361474609375,3.239060401916504,-0.6677038669586182,2.5176258087158203
1761369683287224600,8.862224609375,0.2587318420410156,-1.1541457176208496,0.07274723052978516
1761369683305836000,8.8808359375,-1.8905010223388672,-1.141690731048584,-1.487089991569519
1761369683324446000,8.899446044921875,-4.825981616973877,-1.8685989379882812,-2.1872403621673584
1761369683343057200,8.91805712890625,-5.7938008308410645,-2.423102617263794,-2.6970958709716797
1761369683361667000,8.9366669921875,-5.43463659286499,-2.9583170413970947,-3.116051197052002
1761369683380278500,8.955278564453126,-5.644936561584473,-3.4730024337768555,-1.7256865501403809
1761369683398888400,8.973888427734375,-5.846689224243164,-3.9400463104248047,-0.5743135809898376
1761369683417500000,8.9925,-5.541308879852295,-4.138254165649414,-0.471047580242157
1761369683436109600,9.011109619140624,-5.157530784606934,-4.425282955169678,-0.6713216304779053
1761369683454721000,9.029720947265625,-5.568399906158447,-4.713299751281738,-1.0210328102111816
1761369683473331000,9.0483310546875,-5.736045837402344,-4.357902526855469,-1.8736131191253662
1761369683491942400,9.0669423828125,-5.234395503997803,-3.104876756668091,-2.055887222290039
1761369683510552300,9.08555224609375,-4.958008766174316,-0.8245515823364258,-1.0634874105453491
1761369683529163500,9.10416357421875,-5.028235912322998,1.6354217529296875,-0.025400400161743164
1761369683547773400,9.1227734375,-3.2278366088867188,3.1074347496032715,1.642336130142212
1761369683566385000,9.141385009765624,1.0749754905700684,2.108503818511963,1.422012448310852
1761369683584994800,9.159994873046875,6.430063247680664,1.9516663551330566,-1.7115838527679443
1761369683603606000,9.17860595703125,9.795069694519043,2.9946179389953613,-2.818840265274048
1761369683622216000,9.1972158203125,10.419029235839844,4.394119739532471,-0.7936055064201355
1761369683640827400,9.215827392578126,10.775449752807617,5.796494483947754,2.4291553497314453
1761369683659437300,9.234437255859374,9.615697860717773,5.260548114776611,3.48286771774292
1761369683678048500,9.253048583984375,7.446035861968994,4.530145168304443,0.2391214370727539
1761369683696658400,9.271658447265626,5.881103992462158,5.465571880340576,-2.4354159832000732
1761369683715270000,9.290269775390625,3.3613409996032715,2.9936914443969727,-0.5930553674697876
1761369683733879800,9.3088798828125,2.3385009765625,2.693963050842285,-0.18224239349365234
1761369683752491300,9.3274912109375,3.384341239929199,3.2365565299987793,0.2782968282699585
1761369683771101000,9.346100830078125,3.1181259155273438,1.7070808410644531,2.0744519233703613
1761369683789712400,9.36471240234375,0.8535518646240234,0.5286917686462402,2.560697078704834
1761369683808322300,9.383322265625,-1.7947120666503906,0.13091373443603516,2.1307990550994873
1761369683826933800,9.401933837890626,-3.2160258293151855,-0.4344186782836914,0.7162436246871948
1761369683845543700,9.420543701171875,-4.131666660308838,-0.8624563217163086,-0.7988398671150208
1761369683864155000,9.43915478515625,-4.984840393066406,-1.068390130996704,-1.894641637802124
1761369683882764800,9.457764892578124,-4.663486957550049,-1.547940731048584,-2.4245872497558594
1761369683901376300,9.476376220703125,-3.4284229278564453,-2.2482783794403076,-2.424245595932007
1761369683919986200,9.494986083984376,-3.2478551864624023,-3.1251492500305176,-2.2745521068573
1761369683938597400,9.513597412109375,-3.6628637313842773,-3.477565288543701,-1.6865129470825195
1761369683957207300,9.532207275390626,-4.3484883308410645,-3.7250938415527344,-0.6626701951026917
1761369683975818800,9.55081884765625,-4.8505048751831055,-3.8541789054870605,-0.389864444732666
1761369683994428700,9.5694287109375,-4.582247734069824,-4.266941547393799,-0.03378307819366455
1761369684013039900,9.588039794921874,-3.8353071212768555,-4.43578577041626,-0.0906602144241333
1761369684031649800,9.60664990234375,-3.0419888496398926,-3.5675859451293945,-0.23991066217422485
1761369684050261200,9.62526123046875,-3.043346405029297,-2.3508541584014893,0.7009403705596924
1761369684068871200,9.64387109375,-3.1927013397216797,-1.679488182067871,0.48546189069747925
1761369684087482600,9.662482666015626,-1.5884957313537598,-0.29920530319213867,-0.8498021960258484
1761369684106092300,9.68109228515625,0.3443751335144043,1.5160627365112305,-1.736229419708252
1761369684124703700,9.699703857421875,0.42510080337524414,1.4710750579833984,0.042425334453582764
1761369684143313700,9.718313720703126,1.226078987121582,2.1316490173339844,0.9988835453987122
1761369684161925000,9.736925048828125,1.7842187881469727,2.8734049797058105,0.5506238341331482
1761369684180535000,9.75553515625,1.6853418350219727,3.7995424270629883,0.5141734480857849
1761369684199146200,9.774146240234375,1.8156428337097168,4.606649398803711,1.683768391609192
1761369684217756200,9.792756103515625,2.3811702728271484,4.495096683502197,2.273158550262451
1761369684236367600,9.81136767578125,1.9540820121765137,3.7385411262512207,1.4722044467926025
1761369684254977500,9.8299775390625,1.8997936248779297,3.1968226432800293,0.023258686065673828
1761369684273588700,9.848588623046876,2.281391143798828,2.373744487762451,0.18597134947776794
1761369684292198700,9.86719873046875,2.562289237976074,1.5450191497802734,1.6133923530578613
1761369684310810000,9.88581005859375,2.3951473236083984,0.8742527961730957,2.462219476699829
1761369684329420000,9.904419921875,1.9334611892700195,0.5868997573852539,1.6503812074661255
1761369684348031200,9.92303125,1.0782318115234375,0.5940952301025391,0.4451380968093872
1761369684366641200,9.94164111328125,0.026834487915039062,0.26079845428466797,-0.323438435792923
