time,seconds_elapsed,z,y,x
1761369704641992700,0.19599267578125,-0.856135368347168,0.25011253356933594,-0.8919909000396729
1761369704660602600,0.2146025390625,-1.0016555786132812,0.3704569339752197,-0.7673943042755127
1761369704679213800,0.2332138671875,-1.123478889465332,0.5215466022491455,-0.9440526962280273
1761369704697823700,0.25182373046875,-0.9861049652099609,0.6181879043579102,-1.0883138179779053
1761369704716435200,0.270435302734375,-1.1158380508422852,1.1173384189605713,-0.9512286186218262
1761369704735044900,0.289044921875,-1.1885929107666016,1.4272103309631348,-0.572969913482666
1761369704753656300,0.30765625,-1.5070157051086426,0.6742563247680664,0.7570810317993164
1761369704772266200,0.326266357421875,-1.9138984680175781,0.605449914932251,1.4968326091766357
1761369704790877400,0.34487744140625,-1.8670544624328613,0.8420581817626953,1.5522174835205078
1761369704809487400,0.3634873046875,-1.5576119422912598,0.9067679643630981,1.3063747882843018
1761369704828098600,0.3820986328125,-0.8328380584716797,0.8180379867553711,1.1461374759674072
1761369704846708500,0.40070849609375,0.26468563079833984,0.796765923500061,1.065552830696106
1761369704865320000,0.41931982421875,1.1960229873657227,0.8060441017150879,1.2617838382720947
1761369704883929600,0.4379296875,2.0584421157836914,0.8307982683181763,1.5069892406463623
1761369704902541000,0.456541015625,2.743035316467285,0.7925552129745483,1.6436169147491455
1761369704921151000,0.47515087890625,3.3061952590942383,0.7843978404998779,1.522458791732788
1761369704939762200,0.49376220703125,3.4488563537597656,0.6089450716972351,1.3388843536376953
1761369704958372000,0.5123720703125,2.9761905670166016,0.24848899245262146,1.0231084823608398
1761369704976983300,0.5309833984375,2.209286689758301,0.0073101818561553955,0.4084712266921997
1761369704995593200,0.54959326171875,1.5559587478637695,0.07763031125068665,-0.2245107889175415
1761369705014204700,0.56820458984375,0.8937158584594727,0.25026392936706543,-0.5926076173782349
1761369705032814300,0.586814453125,0.5260953903198242,0.41957664489746094,-0.7811850309371948
1761369705051425800,0.60542578125,0.2564382553100586,0.4891192317008972,-1.0181999206542969
1761369705070035700,0.62403564453125,-0.0038309097290039062,0.589738667011261,-1.2758591175079346
1761369705088647000,0.64264697265625,-0.17558765411376953,0.6006404757499695,-1.358879566192627
1761369705107256800,0.6612568359375,-0.0975656509399414,0.4682276248931885,-1.3389647006988525
1761369705125868300,0.679868408203125,0.13014888763427734,0.35680830478668213,-1.365691900253296
1761369705144478000,0.69847802734375,0.3051776885986328,0.13270878791809082,-1.3066322803497314
1761369705163089400,0.71708935546875,0.4752178192138672,-0.019675254821777344,-1.2611641883850098
1761369705181699300,0.73569921875,0.5466699600219727,-0.08986914157867432,-1.1791733503341675
1761369705200310500,0.754310546875,0.34690380096435547,-0.18429458141326904,-1.1886770725250244
1761369705218920400,0.77292041015625,0.02761077880859375,-0.18180322647094727,-1.34737229347229
1761369705237532000,0.791531982421875,-0.1790943145751953,-0.16892802715301514,-1.3825829029083252
1761369705256141600,0.8101416015625,-0.28734493255615234,-0.12482631206512451,-1.3403762578964233
1761369705274753000,0.8287529296875,-0.09850025177001953,-0.008526325225830078,-1.2775830030441284
1761369705293363000,0.847363037109375,0.2526082992553711,0.021265268325805664,-1.0329934358596802
1761369705311974100,0.86597412109375,0.5408134460449219,-0.05396902561187744,-0.556442379951477
1761369705330584000,0.884583984375,0.6611719131469727,-0.1357492208480835,-0.04035985469818115
1761369705349195500,0.903195556640625,0.5936431884765625,-0.16576552391052246,0.45601749420166016
1761369705367805200,0.92180517578125,0.4278888702392578,-0.10204434394836426,0.8502869606018066
1761369705386416600,0.940416748046875,0.09114742279052734,-0.09754836559295654,1.1600757837295532
1761369705405026600,0.959026611328125,-0.28618621826171875,-0.13350141048431396,1.3985719680786133
1761369705423637800,0.9776376953125,-0.6357545852661133,-0.14987540245056152,1.5748196840286255
1761369705442247700,0.99624755859375,-0.9051218032836914,-0.17464709281921387,1.7360413074493408
1761369705460859100,1.014859130859375,-1.1877098083496094,-0.2262735366821289,1.8070995807647705
1761369705479468800,1.03346875,-1.4419498443603516,-0.2765324115753174,1.7041350603103638
1761369705498080300,1.052080322265625,-1.5501408576965332,-0.2674086093902588,1.5331673622131348
1761369705516690200,1.070690185546875,-1.5889215469360352,-0.2933216094970703,1.4172629117965698
1761369705535301400,1.08930126953125,-1.4560022354125977,-0.31393957138061523,1.0644888877868652
1761369705553911300,1.107911376953125,-1.0610952377319336,-0.27725815773010254,0.4456653594970703
1761369705572522800,1.126522705078125,-0.7470207214355469,-0.12932515144348145,-0.44988059997558594
1761369705591132400,1.14513232421875,-0.6573591232299805,-0.36993861198425293,-0.8696398735046387
1761369705609744000,1.163743896484375,-0.6337471008300781,-0.6536943912506104,-0.6529576778411865
1761369705628353800,1.182353759765625,-0.3582324981689453,-0.5774917602539062,-0.6810126304626465
1761369705646965000,1.200965087890625,0.05759716033935547,-0.5656745433807373,-0.8383190631866455
1761369705665575000,1.219574951171875,0.3488302230834961,-0.5991179943084717,-0.9709242582321167
1761369705684186000,1.23818603515625,0.2553386688232422,-0.48797607421875,-0.9962339401245117
1761369705702796000,1.256796142578125,-0.08481502532958984,-0.29664015769958496,-1.165375828742981
1761369705721407500,1.275407470703125,-0.3914632797241211,-0.1075584888458252,-1.528914213180542
1761369705740017200,1.29401708984375,-0.4514484405517578,0.3767564296722412,-1.9070425033569336
1761369705758628600,1.312628662109375,-0.4569664001464844,0.5393788814544678,-1.6968014240264893
1761369705777238500,1.331238525390625,-0.6134376525878906,0.3555269241333008,-1.7631442546844482
1761369705795849700,1.349849609375,-0.2329998016357422,0.4217371940612793,-2.1349782943725586
1761369705814459600,1.368459716796875,0.10999870300292969,0.332857608795166,-2.155247211456299
1761369705833071000,1.387071044921875,0.4441547393798828,0.4458479881286621,-1.9177552461624146
1761369705851681000,1.405680908203125,0.6129827499389648,0.4859905242919922,-1.2226369380950928
1761369705870292200,1.424292236328125,0.3658180236816406,0.294541597366333,-0.8241372108459473
1761369705888902100,1.442902099609375,0.1422567367553711,0.19416379928588867,-0.8626184463500977
1761369705907513300,1.461513427734375,-0.0752248764038086,-0.006302833557128906,-1.0116512775421143
1761369705926123300,1.480123291015625,-0.39035511016845703,-0.13982415199279785,-1.2238126993179321
1761369705944734700,1.498734619140625,-0.8230190277099609,-0.2084367275238037,-1.3143599033355713
1761369705963344400,1.517344482421875,-1.2348670959472656,-0.16761064529418945,-1.4738361835479736
1761369705981955800,1.535955810546875,-1.4025754928588867,-0.015397787094116211,-1.5176479816436768
1761369706000565800,1.554565673828125,-1.3696398735046387,0.17829465866088867,-1.415996789932251
1761369706019177000,1.573177001953125,-1.1790132522583008,0.23265671730041504,-1.2217674255371094
1761369706037787000,1.591786865234375,-1.0139093399047852,0.275615930557251,-1.0617640018463135
1761369706056398300,1.6103984375,-0.8490715026855469,0.22656607627868652,-0.8517539501190186
1761369706075008000,1.629008056640625,-0.6770486831665039,0.13512563705444336,-0.6350812911987305
1761369706093619500,1.647619384765625,-0.4296541213989258,0.09954595565795898,-0.5163102149963379
1761369706112229400,1.6662294921875,-0.16736698150634766,-0.008898496627807617,-0.3944869041442871
1761369706130840600,1.684840576171875,0.06744003295898438,-0.04200613498687744,-0.34572577476501465
1761369706149450500,1.703450439453125,0.6283674240112305,0.07445502281188965,-0.3756282329559326
1761369706168062000,1.72206201171875,1.1335029602050781,-0.007993102073669434,-0.016989946365356445
1761369706186671600,1.740671630859375,1.319859504699707,-0.003956198692321777,0.13402438163757324
1761369706205283000,1.759282958984375,1.2232236862182617,0.061956048011779785,0.0958106517791748
1761369706223893000,1.77789306640625,1.0098915100097656,-0.06655716896057129,0.14835715293884277
1761369706242504200,1.796504150390625,0.9157848358154297,-0.30866676568984985,0.49797511100769043
1761369706261114000,1.815114013671875,1.077500343322754,-0.5508889555931091,0.8658847808837891
1761369706279725300,1.833725341796875,1.5325870513916016,-0.7012186646461487,0.7617454528808594
1761369706298335200,1.852335205078125,2.0236501693725586,-0.8274188041687012,0.6158328056335449
1761369706316946700,1.87094677734375,2.1236324310302734,-1.001723289489746,0.6974992752075195
1761369706335556600,1.889556640625,1.7532386779785156,-0.8982940316200256,0.7940493822097778
1761369706354167800,1.908167724609375,1.038003921508789,-0.5020126700401306,0.8549190759658813
1761369706372777700,1.92677783203125,0.3711662292480469,-0.3486140966415405,1.3011449575424194
1761369706391389000,1.945388916015625,0.06647014617919922,-0.4192230701446533,1.5357666015625
1761369706409998800,1.963998779296875,-0.03786754608154297,-0.6615175008773804,1.6237261295318604
1761369706428610300,1.9826103515625,-0.14717769622802734,-0.8220083117485046,1.1784332990646362
1761369706447220000,2.001219970703125,-0.32289695739746094,-0.8790647387504578,0.48791050910949707
1761369706465831400,2.01983154296875,-0.8241176605224609,-0.7440064549446106,-0.06220078468322754
1761369706484441300,2.03844140625,-1.392120361328125,-0.32607388496398926,-0.42551517486572266
1761369706503052500,2.057052490234375,-1.5954022407531738,0.22752392292022705,-0.7599201202392578
1761369706521662500,2.075662353515625,-1.3802480697631836,0.4168745279312134,-0.710676908493042
1761369706540273700,2.094273681640625,-0.9401845932006836,0.5210837125778198,-0.3853292465209961
1761369706558883600,2.112883544921875,-0.3697662353515625,0.5830032229423523,-0.3463289737701416
1761369706577495000,2.1314951171875,0.18920421600341797,0.4728606939315796,-0.24474740028381348
1761369706596104700,2.150104736328125,0.6182327270507812,0.3296210765838623,-0.04472970962524414
1761369706614716200,2.168716064453125,0.8163261413574219,0.13546709716320038,0.0912327766418457
1761369706633326000,2.187326171875,0.8881959915161133,0.13933804631233215,-0.23515701293945312
1761369706651937300,2.205937255859375,0.7443675994873047,0.25139352679252625,-0.7191979885101318
1761369706670547200,2.224547119140625,0.45355987548828125,0.3558691143989563,-0.9037885665893555
1761369706689158700,2.24315869140625,0.32251739501953125,0.3209456205368042,-0.7705075740814209
1761369706707768300,2.261768310546875,0.2806510925292969,0.3784939646720886,-0.5440883636474609
1761369706726379800,2.2803798828125,0.3608856201171875,0.4762122631072998,-0.4787893295288086
1761369706744989700,2.29898974609375,0.5030155181884766,0.5783419609069824,-0.28371763229370117
1761369706763601000,2.317600830078125,0.5337686538696289,0.6466417908668518,0.0018301010131835938
1761369706782210800,2.3362109375,0.4980430603027344,0.6492907404899597,0.2077651023864746
1761369706800822300,2.354822265625,0.4377861022949219,0.5985208749771118,0.27510690689086914
1761369706819432000,2.373431884765625,0.2606334686279297,0.5634005069732666,0.33405303955078125
1761369706838043400,2.39204345703125,0.07947635650634766,0.4532397985458374,0.41271495819091797
1761369706856653000,2.410653076171875,-0.12376022338867188,0.37602484226226807,0.3738737106323242
1761369706875264500,2.429264404296875,-0.2876920700073242,0.325741171836853,0.26331615447998047
1761369706893874400,2.44787451171875,-0.43846702575683594,0.19881045818328857,0.2277383804321289
1761369706912485600,2.466485595703125,-0.40230369567871094,0.01331794261932373,0.15025806427001953
1761369706931095600,2.485095458984375,-0.2442150115966797,-0.22626006603240967,0.12797117233276367
1761369706949707000,2.50370703125,-0.14163875579833984,-0.225677490234375,-0.1352858543395996
1761369706968316700,2.522316650390625,-0.17304134368896484,-0.2152395248413086,-0.49537086486816406
1761369706986928000,2.54092822265625,-0.4340801239013672,-0.3840646743774414,-0.4977302551269531
1761369707005538000,2.5595380859375,-0.7726564407348633,-0.4278564453125,-0.546515941619873
1761369707024149200,2.578149169921875,-0.9170327186584473,-0.6494191884994507,-0.2570648193359375
1761369707042759200,2.59675927734375,-1.0997138023376465,-0.8078328371047974,-0.1254591941833496
1761369707061370400,2.615370361328125,-1.313720703125,-0.8334077596664429,-0.32981204986572266
1761369707079980300,2.633980224609375,-1.4580154418945312,-0.8737157583236694,-0.7907352447509766
1761369707098591700,2.652591796875,-1.439476490020752,-0.9152774810791016,-0.9531865119934082
1761369707117201400,2.671201416015625,-1.3901772499084473,-1.095500111579895,-0.7020564079284668
1761369707135812900,2.689812744140625,-1.094210147857666,-1.4167438745498657,-0.3952922821044922
1761369707154422800,2.7084228515625,-0.619387149810791,-1.6228694915771484,-0.1821436882019043
1761369707173034000,2.727033935546875,-0.4356060028076172,-1.6067907810211182,-0.5165805816650391
1761369707191644000,2.745643798828125,-0.597900390625,-1.6724488735198975,-0.9683566093444824
1761369707210255000,2.764255126953125,-0.8887805938720703,-1.5437921285629272,-1.5469107627868652
1761369707228865000,2.782864990234375,-1.0984463691711426,-1.3690460920333862,-1.6392693519592285
1761369707247476500,2.8014765625,-1.060805320739746,-1.3290035724639893,-1.2555642127990723
1761369707266086100,2.820086181640625,-0.7618350982666016,-1.3527065515518188,-0.8094902038574219
1761369707284697600,2.838697509765625,-0.5025596618652344,-1.4822273254394531,-0.48232126235961914
1761369707303307300,2.857307373046875,-0.16125106811523438,-1.541179895401001,-0.46901655197143555
1761369707321918700,2.875918701171875,0.06486034393310547,-1.5765467882156372,-0.37981271743774414
1761369707340528600,2.894528564453125,0.08912086486816406,-1.5046167373657227,-0.6334071159362793
1761369707359139800,2.913139892578125,-0.2118682861328125,-1.5078154802322388,-0.7115201950073242
1761369707377749800,2.931749755859375,-0.5978498458862305,-1.338194727897644,-0.6032443046569824
1761369707396361200,2.950361328125,-0.8424301147460938,-1.1479876041412354,-0.31427669525146484
1761369707414971000,2.968970947265625,-0.717503547668457,-0.9411283731460571,0.10307788848876953
1761369707433582300,2.987582275390625,-0.26473236083984375,-0.6695243120193481,0.551367998123169
1761369707452192000,3.00619189453125,0.010820388793945312,-0.57625412940979,0.9165589809417725
1761369707470803500,3.024803466796875,-0.20949363708496094,-0.4727048873901367,0.8946967124938965
1761369707489413400,3.043413330078125,-0.3050060272216797,-0.25742781162261963,0.6956889629364014
1761369707508024600,3.062024658203125,-0.2487325668334961,-0.15496444702148438,0.7043812274932861
1761369707526634500,3.080634521484375,-0.0009613037109375,-0.09223508834838867,0.6523580551147461
1761369707545245700,3.09924560546875,0.35968494415283203,0.029217958450317383,0.6030185222625732
1761369707563855600,3.117855712890625,0.6045818328857422,0.07795512676239014,0.7261865139007568
1761369707582467000,3.136467041015625,0.6489887237548828,0.1123497486114502,0.7702009677886963
1761369707601076700,3.15507666015625,0.7333192825317383,0.17689120769500732,0.678070068359375
1761369707619688200,3.173688232421875,0.9720325469970703,0.19094908237457275,0.6301229000091553
1761369707638298000,3.192298095703125,1.4627456665039062,0.2610522508621216,0.6767113208770752
1761369707656909300,3.210909423828125,1.7288818359375,0.18356919288635254,0.9182051420211792
1761369707675519200,3.229519287109375,1.869542121887207,0.19239234924316406,1.1282914876937866
1761369707694130400,3.24813037109375,2.140191078186035,0.19507837295532227,1.278150200843811
1761369707712740400,3.266740234375,2.246119499206543,0.11314451694488525,1.4896321296691895
1761369707731351800,3.285351806640625,2.017580032348633,0.003052949905395508,1.6496691703796387
1761369707749961500,3.30396142578125,1.6253890991210938,-0.12306678295135498,1.680556058883667
1761369707768573000,3.322572998046875,1.345555305480957,-0.16110873222351074,1.8001290559768677
1761369707787182800,3.341182861328125,1.0731916427612305,-0.26048630475997925,1.8328828811645508
1761369707805794000,3.3597939453125,0.7680149078369141,-0.3228381276130676,1.6617382764816284
1761369707824404000,3.378404052734375,0.4150123596191406,-0.33703160285949707,1.4680432081222534
1761369707843015200,3.39701513671875,0.06439971923828125,-0.2688509225845337,1.309041142463684
1761369707861625000,3.415625,-0.10757923126220703,-0.07999646663665771,1.0922142267227173
1761369707880236300,3.434236328125,-0.12094402313232422,0.161668062210083,1.2502530813217163
1761369707898846200,3.45284619140625,0.061089515686035156,0.31915342807769775,1.469033122062683
1761369707917457700,3.471457763671875,0.1394205093383789,0.28666114807128906,1.862134575843811
1761369707936067300,3.4900673828125,0.08120346069335938,0.14492511749267578,1.8550950288772583
1761369707954678800,3.5086787109375,-0.0807027816772461,-0.03249359130859375,1.5339922904968262
1761369707973288400,3.527288330078125,-0.2722892761230469,-0.15985143184661865,1.1704622507095337
1761369707991900000,3.54589990234375,-0.5333280563354492,-0.17253077030181885,0.7845069169998169
1761369708010509800,3.564509765625,-0.6788492202758789,-0.12367236614227295,0.5330437421798706
1761369708029121000,3.58312109375,-0.7029609680175781,-0.03972518444061279,0.3941812515258789
1761369708047731000,3.60173095703125,-0.6903896331787109,0.06306111812591553,0.4022238254547119
1761369708066342100,3.620342041015625,-0.7009305953979492,0.19084012508392334,0.5127350091934204
1761369708084952000,3.6389521484375,-0.7569541931152344,0.29690301418304443,0.5821508169174194
1761369708103563500,3.6575634765625,-0.8371057510375977,0.3659825325012207,0.5876374244689941
1761369708122173200,3.676173095703125,-0.9239978790283203,0.39654839038848877,0.46450257301330566
1761369708140784600,3.69478466796875,-0.988438606262207,0.3432755470275879,0.24490070343017578
1761369708159394600,3.71339453125,-0.8181190490722656,0.25576555728912354,0.019042015075683594
1761369708178005800,3.732005859375,-0.44330310821533203,0.058980584144592285,-0.10121846199035645
1761369708196615700,3.75061572265625,0.08023262023925781,-0.24271941184997559,-0.20467305183410645
1761369708215227000,3.769226806640625,0.7928066253662109,-0.3576643466949463,-0.5479326248168945
1761369708233836800,3.7878369140625,1.423274040222168,-0.31278979778289795,-0.9165339469909668
1761369708252448000,3.806447998046875,1.8215112686157227,-0.25656700134277344,-0.9594905376434326
1761369708271058000,3.825057861328125,2.1298751831054688,-0.27358901500701904,-0.6446425914764404
1761369708289669400,3.84366943359375,2.1436595916748047,-0.3240107297897339,-0.22130370140075684
1761369708308279000,3.862279052734375,1.8942928314208984,-0.49350202083587646,0.08434200286865234
1761369708326890500,3.880890380859375,1.5233726501464844,-0.4603095054626465,0.12870025634765625
1761369708345500200,3.899500244140625,0.9733314514160156,-0.5493252277374268,0.02213573455810547
1761369708364111600,3.918111572265625,0.4488105773925781,-0.49394774436950684,-0.16325974464416504
1761369708382721500,3.936721435546875,0.048293113708496094,-0.500784158706665,-0.24713397026062012
1761369708401332700,3.955332763671875,-0.015320777893066406,-0.5878067016601562,-0.23836636543273926
1761369708419942700,3.973942626953125,0.07689380645751953,-0.7302242517471313,-0.20366811752319336
1761369708438553900,3.992553955078125,0.05228614807128906,-0.9127432703971863,-0.2172985076904297
1761369708457163800,4.011163818359375,-0.14535236358642578,-1.0234795808792114,-0.38614439964294434
1761369708475775200,4.029775146484375,-0.40120601654052734,-1.0479955673217773,-0.4549100399017334
1761369708494385000,4.048385009765625,-0.4336061477661133,-1.0484416484832764,-0.4378666877746582
1761369708512996400,4.066996337890625,-0.1492595672607422,-1.171219825744629,-0.33739280700683594
1761369708531606000,4.08560595703125,0.3727102279663086,-1.3423218727111816,0.009324312210083008
1761369708550217500,4.104217529296875,0.8886270523071289,-1.4435226917266846,0.41747117042541504
1761369708568827100,4.1228271484375,1.1339111328125,-1.4674183130264282,0.7230226993560791
1761369708587438600,4.1414384765625,0.8838663101196289,-1.4169399738311768,0.9024748802185059
1761369708606048500,4.160048583984375,0.17537784576416016,-1.380267858505249,0.8376357555389404
1761369708624659700,4.17865966796875,-0.7272720336914062,-1.1762263774871826,0.6599905490875244
1761369708643269600,4.19726953125,-1.4367008209228516,-0.9850455522537231,0.5273659229278564
1761369708661880800,4.215880859375,-1.5574712753295898,-0.9037297964096069,0.40271639823913574
1761369708680490800,4.23449072265625,-1.3984546661376953,-0.893096923828125,0.44936084747314453
1761369708699102000,4.25310205078125,-1.2956972122192383,-0.9261823892593384,0.49185776710510254
1761369708717712000,4.2717119140625,-1.2821273803710938,-0.9347231388092041,0.5965721607208252
1761369708736323300,4.2903232421875,-1.2328672409057617,-0.9651594161987305,0.7176671028137207
1761369708754933000,4.30893310546875,-1.0269227027893066,-0.8999600410461426,0.7149438858032227
1761369708773544400,4.32754443359375,-0.8610544204711914,-0.8960123062133789,0.6487448215484619
1761369708792154400,4.346154296875,-0.6395549774169922,-0.9534814357757568,0.4454634189605713
1761369708810765600,4.364765625,-0.20514774322509766,-1.124903678894043,0.16480541229248047
1761369708829375500,4.38337548828125,0.36548519134521484,-1.319581151008606,-0.11650705337524414
1761369708847986700,4.401986572265625,1.0878934860229492,-1.4344687461853027,-0.3838520050048828
1761369708866596600,4.4205966796875,1.582533836364746,-1.4682393074035645,-0.6382608413696289
1761369708885207800,4.439207763671875,1.657242774963379,-1.3505446910858154,-0.809079647064209
1761369708903817700,4.457817626953125,1.377213478088379,-1.139547348022461,-0.7039332389831543
1761369708922429000,4.476428955078125,0.9281482696533203,-0.7685908079147339,-0.4035007953643799
1761369708941038800,4.495038818359375,0.5978631973266602,-0.40374886989593506,0.09689879417419434
1761369708959650300,4.513650390625,0.4957256317138672,-0.13165044784545898,0.6936111450195312
1761369708978260000,4.532260009765625,0.3975496292114258,0.020745038986206055,1.1769905090332031
1761369708996871400,4.550871337890625,0.3040781021118164,0.09015631675720215,1.4456219673156738
1761369709015481000,4.569481201171875,0.22857284545898438,-0.0012793540954589844,1.5126347541809082
1761369709034092500,4.588092529296875,0.05210685729980469,-0.18501150608062744,1.3057656288146973
1761369709052702500,4.606702392578125,-0.11211967468261719,-0.35500621795654297,0.896597146987915
1761369709071313700,4.625313720703125,-0.1938152313232422,-0.35320162773132324,0.4160885810852051
1761369709089923600,4.643923583984375,-0.10251617431640625,-0.26718246936798096,0.1119072437286377
1761369709108534800,4.66253466796875,0.15395450592041016,-0.5722612142562866,0.49959468841552734
1761369709127144700,4.681144775390625,0.6121416091918945,-1.1883879899978638,1.2526885271072388
1761369709145756000,4.699755859375,1.3001222610473633,-1.9517762660980225,1.4322272539138794
1761369709164365800,4.71836572265625,2.042618751525879,-2.844176769256592,0.9620023965835571
1761369709182977300,4.736977294921875,2.587021827697754,-3.497750997543335,0.05418682098388672
1761369709201587000,4.7555869140625,2.6544713973999023,-3.8655970096588135,-0.7262108325958252
1761369709220198400,4.774198486328125,2.184053421020508,-3.5150668621063232,-1.2520382404327393
1761369709238808000,4.79280810546875,1.4617538452148438,-3.0393688678741455,-1.4480171203613281
1761369709257419500,4.81141943359375,0.8126792907714844,-2.308460235595703,-1.0905468463897705
1761369709276029200,4.830029296875,0.4187135696411133,-1.56159508228302,-0.5246825218200684
1761369709294640600,4.848640625,0.33754825592041016,-1.0330893993377686,0.2418513298034668
1761369709313250600,4.86725048828125,0.3586769104003906,-0.6510946750640869,1.0208789110183716
1761369709331861800,4.88586181640625,0.30548095703125,-0.43475863337516785,1.6049904823303223
1761369709350471700,4.9044716796875,0.3733482360839844,-0.3191026747226715,1.922651767730713
1761369709369083000,4.923082763671875,0.4887409210205078,-0.38903486728668213,1.9033994674682617
1761369709387692800,4.94169287109375,0.45081615447998047,-0.5750991106033325,1.581838846206665
1761369709406304000,4.960303955078125,0.29229736328125,-0.5810445547103882,1.2492064237594604
1761369709424914000,4.978913818359375,0.16402721405029297,-0.40704119205474854,0.8960028886795044
1761369709443525000,4.997525146484375,0.18431568145751953,-0.15232452750205994,0.6810100078582764
1761369709462135000,5.016135009765625,0.3551006317138672,0.1520628035068512,0.631965160369873
1761369709480746500,5.03474658203125,0.3881063461303711,0.3703485131263733,0.8404699563980103
1761369709499356200,5.053356201171875,0.22293758392333984,0.4833039939403534,1.0735639333724976
1761369709517967600,5.071967529296875,-0.12891292572021484,0.5559524297714233,1.0857083797454834
1761369709536577300,5.090577392578125,-0.5984573364257812,0.5574870109558105,0.8914986848831177
1761369709555188700,5.109188720703125,-0.9294328689575195,0.6219251751899719,0.6019753217697144
1761369709573798400,5.12779833984375,-1.122941017150879,0.6112383008003235,0.4717901945114136
1761369709592409900,5.146409912109375,-1.0820693969726562,0.41472291946411133,0.32451748847961426
1761369709611019500,5.16501953125,-0.6439523696899414,0.33345454931259155,0.01123034954071045
1761369709629631000,5.183630859375,-0.21524810791015625,0.24699755012989044,0.0030645132064819336
1761369709648240600,5.20224072265625,-0.139404296875,-0.10929868370294571,0.15869998931884766
1761369709666852000,5.22085205078125,-0.1257190704345703,-0.3073742687702179,0.12190443277359009
1761369709685462000,5.2394619140625,0.30269336700439453,-0.6602288484573364,0.09071427583694458
1761369709704073200,5.2580732421875,0.6808900833129883,-0.5336918830871582,-0.49699825048446655
1761369709722683100,5.27668310546875,0.6108932495117188,-0.8430324792861938,-0.4701382517814636
1761369709741294300,5.29529443359375,0.3049917221069336,-1.3347673416137695,0.17655885219573975
1761369709759904300,5.313904296875,0.5066595077514648,-0.8511518836021423,0.07767307758331299
1761369709778515500,5.332515380859375,0.7435760498046875,-0.6125258803367615,-0.05616414546966553
1761369709797125400,5.35112548828125,0.7704973220825195,-0.08921048790216446,-0.5079892873764038
1761369709815736600,5.369736572265625,0.4224538803100586,-0.7048190832138062,-0.5194677114486694
1761369709834346500,5.388346435546875,0.3966026306152344,-1.2316370010375977,-0.5213145017623901
1761369709852958000,5.4069580078125,0.5086297988891602,-1.0823179483413696,-0.9720076322555542
1761369709871567600,5.425567626953125,0.7600221633911133,-0.7853795289993286,-1.8062301874160767
1761369709890179000,5.444178955078125,0.42621421813964844,-1.1156470775604248,-1.617397665977478
1761369709908788700,5.462788818359375,0.46935367584228516,-1.2365643978118896,-1.3010802268981934
1761369709927400200,5.481400146484375,0.5583410263061523,-1.05702543258667,-0.8553135395050049
1761369709946009900,5.500009765625,0.18979644775390625,-0.9154248237609863,-0.3621894121170044
1761369709964621300,5.518621337890625,-0.3179969787597656,-0.7032608389854431,-0.1377338171005249
1761369709983231200,5.537231201171875,-0.8373851776123047,-0.5512062311172485,0.11852800846099854
1761369710001842400,5.555842529296875,-1.1393852233886719,-0.30355221033096313,0.11210942268371582
1761369710020452400,5.574452392578125,-1.4920825958251953,-0.17070496082305908,0.07766580581665039
1761369710039063600,5.5930634765625,-1.90232515335083,-0.09118783473968506,0.016092777252197266
1761369710057673500,5.611673583984375,-2.1144490242004395,0.018288254737854004,-0.27361488342285156
1761369710076284700,5.63028466796875,-2.306673049926758,0.06738841533660889,-0.7572891712188721
1761369710094894600,5.64889453125,-2.273348808288574,0.18490540981292725,-1.1428072452545166
1761369710113505800,5.667505859375,-1.7216167449951172,0.33106672763824463,-1.1596002578735352
1761369710132115700,5.68611572265625,-0.8822879791259766,0.38058996200561523,-0.9079527854919434
1761369710150727000,5.704726806640625,-0.12654972076416016,0.3853555917739868,-0.5933310985565186
1761369710169336800,5.7233369140625,0.39481258392333984,0.44877564907073975,-0.5755395889282227
1761369710187948000,5.741947998046875,0.7980260848999023,0.29283225536346436,-0.2287282943725586
1761369710206558000,5.760557861328125,1.380122184753418,0.09943878650665283,0.0628499984741211
1761369710225169400,5.77916943359375,2.0019540786743164,-0.369390070438385,0.5188292264938354
1761369710243779000,5.797779052734375,2.1938085556030273,-0.8447784185409546,0.4614872932434082
1761369710262390500,5.816390625,1.992680549621582,-0.994266927242279,-0.15619945526123047
1761369710281000200,5.835000244140625,1.3609085083007812,-1.0174100399017334,-0.5433666706085205
1761369710299611600,5.853611572265625,0.26322460174560547,-0.7260456681251526,-0.8397212028503418
1761369710318221300,5.87222119140625,-0.8189992904663086,-0.2935549020767212,-1.190406322479248
1761369710336832800,5.890832763671875,-1.368570327758789,0.14284837245941162,-1.3056540489196777
1761369710355442400,5.9094423828125,-1.4504766464233398,0.445422887802124,-1.151014804840088
1761369710374054000,5.928053955078125,-1.3497228622436523,0.6423926949501038,-1.0459623336791992
1761369710392663600,5.94666357421875,-1.140188217163086,0.7462071776390076,-1.1285841464996338
1761369710411275000,5.96527490234375,-0.8525876998901367,0.7514725923538208,-1.1614720821380615
1761369710429885000,5.983885009765625,-0.5684366226196289,0.6080586314201355,-0.8653914928436279
1761369710448496000,6.00249609375,-0.29116344451904297,0.5020436644554138,-0.4732391834259033
1761369710467105800,6.021105712890625,-0.15250015258789062,0.4445098042488098,-0.17333984375
1761369710485717200,6.03971728515625,-0.19437503814697266,0.4609655737876892,-0.03178572654724121
1761369710504327200,6.0583271484375,-0.3852090835571289,0.43043291568756104,-0.07222247123718262
1761369710522938400,6.0769384765625,-0.8154659271240234,0.4100203514099121,-0.2504725456237793
1761369710541548300,6.09554833984375,-1.243077278137207,0.3343409299850464,-0.466508150100708
1761369710560159500,6.114159423828125,-1.3044662475585938,0.2556194067001343,-0.8498170375823975
1761369710578769400,6.132769287109375,-1.0554561614990234,0.15997791290283203,-1.0148944854736328
1761369710597380600,6.151380615234375,-0.6408977508544922,0.028607845306396484,-0.6261608600616455
1761369710615990500,6.169990478515625,-0.2708711624145508,-0.011988639831542969,0.045777320861816406
1761369710634601700,6.188601806640625,0.03930377960205078,-0.11440753936767578,0.7497560977935791
1761369710653211600,6.207211669921875,0.41928672790527344,-0.2977694272994995,1.1842988729476929
1761369710671822800,6.22582275390625,0.8046655654907227,-0.4559236764907837,1.142208218574524
1761369710690432800,6.244432861328125,0.783574104309082,-0.4603533446788788,0.7911801338195801
1761369710709044000,6.2630439453125,0.3034095764160156,-0.24278712272644043,0.37717723846435547
1761369710727654000,6.28165380859375,-0.2850980758666992,0.21477442979812622,0.0829700231552124
1761369710746265000,6.30026513671875,-0.698460578918457,0.6476718783378601,-0.06621861457824707
1761369710764875000,6.318875,-0.9452171325683594,0.9986070990562439,0.014233231544494629
1761369710783486200,6.337486328125,-0.8941850662231445,1.4342365264892578,0.06974935531616211
1761369710802096000,6.35609619140625,-0.591862678527832,1.7981297969818115,0.1697479486465454
1761369710820707600,6.37470751953125,-0.3508739471435547,1.9953022003173828,0.34149837493896484
1761369710839317200,6.393317138671875,-0.16689777374267578,2.110502243041992,0.3475912809371948
1761369710857928700,6.4119287109375,0.014173507690429688,2.171914577484131,0.24367225170135498
1761369710876538400,6.430538330078125,0.4375123977661133,2.19299578666687,0.1875694990158081
1761369710895149800,6.44914990234375,0.9158878326416016,2.1459784507751465,0.2653367519378662
1761369710913759500,6.467759521484375,1.2947845458984375,2.1108558177948,0.3361321687698364
1761369710932371000,6.486370849609375,1.5464906692504883,2.081662893295288,0.4354974031448364
1761369710950980600,6.504980712890625,1.6566381454467773,1.9941504001617432,0.6470961570739746
1761369710969592000,6.523592041015625,1.5740156173706055,1.8159465789794922,0.9185790419578552
1761369710988201700,6.54220166015625,1.4675283432006836,1.514527678489685,1.141469120979309
1761369711006813200,6.560813232421875,1.5078372955322266,1.1220753192901611,1.2039988040924072
1761369711025422800,6.5794228515625,1.6881093978881836,0.6448681354522705,1.0701093673706055
1761369711044034300,6.598034423828125,1.8202619552612305,0.14800654351711273,0.9545848369598389
1761369711062644000,6.61664404296875,1.6823720932006836,-0.09747475385665894,0.6054531335830688
1761369711081255400,6.63525537109375,1.1091747283935547,-0.14833587408065796,0.23190617561340332
1761369711099865000,6.653864990234375,0.15935230255126953,0.04913526773452759,-0.04772651195526123
1761369711118476500,6.6724765625,-0.44963550567626953,0.17762994766235352,0.40936386585235596
1761369711137086200,6.691086181640625,-0.3104839324951172,-0.08419609069824219,1.4007153511047363
1761369711155697700,6.70969775390625,0.47893714904785156,-0.4770829677581787,1.6121115684509277
1761369711174307300,6.728307373046875,0.722442626953125,-0.8349165320396423,0.9189616441726685
1761369711192918800,6.746918701171875,0.0973348617553711,-1.157013177871704,0.2417600154876709
1761369711211528400,6.765528564453125,-0.5326251983642578,-1.108883023262024,-0.4199073314666748
1761369711230140000,6.784139892578125,-0.8127288818359375,-0.97605299949646,-0.6803333759307861
1761369711248749800,6.802749755859375,-0.8103733062744141,-0.8023579716682434,-0.5760641098022461
1761369711267361000,6.821361083984375,-0.7618122100830078,-0.5992015600204468,-0.11637687683105469
1761369711285970700,6.839970703125,-0.918543815612793,-0.4305213689804077,0.5668381452560425
1761369711304582100,6.85858203125,-1.0167360305786133,-0.23788166046142578,1.0026048421859741
1761369711323192000,6.877192138671875,-0.8638591766357422,-0.23682332038879395,1.3207590579986572
1761369711341803300,6.89580322265625,-0.38569164276123047,-0.4695413112640381,1.303148865699768
1761369711360413200,6.9144130859375,0.3640432357788086,-0.8624572157859802,0.9380464553833008
1761369711379024400,6.9330244140625,1.0645818710327148,-1.185761570930481,0.5546486377716064
1761369711397634300,6.95163427734375,1.2577285766601562,-1.3726050853729248,0.24780189990997314
1761369711416245500,6.97024560546875,0.9876613616943359,-1.3650579452514648,-0.05651211738586426
1761369711434855400,6.98885546875,0.4172525405883789,-1.0768173933029175,-0.3782010078430176
1761369711453466600,7.007466552734375,-0.17902278900146484,-0.6892834901809692,-0.4674825668334961
1761369711472076500,7.02607666015625,-0.6843671798706055,-0.24743640422821045,-0.39185237884521484
1761369711490687700,7.044687744140625,-1.1113710403442383,0.15594959259033203,-0.20618200302124023
1761369711509297700,7.063297607421875,-1.4175834655761719,0.48214125633239746,0.04254603385925293
1761369711527908900,7.081908935546875,-1.496851921081543,0.7967736721038818,0.2041916847229004
1761369711546518800,7.100518798828125,-1.3942127227783203,1.0753198862075806,0.2763817310333252
1761369711565130000,7.1191298828125,-1.2002315521240234,1.231649398803711,0.31594347953796387
1761369711583740000,7.137739990234375,-0.8484764099121094,1.2179651260375977,0.2888364791870117
1761369711602351000,7.15635107421875,-0.3002662658691406,0.9645063877105713,0.1300489902496338
1761369711620961000,7.1749609375,0.3859262466430664,0.6292494535446167,-0.13701272010803223
1761369711639572200,7.193572265625,0.9718246459960938,0.32135331630706787,-0.5191226005554199
1761369711658182100,7.21218212890625,1.4191808700561523,0.030925631523132324,-0.8458104133605957
1761369711676793300,7.23079345703125,1.7060184478759766,-0.23047411441802979,-0.9397695064544678
1761369711695403300,7.2494033203125,2.0250730514526367,-0.42721521854400635,-0.8450362682342529
1761369711714014500,7.268014404296875,2.083894729614258,-0.6162728071212769,-0.5771446228027344
1761369711732624400,7.286624267578125,1.9195137023925781,-0.7655674815177917,-0.29718852043151855
1761369711751235600,7.305235595703125,1.5714521408081055,-0.7943563461303711,-0.03558850288391113
1761369711769845500,7.323845458984375,1.1899423599243164,-0.7997087240219116,0.15983080863952637
1761369711788456700,7.342456787109375,0.6796064376831055,-0.6989606618881226,0.15556907653808594
1761369711807066600,7.361066650390625,0.08707046508789062,-0.5537726879119873,0.09941577911376953
1761369711825677800,7.379677734375,-0.29753780364990234,-0.20208072662353516,-0.09675979614257812
1761369711844287700,7.398287841796875,-0.44454383850097656,0.07222962379455566,0.007529735565185547
1761369711862899000,7.41689892578125,-0.3075399398803711,0.16710615158081055,0.3119368553161621
1761369711881508900,7.4355087890625,-0.0012426376342773438,0.0017371177673339844,0.6019946336746216
1761369711900120000,7.4541201171875,0.23743152618408203,-0.4729335308074951,0.6734730005264282
1761369711918730000,7.47272998046875,0.3843832015991211,-1.017505168914795,0.538013219833374
1761369711937341200,7.491341064453125,0.30846309661865234,-1.3576515913009644,0.21282756328582764
1761369711955951000,7.509951171875,-0.02643299102783203,-1.377553105354309,-0.16700077056884766
1761369711974562300,7.528562255859375,-0.5075883865356445,-1.1093990802764893,-0.3376603126525879
1761369711993172200,7.547172119140625,-0.9002695083618164,-0.6399242877960205,-0.32181477546691895
1761369712011783400,7.565783447265625,-0.9823541641235352,-0.1455976963043213,-0.23575997352600098
1761369712030393300,7.584393310546875,-0.8870429992675781,0.20734119415283203,0.09870171546936035
1761369712049004500,7.603004638671875,-0.5360774993896484,0.4116861820220947,0.7565104961395264
1761369712067614500,7.621614501953125,0.08261966705322266,0.3303639888763428,1.4820644855499268
1761369712086225700,7.6402255859375,0.8882427215576172,0.07987380027770996,1.7662118673324585
1761369712104835600,7.658835693359375,1.2895288467407227,-0.3811495304107666,1.599592924118042
1761369712123446800,7.67744677734375,1.217660903930664,-0.5882983207702637,0.9894531965255737
1761369712142056700,7.696056640625,0.6209888458251953,-0.501535177230835,0.3094133138656616
1761369712160668000,7.71466796875,-0.17435359954833984,-0.2166433334350586,-0.009840965270996094
1761369712179277800,7.73327783203125,-0.6582422256469727,0.24209833145141602,-0.12621855735778809
1761369712197889000,7.751888916015625,-0.8094654083251953,0.5613055229187012,0.029471158981323242
1761369712216499000,7.7704990234375,-0.7895889282226562,0.7289614677429199,0.41383397579193115
1761369712235110100,7.789110107421875,-0.7855033874511719,0.8326206207275391,0.8670397996902466
1761369712253720000,7.807719970703125,-0.8346672058105469,0.9601850509643555,1.0823991298675537
1761369712272331300,7.826331298828125,-0.8266735076904297,1.0580756664276123,1.1184844970703125
1761369712290941200,7.844941162109375,-0.8216800689697266,1.033233880996704,1.1470932960510254
1761369712309552400,7.863552490234375,-0.9303445816040039,0.9637455940246582,1.0581506490707397
1761369712328162000,7.882162109375,-1.153076171875,0.8667283058166504,0.9547085762023926
1761369712346773500,7.9007734375,-1.3562812805175781,0.8847064971923828,0.6765989065170288
1761369712365383400,7.919383544921875,-1.3552865982055664,0.7323977947235107,0.5181474685668945
1761369712383994600,7.93799462890625,-1.1298460960388184,0.6313047409057617,0.26209306716918945
1761369712402604300,7.956604248046875,-0.9191274642944336,0.6283783912658691,0.10659575462341309
1761369712421215700,7.9752158203125,-0.6365146636962891,0.7575528621673584,0.10921597480773926
1761369712439825700,7.99382568359375,-0.31221675872802734,0.925419807434082,0.19271349906921387
1761369712458436900,8.012436767578125,0.134246826171875,0.9513111114501953,0.38629674911499023
1761369712477046500,8.031046630859375,0.599334716796875,0.8532314300537109,0.5929818153381348
1761369712495658000,8.049657958984374,0.809596061706543,0.792027473449707,0.5231060981750488
1761369712514267600,8.068267578125,0.5779476165771484,0.7389638423919678,0.4457817077636719
1761369712532879000,8.086879150390626,0.3753843307495117,0.2749149799346924,0.839465856552124
1761369712551488800,8.10548876953125,0.4714498519897461,0.2684950828552246,0.5775492191314697
1761369712570100200,8.124100341796876,0.6948947906494141,-0.13091635704040527,0.5375528335571289
1761369712588710000,8.1427099609375,0.8044357299804688,-0.5855545997619629,0.408282995223999
1761369712607321300,8.1613212890625,0.785487174987793,-0.827455997467041,0.14086222648620605
1761369712625931000,8.179930908203126,0.5850448608398438,-0.907914400100708,-0.04087233543395996
1761369712644542500,8.19854248046875,0.2624635696411133,-0.8189904689788818,-0.1355762481689453
1761369712663152000,8.217152099609375,0.00016689300537109375,-0.4925417900085449,-0.4619109630584717
1761369712681763600,8.235763671875,-0.24637317657470703,-0.25373339653015137,-0.444413423538208
1761369712700373200,8.254373291015625,-0.31985950469970703,-0.3267085552215576,0.1422290802001953
1761369712718984700,8.272984619140624,0.22846031188964844,-0.5447854995727539,0.7508838176727295
1761369712737594400,8.291594482421875,1.1193485260009766,-0.9201321601867676,1.1515448093414307
1761369712756205800,8.310205810546876,1.566884994506836,-1.2517797946929932,1.1658908128738403
1761369712774815500,8.3288154296875,1.5637140274047852,-1.2388699054718018,0.4127810001373291
1761369712793427000,8.347427001953125,0.8173894882202148,-1.2044284343719482,-0.08754372596740723
1761369712812036600,8.36603662109375,-0.10693931579589844,-0.8486065864562988,-0.4354701042175293
1761369712830648000,8.38464794921875,-0.6963653564453125,-0.4963815212249756,-0.5530023574829102
1761369712849257700,8.4032578125,-0.8495874404907227,-0.41072630882263184,-0.1345348358154297
1761369712867869200,8.421869140625,-0.46804332733154297,-0.49091339111328125,0.2677581310272217
1761369712886478800,8.440478759765625,0.13040637969970703,-0.5974681377410889,0.39357471466064453
1761369712905090300,8.45909033203125,0.46145057678222656,-0.7261106967926025,0.480379581451416
1761369712923700000,8.477699951171875,0.407135009765625,-0.7502470016479492,0.37044525146484375
1761369712942311400,8.4963115234375,0.06443595886230469,-0.6164922714233398,0.12878727912902832
1761369712960921000,8.514921142578125,-0.3050556182861328,-0.486663818359375,0.09329628944396973
1761369712979532500,8.533532470703125,-0.5735549926757812,-0.31487107276916504,0.2458798885345459
1761369712998142200,8.55214208984375,-0.6858644485473633,-0.23624515533447266,0.522045373916626
1761369713016753400,8.57075341796875,-0.7624111175537109,-0.2524607181549072,0.6172184944152832
1761369713035363300,8.58936328125,-0.806121826171875,-0.18001079559326172,0.42673397064208984
1761369713053974800,8.607974853515625,-0.8331403732299805,-0.024935483932495117,0.1496598720550537
1761369713072584400,8.62658447265625,-0.9281177520751953,0.26253247261047363,-0.08977699279785156
1761369713091195600,8.645195556640624,-1.0797691345214844,0.596503734588623,-0.23732542991638184
1761369713109805600,8.6638056640625,-1.14656400680542,0.9173545837402344,-0.40818166732788086
1761369713128416800,8.682416748046874,-0.9218988418579102,1.109628677368164,-0.34826207160949707
1761369713147026700,8.701026611328125,-0.3956317901611328,0.9806115627288818,0.015900135040283203
1761369713165638000,8.719637939453126,0.20682907104492188,0.6200640201568604,0.3747284412384033
1761369713184247800,8.738247802734374,0.88726806640625,0.2698659896850586,0.3587985038757324
1761369713202859000,8.75685888671875,1.4950065612792969,-0.06084132194519043,0.2050778865814209
1761369713221469000,8.775468994140626,1.7040348052978516,-0.3898046016693115,0.17657709121704102
1761369713240080100,8.794080078125,1.336216926574707,-0.5826029777526855,0.2831380367279053
1761369713258690000,8.81268994140625,0.900517463684082,-0.4588167667388916,0.369321346282959
1761369713277301200,8.83130126953125,0.8947000503540039,-0.13558220863342285,0.30647873878479004
1761369713295911200,8.8499111328125,0.9952497482299805,0.026874065399169922,0.3751504421234131
1761369713314522400,8.8685224609375,0.8811779022216797,0.1665782928466797,0.36511969566345215
1761369713333132300,8.88713232421875,0.536351203918457,0.22027349472045898,0.4515233039855957
1761369713351743500,8.905743408203126,0.22739696502685547,0.2251424789428711,0.6858806610107422
1761369713370353400,8.924353515625,0.23408126831054688,0.21016573905944824,0.8799288272857666
1761369713388964600,8.942964599609375,0.4669475555419922,-0.003409862518310547,1.020567536354065
1761369713407574500,8.961574462890624,0.8559141159057617,-0.3136560916900635,1.0204341411590576
1761369713426185700,8.980185791015625,1.1761083602905273,-0.6143758296966553,0.9721400737762451
1761369713444795600,8.998795654296876,1.2029352188110352,-0.8575739860534668,0.801687479019165
1761369713463406800,9.01740673828125,0.9207878112792969,-0.9792287349700928,0.473055362701416
1761369713482016500,9.0360166015625,0.4600210189819336,-1.0031946897506714,0.2936413288116455
1761369713500628000,9.0546279296875,0.059482574462890625,-0.8434669971466064,0.33707404136657715
1761369713519238000,9.07323779296875,-0.09573841094970703,-0.48233532905578613,0.580294132232666
1761369713537849000,9.09184912109375,-0.09460163116455078,-0.1243124008178711,0.8589909076690674
1761369713556458800,9.110458740234375,-0.16296672821044922,0.22484111785888672,1.0491211414337158
1761369713575070200,9.1290703125,-0.26698970794677734,0.4916822910308838,1.1555167436599731
1761369713593680000,9.147679931640624,-0.3379173278808594,0.5482618808746338,1.326081395149231
1761369713612291300,9.166291259765625,-0.29381465911865234,0.44344067573547363,1.434938907623291
1761369713630901000,9.18490087890625,-0.13299560546875,0.1527411937713623,1.3635492324829102
1761369713649512400,9.203512451171875,0.21088886260986328,-0.14738106727600098,1.0617488622665405
1761369713668122000,9.2221220703125,0.47014522552490234,-0.3257741928100586,0.6561089754104614
1761369713686733600,9.240733642578125,0.28014469146728516,-0.4542422294616699,0.26564788818359375
1761369713705343200,9.25934326171875,-0.3246278762817383,-0.3604004383087158,-0.10995197296142578
1761369713723954700,9.27795458984375,-1.0291557312011719,-0.11862468719482422,-0.2228248119354248
1761369713742564400,9.296564453125,-1.4053230285644531,0.14867949485778809,-0.09074878692626953
1761369713761175800,9.31517578125,-1.224625587463379,0.40575718879699707,0.15894055366516113
1761369713779785500,9.333785400390624,-0.7863216400146484,0.5615978240966797,0.4953731298446655
1761369713798397000,9.35239697265625,-0.4023094177246094,0.6469433307647705,0.865936279296875
1761369713817006600,9.371006591796874,-0.1421804428100586,0.6687932014465332,1.1755558252334595
1761369713835618000,9.3896181640625,0.07966232299804688,0.6074416637420654,1.2686803340911865
1761369713854227700,9.408227783203126,0.15452861785888672,0.4736943244934082,1.1680022478103638
1761369713872839000,9.4268388671875,0.0755014419555664,0.2586963176727295,0.9264733791351318
1761369713891448800,9.44544873046875,0.007605552673339844,0.10338783264160156,0.4638453722000122
1761369713910060000,9.46406005859375,0.1538066864013672,0.04682207107543945,0.04130387306213379
1761369713928670000,9.482669921875,0.27364063262939453,0.08774948120117188,-0.19289135932922363
1761369713947281200,9.50128125,0.2530498504638672,0.31788206100463867,-0.37105369567871094
1761369713965891000,9.51989111328125,0.14444923400878906,0.7071037292480469,-0.5091848373413086
1761369713984502300,9.538502197265625,0.03216075897216797,0.8382463455200195,-0.20249056816101074
1761369714003112200,9.5571123046875,0.1725931167602539,0.7023272514343262,0.5061100721359253
1761369714021723400,9.575723388671875,0.6293869018554688,0.47856950759887695,1.1320879459381104
1761369714040333300,9.594333251953126,1.1900634765625,0.05091738700866699,1.2272357940673828
1761369714058944500,9.612944580078125,1.4375009536743164,-0.33626341819763184,0.8165973424911499
1761369714077554400,9.631554443359375,1.2468376159667969,-0.5640065670013428,0.2627675533294678
1761369714096165600,9.65016552734375,0.6171026229858398,-0.7010917663574219,-0.04096841812133789
1761369714114775600,9.668775634765625,-0.02309894561767578,-0.7610321044921875,-0.22850489616394043
1761369714133386800,9.68738671875,-0.1795186996459961,-0.7444512844085693,-0.4717702865600586
1761369714151996700,9.70599658203125,-0.1908121109008789,-0.7571115493774414,-0.45774078369140625
1761369714170607900,9.72460791015625,-0.31467247009277344,-0.7158334255218506,-0.45357608795166016
1761369714189217800,9.7432177734375,-0.5544033050537109,-0.5031945705413818,-0.5357644557952881
1761369714207829000,9.7618291015625,-0.7355947494506836,-0.1110692024230957,-0.6740906238555908
1761369714226438700,9.780438720703126,-0.6848993301391602,0.12982392311096191,-0.7200889587402344
1761369714245050000,9.799050048828125,-0.5172348022460938,0.16527271270751953,-0.48744654655456543
1761369714263659800,9.81765966796875,-0.13008975982666016,0.1083059310913086,-0.16754412651062012
1761369714282271200,9.836271240234375,0.38549232482910156,-0.06531429290771484,0.11088871955871582
1761369714300881000,9.854880859375,0.5404996871948242,-0.27701711654663086,0.18014144897460938
1761369714319492400,9.873492431640624,0.4134206771850586,-0.4845128059387207,-0.046369314193725586
1761369714338102000,9.89210205078125,0.1846151351928711,-0.5558011531829834,-0.3043944835662842
1761369714356713500,9.91071337890625,-0.0038890838623046875,-0.5522470474243164,-0.32057929039001465
1761369714375323100,9.9293232421875,-0.07624053955078125,-0.4665842056274414,-0.24550390243530273
1761369714393934600,9.9479345703125,0.009831428527832031,-0.3226742744445801,0.011901140213012695
1761369714412544300,9.966544189453124,0.15036869049072266,-0.2340555191040039,0.26036882400512695
1761369714431155700,9.98515576171875,0.25205039978027344,-0.1893768310546875,0.5040640830993652
1761369714449765400,10.003765380859376,0.15762996673583984,-0.15514111518859863,0.6407550573348999
1761369714468376600,10.02237646484375,-0.09325981140136719,-0.028972625732421875,0.5013220310211182
1761369714486986500,10.040986572265625,-0.40252113342285156,0.03563094139099121,0.36246180534362793
1761369714505597700,10.05959765625,-0.529515266418457,0.14508056640625,0.26988816261291504
1761369714524207600,10.07820751953125,-0.1603860855102539,0.26238417625427246,0.363811731338501
1761369714542818800,10.09681884765625,0.46942901611328125,0.2476651668548584,0.5945466756820679
1761369714561428700,10.1154287109375,0.8506307601928711,0.0784153938293457,0.6768580675125122
1761369714580040000,10.1340400390625,0.8835220336914062,-0.10480928421020508,0.5102465152740479
1761369714598649900,10.15264990234375,0.6149988174438477,-0.1981654167175293,0.3353617191314697
1761369714617261000,10.171260986328125,0.3696575164794922,-0.37647032737731934,0.5240374803543091
1761369714635871000,10.18987109375,0.43431854248046875,-0.4166550636291504,0.6019723415374756
1761369714654482200,10.208482177734375,0.511998176574707,-0.3706226348876953,0.6194472312927246
1761369714673092000,10.227092041015625,0.5971450805664062,-0.2529757022857666,0.48215723037719727
1761369714691703300,10.245703369140625,0.7807226181030273,-0.09896254539489746,0.2606625556945801
1761369714710313200,10.264313232421875,0.9047422409057617,-0.1330859661102295,0.2996377944946289
1761369714728924400,10.28292431640625,1.0744390487670898,-0.3667006492614746,0.5117716789245605
1761369714747534000,10.3015341796875,1.404465675354004,-0.6596574783325195,0.5553585290908813
1761369714766145500,10.3201455078125,1.6193628311157227,-0.8291176557540894,0.43701887130737305
1761369714784755200,10.338755126953124,1.430521011352539,-0.7909849882125854,0.3672182559967041
1761369714803366700,10.35736669921875,0.880427360534668,-0.655336856842041,0.5203185081481934
1761369714821976300,10.375976318359376,0.26215457916259766,-0.28444480895996094,0.8008579015731812
1761369714840587800,10.394587890625,-0.2785520553588867,0.09691095352172852,1.1235719919204712
1761369714859197400,10.413197509765626,-0.6491146087646484,0.3041548728942871,1.472814917564392
1761369714877809000,10.431808837890625,-0.7411413192749023,0.3486959934234619,1.6774157285690308
1761369714896418600,10.45041845703125,-0.5373306274414062,0.23258733749389648,1.6686947345733643
1761369714915029800,10.46902978515625,-0.24566268920898438,0.11220574378967285,1.425182580947876
1761369714933639700,10.4876396484375,-0.00000476837158203125,-0.04121899604797363,1.2506341934204102
1761369714952251000,10.5062509765625,0.08231735229492188,-0.061981201171875,1.108111023902893
1761369714970860800,10.52486083984375,-0.015133857727050781,0.014160394668579102,0.929394006729126
1761369714989472000,10.543471923828125,0.020263671875,0.10582566261291504,0.8487710952758789
1761369715008082000,10.56208203125,0.26392650604248047,0.10777902603149414,0.8766536712646484
1761369715026693000,10.580693115234375,0.3577919006347656,0.06993794441223145,0.897446870803833
1761369715045303000,10.599302978515626,0.18311595916748047,0.08540701866149902,1.0405642986297607
1761369715063914200,10.617914306640625,-0.21486759185791016,0.19729971885681152,1.186379313468933
1761369715082524200,10.636524169921875,-0.4326047897338867,0.2953512668609619,1.201803207397461
1761369715101135400,10.65513525390625,-0.4488821029663086,0.31165623664855957,1.2440646886825562
1761369715119745000,10.6737451171875,-0.32323455810546875,0.35848021507263184,1.293022632598877
1761369715138356500,10.6923564453125,-0.13567829132080078,0.42320823669433594,1.3555355072021484
1761369715156966100,10.710966064453125,-0.06715583801269531,0.4552302360534668,1.2584973573684692
1761369715175577600,10.72957763671875,-0.13802623748779297,0.46387290954589844,1.0842692852020264
1761369715194187300,10.748187255859374,-0.27535057067871094,0.4439120292663574,1.0238208770751953
1761369715212798700,10.766798828125,-0.3724031448364258,0.41816258430480957,1.0523748397827148
1761369715231408400,10.785408447265626,-0.3742198944091797,0.3921375274658203,0.9891139268875122
1761369715250019600,10.80401953125,-0.16956329345703125,0.2817397117614746,0.7828042507171631
1761369715268629500,10.82262939453125,0.17586898803710938,0.15860629081726074,0.4442269802093506
1761369715287240700,10.84124072265625,0.18914127349853516,0.1506500244140625,0.1251983642578125
1761369715305850600,10.8598505859375,0.09994697570800781,0.030493497848510742,0.15830421447753906
1761369715324461800,10.8784619140625,0.20566177368164062,0.04769325256347656,-0.13859224319458008
1761369715343071700,10.89707177734375,0.3735504150390625,-0.0761265754699707,-0.15022611618041992
1761369715361683000,10.915682861328126,0.2897777557373047,-0.30713963508605957,-0.01569509506225586
1761369715380292900,10.93429296875,-0.04398632049560547,-0.5005910396575928,-0.13391661643981934
1761369715398904000,10.952904052734375,-0.362945556640625,-0.5493869781494141,-0.31839847564697266
1761369715417513200,10.97151318359375,-0.6746482849121094,-0.4188222885131836,-0.6034543514251709
1761369715436124400,10.99012451171875,-0.6241960525512695,-0.3985464572906494,-0.5967097282409668
1761369715454734300,11.008734375,-0.49358177185058594,-0.45084238052368164,-0.2967374324798584
1761369715473345500,11.027345458984374,-0.3144845962524414,-0.5510542392730713,-0.15240216255187988
