time,seconds_elapsed,z,y,x
1761369704641992700,0.19599267578125,-1.2559019327163696,-0.9345199465751648,0.5704549551010132
1761369704660602600,0.2146025390625,-1.3835690021514893,-0.8636616468429565,0.3175642192363739
1761369704679213800,0.2332138671875,-1.4330476522445679,-0.7396596670150757,-0.023364907130599022
1761369704697823700,0.25182373046875,-1.3481398820877075,-0.6193227767944336,-0.2176143378019333
1761369704716435200,0.270435302734375,-1.2314680814743042,-0.31328830122947693,-0.25976279377937317
1761369704735044900,0.289044921875,-1.2058124542236328,-0.06650599837303162,-0.2157817929983139
1761369704753656300,0.30765625,-1.4929107427597046,0.06116108223795891,-0.26098448038101196
1761369704772266200,0.326266357421875,-1.8716360330581665,0.09292513877153397,-0.41675055027008057
1761369704790877400,0.34487744140625,-2.0891740322113037,-0.0946049690246582,-0.6928535103797913
1761369704809487400,0.3634873046875,-2.1606431007385254,-0.3181750774383545,-1.0550858974456787
1761369704828098600,0.3820986328125,-2.1527020931243896,-0.44095537066459656,-1.356844425201416
1761369704846708500,0.40070849609375,-2.10688853263855,-0.48249298334121704,-1.4759596586227417
1761369704865320000,0.41931982421875,-2.1123862266540527,-0.42629504203796387,-1.3947169780731201
1761369704883929600,0.4379296875,-2.2137868404388428,-0.29679539799690247,-1.1247224807739258
1761369704902541000,0.456541015625,-2.397041082382202,-0.31145575642585754,-0.7600467205047607
1761369704921151000,0.47515087890625,-2.5595264434814453,-0.51425701379776,-0.36788275837898254
1761369704939762200,0.49376220703125,-2.6823067665100098,-0.6895701885223389,0.024968381971120834
1761369704958372000,0.5123720703125,-2.7336177825927734,-0.7476006746292114,0.36093437671661377
1761369704976983300,0.5309833984375,-2.6737546920776367,-0.7903599739074707,0.5728983879089355
1761369704995593200,0.54959326171875,-2.5320382118225098,-0.7775322198867798,0.6706339120864868
1761369705014204700,0.56820458984375,-2.381769895553589,-0.644367516040802,0.6871268153190613
1761369705032814300,0.586814453125,-2.2626545429229736,-0.5020400881767273,0.6596387028694153
1761369705051425800,0.60542578125,-2.124603033065796,-0.36154523491859436,0.6297071576118469
1761369705070035700,0.62403564453125,-1.951046109199524,-0.3157316744327545,0.5692332983016968
1761369705088647000,0.64264697265625,-1.8129947185516357,-0.2925194799900055,0.4727194309234619
1761369705107256800,0.6612568359375,-1.6975445747375488,-0.32733777165412903,0.37803810834884644
1761369705125868300,0.679868408203125,-1.5698775053024292,-0.33650049567222595,0.3310028612613678
1761369705144478000,0.69847802734375,-1.4354910850524902,-0.2650313675403595,0.32733777165412903
1761369705163089400,0.71708935546875,-1.3145432472229004,-0.1465269923210144,0.36093437671661377
1761369705181699300,0.73569921875,-1.2302464246749878,0.06665870547294617,0.43973368406295776
1761369705200310500,0.754310546875,-1.1502254009246826,0.29022881388664246,0.5197546482086182
1761369705218920400,0.77292041015625,-1.0518789291381836,0.42400434613227844,0.5557946562767029
1761369705237532000,0.791531982421875,-0.9657495021820068,0.4453839957714081,0.5429668426513672
1761369705256141600,0.8101416015625,-0.9022213816642761,0.3733040392398834,0.4776062071323395
1761369705274753000,0.8287529296875,-0.837471604347229,0.2566322088241577,0.40063944458961487
1761369705293363000,0.847363037109375,-0.7678350210189819,0.22303560376167297,0.3853682577610016
1761369705311974100,0.86597412109375,-0.712247908115387,0.24869118630886078,0.44217705726623535
1761369705330584000,0.884583984375,-0.6768187880516052,0.30549997091293335,0.5527403950691223
1761369705349195500,0.903195556640625,-0.6670452356338501,0.38491013646125793,0.6840725541114807
1761369705367805200,0.92180517578125,-0.6682668924331665,0.43805384635925293,0.7952467799186707
1761369705386416600,0.940416748046875,-0.6700994372367859,0.47287213802337646,0.8624399900436401
1761369705405026600,0.959026611328125,-0.6786513328552246,0.4576009511947632,0.8777111768722534
1761369705423637800,0.9776376953125,-0.7006418108940125,0.42095011472702026,0.8557206392288208
1761369705442247700,0.99624755859375,-0.7501204609870911,0.3616979420185089,0.7989118695259094
1761369705460859100,1.014859130859375,-0.8057075142860413,0.2975589632987976,0.7164474725723267
1761369705479468800,1.03346875,-0.8270871639251709,0.1814979910850525,0.6040515899658203
1761369705498080300,1.052080322265625,-0.8167027831077576,0.04161396995186806,0.47027602791786194
1761369705516690200,1.070690185546875,-0.7983773946762085,-0.09643751382827759,0.3291703164577484
1761369705535301400,1.08930126953125,-0.7501204609870911,-0.18256697058677673,0.21982865035533905
1761369705553911300,1.107911376953125,-0.6780404448509216,-0.21921780705451965,0.1984490007162094
1761369705572522800,1.126522705078125,-0.5436540842056274,-0.29862794280052185,0.278469979763031
1761369705591132400,1.14513232421875,-0.38483378291130066,-0.6559736132621765,0.35054996609687805
1761369705609744000,1.163743896484375,-0.3176405727863312,-1.0627979040145874,0.2925194799900055
1761369705628353800,1.182353759765625,-0.28037887811660767,-1.241165280342102,0.16485241055488586
1761369705646965000,1.200965087890625,-0.2229592502117157,-1.1012812852859497,0.07383616268634796
1761369705665575000,1.219574951171875,-0.14721418917179108,-0.718280017375946,0.06223006546497345
1761369705684186000,1.23818603515625,-0.07513421028852463,-0.329781174659729,0.0811663269996643
1761369705702796000,1.256796142578125,-0.07574506103992462,-0.010918894782662392,0.03779617324471474
1761369705721407500,1.275407470703125,-0.11545012891292572,0.11063970625400543,-0.04840964451432228
1761369705740017200,1.29401708984375,-0.08796200156211853,0.07826480269432068,-0.04963133856654167
1761369705758628600,1.312628662109375,-0.17348061501979828,-0.02802261710166931,-0.0068720318377017975
1761369705777238500,1.331238525390625,-0.30847787857055664,0.036727190017700195,-0.0331384651362896
1761369705795849700,1.349849609375,-0.2651077210903168,-0.0420721061527729,-0.04169032722711563
1761369705814459600,1.368459716796875,-0.22540263831615448,-0.25647950172424316,0.031076854094862938
1761369705833071000,1.387071044921875,-0.2748812735080719,-0.5057051777839661,0.15630054473876953
1761369705851681000,1.405680908203125,-0.4446968138217926,-0.5991647839546204,0.30901235342025757
1761369705870292200,1.424292236328125,-0.6505523324012756,-0.6016082167625427,0.3817031681537628
1761369705888902100,1.442902099609375,-0.7928797602653503,-0.5130353569984436,0.37742725014686584
1761369705907513300,1.461513427734375,-0.8576295375823975,-0.29618456959724426,0.3554367423057556
1761369705926123300,1.480123291015625,-0.8515210747718811,-0.0426829531788826,0.31206658482551575
1761369705944734700,1.498734619140625,-0.8228112459182739,0.18638476729393005,0.2253262847661972
1761369705963344400,1.517344482421875,-0.7537854909896851,0.27617931365966797,0.09032903611660004
1761369705981955800,1.535955810546875,-0.6829272508621216,0.23830679059028625,-0.055739812552928925
1761369706000565800,1.554565673828125,-0.6273401379585266,0.15645325183868408,-0.2029540091753006
1761369706019177000,1.573177001953125,-0.6200099587440491,0.1417929232120514,-0.33001023530960083
1761369706037787000,1.591786865234375,-0.6218425035476685,0.12224581092596054,-0.46989426016807556
1761369706056398300,1.6103984375,-0.6096255779266357,0.06910209357738495,-0.6128324866294861
1761369706075008000,1.629008056640625,-0.5803049206733704,-0.0035887276753783226,-0.7466080784797668
1761369706093619500,1.647619384765625,-0.53143709897995,-0.07750124484300613,-0.8364025950431824
1761369706112229400,1.6662294921875,-0.4844018816947937,-0.09827005118131638,-0.8803836107254028
1761369706130840600,1.684840576171875,-0.4330907166004181,-0.023746687918901443,-0.8926005363464355
1761369706149450500,1.703450439453125,-0.37261682748794556,0.1937149316072464,-0.7887565493583679
1761369706168062000,1.72206201171875,-0.3823903799057007,0.5321243405342102,-0.5706840753555298
1761369706186671600,1.740671630859375,-0.4422534108161926,0.8167791366577148,-0.3177932798862457
1761369706205283000,1.759282958984375,-0.5155550837516785,0.8485432267189026,-0.12048961967229843
1761369706223893000,1.77789306640625,-0.5961869359016418,0.5962632894515991,-0.008704573847353458
1761369706242504200,1.796504150390625,-0.7299624681472778,0.17538951337337494,0.04390464723110199
1761369706261114000,1.815114013671875,-0.8961129188537598,-0.253425270318985,0.08849649876356125
1761369706279725300,1.833725341796875,-0.9681929349899292,-0.5539621114730835,0.2149418741464615
1761369706298335200,1.852335205078125,-0.9547542929649353,-0.6828508973121643,0.4366794228553772
1761369706316946700,1.87094677734375,-0.9089407324790955,-0.5582380294799805,0.7164474725723267
1761369706335556600,1.889556640625,-0.8729007244110107,-0.36215606331825256,0.9192487597465515
1761369706354167800,1.908167724609375,-0.9138274788856506,-0.32611608505249023,0.8978691101074219
1761369706372777700,1.92677783203125,-1.081810474395752,-0.43057096004486084,0.6852942705154419
1761369706391389000,1.945388916015625,-1.3096565008163452,-0.43118181824684143,0.4220190942287445
1761369706409998800,1.963998779296875,-1.544832706451416,-0.357269287109375,0.17096087336540222
1761369706428610300,1.9826103515625,-1.5882028341293335,-0.0683385357260704,0.04146125912666321
1761369706447220000,2.001219970703125,-1.4257174730300903,0.38124504685401917,0.035352785140275955
1761369706465831400,2.01983154296875,-1.1685508489608765,0.7324821949005127,0.01763821393251419
1761369706484441300,2.03844140625,-0.9321529269218445,0.8057838678359985,-0.13270656764507294
1761369706503052500,2.057052490234375,-0.7427902817726135,0.6353574991226196,-0.39353835582733154
1761369706521662500,2.075662353515625,-0.6835380792617798,0.535789430141449,-0.6647545099258423
1761369706540273700,2.094273681640625,-0.7134696245193481,0.34398335218429565,-0.9109259843826294
1761369706558883600,2.112883544921875,-0.6780404448509216,0.15645325183868408,-1.0648595094680786
1761369706577495000,2.1314951171875,-0.5876350402832031,0.07643226534128189,-1.094791054725647
1761369706596104700,2.150104736328125,-0.5161659121513367,0.22425730526447296,-0.9891144037246704
1761369706614716200,2.168716064453125,-0.4953971207141876,0.5095229744911194,-0.7850914597511292
1761369706633326000,2.187326171875,-0.44042086601257324,0.7556943893432617,-0.5346440672874451
1761369706651937300,2.205937255859375,-0.27915719151496887,0.7984537482261658,-0.3367295563220978
1761369706670547200,2.224547119140625,-0.05741964280605316,0.7880693078041077,-0.23593975603580475
1761369706689158700,2.24315869140625,0.16676130890846252,0.8467106819152832,-0.1644706279039383
1761369706707768300,2.261768310546875,0.34757208824157715,0.8595384359359741,-0.08933641016483307
1761369706726379800,2.2803798828125,0.5454866290092468,0.7068266272544861,0.020692450925707817
1761369706744989700,2.29898974609375,0.6939988136291504,0.535789430141449,0.12453648447990417
1761369706763601000,2.317600830078125,0.7770740985870361,0.48753246665000916,0.2112767994403839
1761369706782210800,2.3362109375,0.8283852338790894,0.5174639821052551,0.31206658482551575
1761369706800822300,2.354822265625,0.8619818091392517,0.5370110869407654,0.42934927344322205
1761369706819432000,2.373431884765625,0.8900808095932007,0.5913764834403992,0.5625139474868774
1761369706838043400,2.39204345703125,0.8705337047576904,0.5968741178512573,0.6779640913009644
1761369706856653000,2.410653076171875,0.799064576625824,0.5046361684799194,0.7500441074371338
1761369706875264500,2.429264404296875,0.6964422464370728,0.3274904787540436,0.7915816903114319
1761369706893874400,2.44787451171875,0.5656445622444153,0.058717694133520126,0.8080745935440063
1761369706912485600,2.466485595703125,0.4581354558467865,-0.23632153868675232,0.8373952507972717
1761369706931095600,2.485095458984375,0.3775036036968231,-0.3847574293613434,0.8990908265113831
1761369706949707000,2.50370703125,0.34696123003959656,-0.352993369102478,0.9827768802642822
1761369706968316700,2.522316650390625,0.395218163728714,-0.2882435619831085,1.0554677248001099
1761369706986928000,2.54092822265625,0.44958359003067017,-0.21616357564926147,1.0395857095718384
1761369707005538000,2.5595380859375,0.5277720093727112,-0.08849649876356125,0.8825979232788086
1761369707024149200,2.578149169921875,0.5497625470161438,0.04772244393825531,0.6773532629013062
1761369707042759200,2.59675927734375,0.5155550837516785,0.24930204451084137,0.4916556775569916
1761369707061370400,2.615370361328125,0.4844018816947937,0.3641413152217865,0.3145099878311157
1761369707079980300,2.633980224609375,0.5088357925415039,0.3788016438484192,0.12759071588516235
1761369707098591700,2.652591796875,0.5216635465621948,0.30305659770965576,-0.08628217875957489
1761369707117201400,2.671201416015625,0.444085955619812,0.1277434378862381,-0.35627666115760803
1761369707135812900,2.689812744140625,0.33352261781692505,-0.06467345356941223,-0.571294903755188
1761369707154422800,2.7084228515625,0.21501824259757996,-0.09888090193271637,-0.6439857482910156
1761369707173034000,2.727033935546875,0.25655585527420044,0.05566345527768135,-0.5822901725769043
1761369707191644000,2.745643798828125,0.4074351191520691,0.14851224422454834,-0.5175403356552124
1761369707210255000,2.764255126953125,0.5894675850868225,0.09109259396791458,-0.5462501645088196
1761369707228865000,2.782864990234375,0.6976639032363892,-0.04756972938776016,-0.7026270627975464
1761369707247476500,2.8014765625,0.7153785228729248,-0.17951273918151855,-0.8822161555290222
1761369707266086100,2.820086181640625,0.6628456115722656,-0.2662530541419983,-0.9897252917289734
1761369707284697600,2.838697509765625,0.577861487865448,-0.30962321162223816,-1.0312628746032715
1761369707303307300,2.857307373046875,0.5473191738128662,-0.30656898021698,-0.9695672988891602
1761369707321918700,2.875918701171875,0.5302154421806335,-0.2644205093383789,-0.8095253109931946
1761369707340528600,2.894528564453125,0.6756734251976013,-0.24914932250976562,-0.5841227173805237
1761369707359139800,2.913139892578125,0.8986326456069946,-0.1990598440170288,-0.4283566474914551
1761369707377749800,2.931749755859375,1.0971580743789673,-0.24181915819644928,-0.39292749762535095
1761369707396361200,2.950361328125,1.21077561378479,-0.4617241621017456,-0.4381301999092102
1761369707414971000,2.968970947265625,1.2333769798278809,-0.7176691889762878,-0.4808894991874695
1761369707433582300,2.987582275390625,1.1716814041137695,-0.8166264295578003,-0.41858309507369995
1761369707452192000,3.00619189453125,1.0317974090576172,-0.7915816903114319,-0.2689255177974701
1761369707470803500,3.024803466796875,0.8827506303787231,-0.7763105034828186,-0.16019469499588013
1761369707489413400,3.043413330078125,0.7343147397041321,-0.8465579152107239,-0.1772984117269516
1761369707508024600,3.062024658203125,0.5644228458404541,-0.8037986159324646,-0.2438807636499405
1761369707526634500,3.080634521484375,0.45202696323394775,-0.6742990016937256,-0.3208475112915039
1761369707545245700,3.09924560546875,0.41354358196258545,-0.4751628041267395,-0.36971530318260193
1761369707563855600,3.117855712890625,0.3970507085323334,-0.27113983035087585,-0.4124746024608612
1761369707582467000,3.136467041015625,0.36284327507019043,-0.1587439328432083,-0.49493899941444397
1761369707601076700,3.15507666015625,0.3115321099758148,-0.20272493362426758,-0.6018372774124146
1761369707619688200,3.173688232421875,0.265718549489975,-0.2815242409706116,-0.6769714951515198
1761369707638298000,3.192298095703125,0.24189551174640656,-0.25647950172424316,-0.6513158679008484
1761369707656909300,3.210909423828125,0.19363857805728912,-0.16424155235290527,-0.5749599933624268
1761369707675519200,3.229519287109375,0.1178935244679451,-0.07444700598716736,-0.48760882019996643
1761369707694130400,3.24813037109375,0.054365407675504684,-0.0035887276753783226,-0.3471139669418335
1761369707712740400,3.266740234375,-0.01710372418165207,0.10514208674430847,-0.15469707548618317
1761369707731351800,3.285351806640625,-0.09834641218185425,0.15645325183868408,0.018249060958623886
1761369707749961500,3.30396142578125,-0.17958909273147583,0.11247225105762482,0.13247749209403992
1761369707768573000,3.322572998046875,-0.30725616216659546,0.03489464893937111,0.19295138120651245
1761369707787182800,3.341182861328125,-0.418430358171463,0.06604786217212677,0.2515927255153656
1761369707805794000,3.3597939453125,-0.4337015450000763,0.17355698347091675,0.33466795086860657
1761369707824404000,3.378404052734375,-0.3762819170951843,0.2749576270580292,0.43057096004486084
1761369707843015200,3.39701513671875,-0.2999260127544403,0.25052374601364136,0.4916556775569916
1761369707861625000,3.415625,-0.21379654109477997,0.16011834144592285,0.5124244689941406
1761369707880236300,3.434236328125,-0.25716668367385864,-0.06223006546497345,0.4495072364807129
1761369707898846200,3.45284619140625,-0.40987852215766907,-0.3218401372432709,0.3707079291343689
1761369707917457700,3.471457763671875,-0.6468872427940369,-0.3853682577610016,0.3022930324077606
1761369707936067300,3.4900673828125,-0.8215895891189575,-0.2931303381919861,0.26075541973114014
1761369707954678800,3.5086787109375,-0.8912261724472046,-0.1477486789226532,0.2375432252883911
1761369707973288400,3.527288330078125,-0.8814526200294495,-0.03840702027082443,0.21616357564926147
1761369707991900000,3.54589990234375,-0.8075400590896606,-0.010918894782662392,0.1721825748682022
1761369708010509800,3.564509765625,-0.7140804529190063,-0.061619218438863754,0.12759071588516235
1761369708029121000,3.58312109375,-0.6187883019447327,-0.11231953650712967,0.11354123055934906
1761369708047731000,3.60173095703125,-0.5430431962013245,-0.14408360421657562,0.12331479042768478
1761369708066342100,3.620342041015625,-0.497229665517807,-0.120871402323246,0.13858596980571747
1761369708084952000,3.6389521484375,-0.49234288930892944,-0.07627955079078674,0.14286190271377563
1761369708103563500,3.6575634765625,-0.53143709897995,-0.036574479192495346,0.13797512650489807
1761369708122173200,3.676173095703125,-0.5790832042694092,0.035505495965480804,0.1214822456240654
1761369708140784600,3.69478466796875,-0.6053496599197388,0.11186140775680542,0.08605311065912247
1761369708159394600,3.71339453125,-0.6016845703125,0.13751699030399323,0.0426829531788826
1761369708178005800,3.732005859375,-0.5815265774726868,0.15034478902816772,0.03901786729693413
1761369708196615700,3.75061572265625,-0.5198310017585754,0.13873867690563202,0.06711684167385101
1761369708215227000,3.769226806640625,-0.35856732726097107,0.20104511082172394,0.12759071588516235
1761369708233836800,3.7878369140625,-0.14171656966209412,0.31649523973464966,0.19295138120651245
1761369708252448000,3.806447998046875,0.022601349279284477,0.3488701283931732,0.20761170983314514
1761369708271058000,3.825057861328125,0.056808795779943466,0.30244573950767517,0.19600561261177063
1761369708289669400,3.84366943359375,0.009773556143045425,0.37208232283592224,0.21066594123840332
1761369708308279000,3.862279052734375,-0.05741964280605316,0.5046361684799194,0.2393757700920105
1761369708326890500,3.880890380859375,-0.04031591862440109,0.5535039901733398,0.31145575642585754
1761369708345500200,3.899500244140625,-0.05741964280605316,0.6335249543190002,0.33833301067352295
1761369708364111600,3.918111572265625,-0.07207997888326645,0.5651100873947144,0.30046048760414124
1761369708382721500,3.936721435546875,-0.11361759155988693,0.39651623368263245,0.22349373996257782
1761369708401332700,3.955332763671875,-0.19180603325366974,0.16317257285118103,0.173404261469841
1761369708419942700,3.973942626953125,-0.25533416867256165,-0.0011453386396169662,0.20394663512706757
1761369708438553900,3.992553955078125,-0.24556060135364532,-0.03718532621860504,0.30046048760414124
1761369708457163800,4.011163818359375,-0.1832541823387146,-0.08910734206438065,0.37437301874160767
1761369708475775200,4.029775146484375,-0.14904673397541046,-0.21921780705451965,0.3432198166847229
1761369708494385000,4.048385009765625,-0.15026842057704926,-0.3975852131843567,0.22227205336093903
1761369708512996400,4.066996337890625,-0.15087927877902985,-0.6132143139839172,0.09032903611660004
1761369708531606000,4.08560595703125,-0.15515519678592682,-0.7427139282226562,0.03352024406194687
1761369708550217500,4.104217529296875,-0.17714570462703705,-0.7011762857437134,0.05978667363524437
1761369708568827100,4.1228271484375,-0.1844758689403534,-0.4067479074001312,0.19478392601013184
1761369708587438600,4.1414384765625,-0.11606097966432571,-0.09032903611660004,0.4214082658290863
1761369708606048500,4.160048583984375,-0.04703523963689804,0.2315874695777893,0.6193227767944336
1761369708624659700,4.17865966796875,-0.022601349279284477,0.269459992647171,0.7078956365585327
1761369708643269600,4.19726953125,-0.04337015375494957,0.14423631131649017,0.72683185338974
1761369708661880800,4.215880859375,-0.07330167293548584,-0.09216158092021942,0.7830298542976379
1761369708680490800,4.23449072265625,-0.17592400312423706,-0.276637464761734,0.8972582817077637
1761369708699102000,4.25310205078125,-0.3054236173629761,-0.41774317622184753,1.0127084255218506
1761369708717712000,4.2717119140625,-0.469741553068161,-0.42812758684158325,1.051802635192871
1761369708736323300,4.2903232421875,-0.7000309824943542,-0.4605024755001068,0.9833877086639404
1761369708754933000,4.30893310546875,-1.0317209959030151,-0.5496861934661865,0.8123505115509033
1761369708773544400,4.32754443359375,-1.433658480644226,-0.640091598033905,0.5441885590553284
1761369708792154400,4.346154296875,-1.7989451885223389,-0.699343740940094,0.19539476931095123
1761369708810765600,4.364765625,-2.0383973121643066,-0.6730773448944092,-0.14186927676200867
1761369708829375500,4.38337548828125,-2.1429286003112793,-0.4977641701698303,-0.37887802720069885
1761369708847986700,4.401986572265625,-2.1001691818237305,-0.19783815741539001,-0.45523393154144287
1761369708866596600,4.4205966796875,-1.9431051015853882,0.10025530308485031,-0.38132140040397644
1761369708885207800,4.439207763671875,-1.712815761566162,0.30672168731689453,-0.19989976286888123
1761369708903817700,4.457817626953125,-1.4861913919448853,0.3085542321205139,0.00786465872079134
1761369708922429000,4.476428955078125,-1.3041589260101318,0.11552648991346359,0.17706935107707977
1761369708941038800,4.495038818359375,-1.1923738718032837,-0.14347274601459503,0.31023404002189636
1761369708959650300,4.513650390625,-1.1966497898101807,-0.3700970709323883,0.44523128867149353
1761369708978260000,4.532260009765625,-1.3292036056518555,-0.5368583798408508,0.565568208694458
1761369708996871400,4.550871337890625,-1.5368916988372803,-0.6541410684585571,0.6724664568901062
1761369709015481000,4.569481201171875,-1.7745113372802734,-0.7689803242683411,0.7714237570762634
1761369709034092500,4.588092529296875,-2.007244110107422,-0.9168053865432739,0.8367843627929688
1761369709052702500,4.606702392578125,-2.1838552951812744,-1.0353097915649414,0.8263999819755554
1761369709071313700,4.625313720703125,-2.2944185733795166,-1.00965416431427,0.7286643981933594
1761369709089923600,4.643923583984375,-2.393986701965332,-0.9003124833106995,0.5625139474868774
1761369709108534800,4.66253466796875,-2.648710012435913,-1.0261470079421997,0.3200076222419739
1761369709127144700,4.681144775390625,-3.15998911857605,-1.3767733573913574,-0.010537114925682545
1761369709145756000,4.699755859375,-3.7439591884613037,-1.6535634994506836,-0.3367295563220978
1761369709164365800,4.71836572265625,-4.161778926849365,-1.5759859085083008,-0.5273138880729675
1761369709182977300,4.736977294921875,-4.148951053619385,-1.1782480478286743,-0.4815003573894501
1761369709201587000,4.7555869140625,-3.8123741149902344,-0.6046624183654785,-0.2945810854434967
1761369709220198400,4.774198486328125,-3.2015268802642822,-0.120871402323246,-0.056961506605148315
1761369709238808000,4.79280810546875,-2.53509259223938,0.21265120804309845,0.1080436110496521
1761369709257419500,4.81141943359375,-2.0616095066070557,0.3103867769241333,0.1599656194448471
1761369709276029200,4.830029296875,-1.7726787328720093,0.24197186529636383,0.16668494045734406
1761369709294640600,4.848640625,-1.6236320734024048,0.16072918474674225,0.1740151196718216
1761369709313250600,4.86725048828125,-1.5973656177520752,0.15645325183868408,0.20455747842788696
1761369709331861800,4.88586181640625,-1.669445514678955,0.13690614700317383,0.227769672870636
1761369709350471700,4.9044716796875,-1.8380393981933594,0.04772244393825531,0.23571068048477173
1761369709369083000,4.923082763671875,-1.9913620948791504,-0.0420721061527729,0.27236151695251465
1761369709387692800,4.94169287109375,-1.9815884828567505,-0.09277242422103882,0.3334462344646454
1761369709406304000,4.960303955078125,-1.84109365940094,-0.12331479042768478,0.3713187873363495
1761369709424914000,4.978913818359375,-1.6315730810165405,-0.1611873209476471,0.39025503396987915
1761369709443525000,4.997525146484375,-1.4354910850524902,-0.23387815058231354,0.43057096004486084
1761369709462135000,5.016135009765625,-1.313321590423584,-0.3603235185146332,0.5167004466056824
1761369709480746500,5.03474658203125,-1.281557559967041,-0.4580591022968292,0.6358156204223633
1761369709499356200,5.053356201171875,-1.3401988744735718,-0.5002075433731079,0.722555935382843
1761369709517967600,5.071967529296875,-1.4629791975021362,-0.5228089094161987,0.7323294878005981
1761369709536577300,5.090577392578125,-1.61874520778656,-0.5790068507194519,0.621155321598053
1761369709555188700,5.109188720703125,-1.7751221656799316,-0.7011762857437134,0.3926984369754791
1761369709573798400,5.12779833984375,-1.9748691320419312,-0.782418966293335,0.07689040154218674
1761369709592409900,5.146409912109375,-2.1410961151123047,-0.8355627059936523,-0.21944688260555267
1761369709611019500,5.16501953125,-2.173470973968506,-0.9015341997146606,-0.3758237659931183
1761369709629631000,5.183630859375,-2.168584108352661,-0.9223030209541321,-0.4106420576572418
1761369709648240600,5.20224072265625,-2.1172728538513184,-0.986441969871521,-0.39476004242897034
1761369709666852000,5.22085205078125,-1.9650956392288208,-1.1012812852859497,-0.38132140040397644
1761369709685462000,5.2394619140625,-1.721367597579956,-1.0065999031066895,-0.32512345910072327
1761369709704073200,5.2580732421875,-1.3353121280670166,-0.4085804522037506,-0.1247655525803566
1761369709722683100,5.27668310546875,-1.0231691598892212,0.1790546029806137,0.10132429003715515
1761369709741294300,5.29529443359375,-0.9602518677711487,0.5083012580871582,0.19783815741539001
1761369709759904300,5.313904296875,-0.9504783153533936,0.8045622110366821,0.2613662779331207
1761369709778515500,5.332515380859375,-0.8845068216323853,0.7837933897972107,0.3957526683807373
1761369709797125400,5.35112548828125,-0.6914790868759155,0.7428666353225708,0.6229878664016724
1761369709815736600,5.369736572265625,-0.7250757217407227,0.6958313584327698,0.7903599739074707
1761369709834346500,5.388346435546875,-0.9633061289787292,0.9108496308326721,0.9681165218353271
1761369709852958000,5.4069580078125,-1.1331216096878052,0.923677384853363,0.9302440285682678
1761369709871567600,5.425567626953125,-1.064706802368164,0.29328304529190063,0.7213342785835266
1761369709890179000,5.444178955078125,-0.9119949340820312,-0.0231358390301466,0.5564054846763611
1761369709908788700,5.462788818359375,-0.754396378993988,0.05199837312102318,0.5924454927444458
1761369709927400200,5.481400146484375,-0.7140804529190063,0.23525254428386688,0.7524874806404114
1761369709946009900,5.500009765625,-0.7336275577545166,0.4166741967201233,0.8997016549110413
1761369709964621300,5.518621337890625,-0.7391251921653748,0.5199073553085327,0.9760575890541077
1761369709983231200,5.537231201171875,-0.8050966858863831,0.5315134525299072,0.958342969417572
1761369710001842400,5.555842529296875,-0.8576295375823975,0.5315134525299072,0.9247463941574097
1761369710020452400,5.574452392578125,-0.9242119193077087,0.6115344762802124,0.8777111768722534
1761369710039063600,5.5930634765625,-1.0219475030899048,0.6304707527160645,0.7689803242683411
1761369710057673500,5.611673583984375,-1.1123528480529785,0.5492280125617981,0.6009973287582397
1761369710076284700,5.63028466796875,-1.1202938556671143,0.4258368909358978,0.38903334736824036
1761369710094894600,5.64889453125,-1.0610417127609253,0.17783290147781372,0.1593547761440277
1761369710113505800,5.667505859375,-1.032942771911621,-0.2253262847661972,-0.02641914412379265
1761369710132115700,5.68611572265625,-1.086086392402649,-0.569844126701355,-0.09361234307289124
1761369710150727000,5.704726806640625,-1.1893196105957031,-0.671855628490448,-0.07589777559041977
1761369710169336800,5.7233369140625,-1.3114891052246094,-0.7524874806404114,-0.09483403712511063
1761369710187948000,5.741947998046875,-1.494132399559021,-0.9833877086639404,-0.2279987335205078
1761369710206558000,5.760557861328125,-1.6804407835006714,-1.0420290231704712,-0.36543938517570496
1761369710225169400,5.77916943359375,-1.8612515926361084,-0.8679376244544983,-0.3984251320362091
1761369710243779000,5.797779052734375,-1.8893505334854126,-0.44156619906425476,-0.2408265322446823
1761369710262390500,5.816390625,-1.6871601343154907,0.09109259396791458,0.09277242422103882
1761369710281000200,5.835000244140625,-1.4452645778656006,0.5364002585411072,0.4366794228553772
1761369710299611600,5.853611572265625,-1.2216944694519043,0.7233195304870605,0.5924454927444458
1761369710318221300,5.87222119140625,-0.9816315174102783,0.6830036044120789,0.5344150066375732
1761369710336832800,5.890832763671875,-0.7501204609870911,0.5736619234085083,0.3853682577610016
1761369710355442400,5.9094423828125,-0.6114581227302551,0.5113555192947388,0.23693238198757172
1761369710374054000,5.928053955078125,-0.5595360994338989,0.5076904296875,0.13858596980571747
1761369710392663600,5.94666357421875,-0.5338805317878723,0.3641413152217865,0.09032903611660004
1761369710411275000,5.96527490234375,-0.5015056133270264,0.07826480269432068,0.10071343928575516
1761369710429885000,5.983885009765625,-0.4837910234928131,-0.23143476247787476,0.16668494045734406
1761369710448496000,6.00249609375,-0.4978405237197876,-0.40552622079849243,0.2803025245666504
1761369710467105800,6.021105712890625,-0.5515950918197632,-0.4501180648803711,0.39330926537513733
1761369710485717200,6.03971728515625,-0.6193991303443909,-0.3279486298561096,0.46722179651260376
1761369710504327200,6.0583271484375,-0.6548282504081726,-0.0817771777510643,0.5026509165763855
1761369710522938400,6.0769384765625,-0.6413896083831787,0.13812783360481262,0.4488963782787323
1761369710541548300,6.09554833984375,-0.5949652194976807,0.18760646879673004,0.3010713458061218
1761369710560159500,6.114159423828125,-0.49356457591056824,0.04772244393825531,0.13919681310653687
1761369710578769400,6.132769287109375,-0.3524588644504547,-0.1862320601940155,0.03596363216638565
1761369710597380600,6.151380615234375,-0.2596100866794586,-0.3798706531524658,-0.010537114925682545
1761369710615990500,6.169990478515625,-0.25350162386894226,-0.5289173722267151,-0.06368082761764526
1761369710634601700,6.188601806640625,-0.31947311758995056,-0.5557946562767029,-0.11499200016260147
1761369710653211600,6.207211669921875,-0.3927747905254364,-0.5967214107513428,-0.10277505218982697
1761369710671822800,6.22582275390625,-0.42514967918395996,-0.7201125621795654,0.008475505746901035
1761369710690432800,6.244432861328125,-0.3408527672290802,-0.8331193327903748,0.12881241738796234
1761369710709044000,6.2630439453125,-0.16615045070648193,-0.8563315272331238,0.14958122372627258
1761369710727654000,6.28165380859375,0.053143709897994995,-0.7573742270469666,0.043293800204992294
1761369710746265000,6.30026513671875,0.2877090573310852,-0.565568208694458,-0.13209572434425354
1761369710764875000,6.318875,0.4587462842464447,-0.3438306450843811,-0.35505497455596924
1761369710783486200,6.337486328125,0.5570927262306213,-0.173404261469841,-0.5853443741798401
1761369710802096000,6.35609619140625,0.5723638534545898,-0.08971819281578064,-0.7710419297218323
1761369710820707600,6.37470751953125,0.49295374751091003,-0.02435753494501114,-0.8840487003326416
1761369710839317200,6.393317138671875,0.38544461131095886,-0.04879142343997955,-0.9451334476470947
1761369710857928700,6.4119287109375,0.29687178134918213,-0.12514732778072357,-0.9659022092819214
1761369710876538400,6.430538330078125,0.23151111602783203,-0.22349373996257782,-0.9206995368003845
1761369710895149800,6.44914990234375,0.19058434665203094,-0.2112767994403839,-0.775317907333374
1761369710913759500,6.467759521484375,0.182643324136734,-0.173404261469841,-0.5780141949653625
1761369710932371000,6.486370849609375,0.17653486132621765,-0.16424155235290527,-0.36971530318260193
1761369710950980600,6.504980712890625,0.15454435348510742,-0.14408360421657562,-0.16813570261001587
1761369710969592000,6.523592041015625,0.12522368133068085,-0.08666395395994186,0.0017561858985573053
1761369710988201700,6.54220166015625,0.09773556143045425,-0.0017561858985573053,0.1624090075492859
1761369711006813200,6.560813232421875,0.0781884491443634,0.00129805039614439,0.357269287109375
1761369711025422800,6.5794228515625,0.11483928561210632,-0.043293800204992294,0.6266529560089111
1761369711044034300,6.598034423828125,0.21501824259757996,0.014736690558493137,0.9510128498077393
1761369711062644000,6.61664404296875,0.36223241686820984,0.3354314863681793,1.2527713775634766
1761369711081255400,6.63525537109375,0.4850127100944519,0.6469635963439941,1.3645564317703247
1761369711099865000,6.653864990234375,0.5821374654769897,0.6005392074584961,1.1226608753204346
1761369711118476500,6.6724765625,0.5796940326690674,0.29267218708992004,0.593667209148407
1761369711137086200,6.691086181640625,0.4190412163734436,0.2468586415052414,0.13980767130851746
1761369711155697700,6.70969775390625,0.22051586210727692,0.4979168772697449,0.04023956134915352
1761369711174307300,6.728307373046875,0.1435490995645523,0.8167791366577148,0.18317782878875732
1761369711192918800,6.746918701171875,0.24556060135364532,0.9536089301109314,0.2912977933883667
1761369711211528400,6.765528564453125,0.49234288930892944,0.8210550546646118,0.32550522685050964
1761369711230140000,6.784139892578125,0.7410340905189514,0.503414511680603,0.36337774991989136
1761369711248749800,6.802749755859375,0.9322292804718018,0.14729054272174835,0.4488963782787323
1761369711267361000,6.821361083984375,1.0030875205993652,-0.08910734206438065,0.5289173722267151
1761369711285970700,6.839970703125,0.8845831751823425,-0.20272493362426758,0.4886014461517334
1761369711304582100,6.85858203125,0.5809157490730286,-0.3432198166847229,0.30046048760414124
1761369711323192000,6.877192138671875,0.12094775587320328,-0.5435777306556702,-0.00015271181473508477
1761369711341803300,6.89580322265625,-0.30664533376693726,-0.6413132548332214,-0.3104631304740906
1761369711360413200,6.9144130859375,-0.5796940326690674,-0.5631248354911804,-0.4937172830104828
1761369711379024400,6.9330244140625,-0.6896465420722961,-0.27236151695251465,-0.4540122151374817
1761369711397634300,6.95163427734375,-0.6389462351799011,0.09414683282375336,-0.2420482337474823
1761369711416245500,6.97024560546875,-0.47951510548591614,0.4160633385181427,0.01763821393251419
1761369711434855400,6.98885546875,-0.2754921019077301,0.60909104347229,0.21616357564926147
1761369711453466600,7.007466552734375,-0.14110571146011353,0.6164212226867676,0.32367268204689026
1761369711472076500,7.02607666015625,-0.05131116881966591,0.5748836398124695,0.37681639194488525
1761369711490687700,7.044687744140625,-0.012827792204916477,0.5199073553085327,0.36521029472351074
1761369711509297700,7.063297607421875,-0.05497625470161438,0.46065518260002136,0.29984965920448303
1761369711527908900,7.081908935546875,-0.1716480851173401,0.3641413152217865,0.2008923888206482
1761369711546518800,7.100518798828125,-0.34940463304519653,0.22853323817253113,0.08666395395994186
1761369711565130000,7.1191298828125,-0.5790832042694092,0.08437328040599823,-0.03497100621461868
1761369711583740000,7.137739990234375,-0.8203678727149963,-0.04634803533554077,-0.15408621728420258
1761369711602351000,7.15635107421875,-0.9999569654464722,-0.12026055157184601,-0.22433365881443024
1761369711620961000,7.1749609375,-1.1086877584457397,-0.16363070905208588,-0.20661908388137817
1761369711639572200,7.193572265625,-1.1215155124664307,-0.2002815455198288,-0.10521844029426575
1761369711658182100,7.21218212890625,-1.0280559062957764,-0.2815242409706116,0.034131091088056564
1761369711676793300,7.23079345703125,-0.8814526200294495,-0.3859791159629822,0.17645850777626038
1761369711695403300,7.2494033203125,-0.7220214605331421,-0.46966519951820374,0.36521029472351074
1761369711714014500,7.268014404296875,-0.5766398310661316,-0.45561569929122925,0.5881695747375488
1761369711732624400,7.286624267578125,-0.4575245976448059,-0.37803810834884644,0.8050203323364258
1761369711751235600,7.305235595703125,-0.3787252902984619,-0.31023404002189636,0.9656731486320496
1761369711769845500,7.323845458984375,-0.31825143098831177,-0.22899135947227478,1.0750148296356201
1761369711788456700,7.342456787109375,-0.25655585527420044,-0.14041851460933685,1.1134982109069824
1761369711807066600,7.361066650390625,-0.2095206081867218,-0.11720632016658783,1.0395857095718384
1761369711825677800,7.379677734375,-0.183865025639534,-0.11903885751962662,0.8807653784751892
1761369711844287700,7.398287841796875,-0.24128466844558716,-0.1990598440170288,0.652919352054596
1761369711862899000,7.41689892578125,-0.39827242493629456,-0.30412557721138,0.4116346836090088
1761369711881508900,7.4355087890625,-0.5967977643013,-0.34871742129325867,0.24548424780368805
1761369711900120000,7.4541201171875,-0.7091936469078064,-0.352993369102478,0.1996707022190094
1761369711918730000,7.47272998046875,-0.7024743556976318,-0.29679539799690247,0.30046048760414124
1761369711937341200,7.491341064453125,-0.5564818382263184,-0.16363070905208588,0.5038726329803467
1761369711955951000,7.509951171875,-0.3170297145843506,0.019623467698693275,0.676131546497345
1761369711974562300,7.528562255859375,-0.08796200156211853,0.17172443866729736,0.7133932709693909
1761369711993172200,7.547172119140625,0.08124268800020218,0.2688491642475128,0.6156576871871948
1761369712011783400,7.565783447265625,0.18630841374397278,0.27617931365966797,0.44095537066459656
1761369712030393300,7.584393310546875,0.18691925704479218,0.12407834827899933,0.21860696375370026
1761369712049004500,7.603004638671875,0.07269082218408585,-0.12331479042768478,0.0035887276753783226
1761369712067614500,7.621614501953125,-0.14049486815929413,-0.34932827949523926,-0.12659808993339539
1761369712086225700,7.6402255859375,-0.35795649886131287,-0.44523128867149353,-0.07834116369485855
1761369712104835600,7.658835693359375,-0.4715740978717804,-0.32367268204689026,0.16485241055488586
1761369712123446800,7.67744677734375,-0.41415444016456604,-0.15568970143795013,0.47943875193595886
1761369712142056700,7.696056640625,-0.21990501880645752,0.015347537584602833,0.6651363372802734
1761369712160668000,7.71466796875,-0.0012216945178806782,0.14484715461730957,0.6297071576118469
1761369712179277800,7.73327783203125,0.1820324808359146,0.2065427303314209,0.45378315448760986
1761369712197889000,7.751888916015625,0.314586341381073,0.22792237997055054,0.26197710633277893
1761369712216499000,7.7704990234375,0.3695625960826874,0.24808034300804138,0.13125580549240112
1761369712235110100,7.789110107421875,0.3304683566093445,0.22608983516693115,0.0561215914785862
1761369712253720000,7.807719970703125,0.25350162386894226,0.14362546801567078,0.022524992004036903
1761369712272331300,7.826331298828125,0.17348061501979828,0.02817532978951931,0.026190076023340225
1761369712290941200,7.844941162109375,0.09407047927379608,-0.030466007068753242,0.07444700598716736
1761369712309552400,7.863552490234375,0.03420744836330414,-0.035352785140275955,0.12881241738796234
1761369712328162000,7.882162109375,-0.020157959312200546,-0.011529741808772087,0.13736428320407867
1761369712346773500,7.9007734375,-0.04153761267662048,0.0293970238417387,0.09032903611660004
1761369712365383400,7.919383544921875,-0.06352811306715012,0.09720107167959213,0.02802261710166931
1761369712383994600,7.93799462890625,-0.04459185153245926,0.1821088343858719,-0.011147962883114815
1761369712402604300,7.956604248046875,0.005497625097632408,0.30733251571655273,-0.03374931216239929
1761369712421215700,7.9752158203125,0.028098974376916885,0.3507026731967926,-0.06490252166986465
1761369712439825700,7.99382568359375,0,0.33298811316490173,-0.09483403712511063
1761369712458436900,8.012436767578125,-0.07330167293548584,0.3128301501274109,-0.07406523078680038
1761369712477046500,8.031046630859375,-0.1704263836145401,0.26518407464027405,0.02924431301653385
1761369712495658000,8.049657958984374,-0.2602209448814392,0.29206135869026184,0.17645850777626038
1761369712514267600,8.068267578125,-0.36039987206459045,0.21142950654029846,0.21677441895008087
1761369712532879000,8.086879150390626,-0.4990622103214264,-0.03901786729693413,0.11231953650712967
1761369712551488800,8.10548876953125,-0.5558710098266602,0.06543701142072678,0.03168770298361778
1761369712570100200,8.124100341796876,-0.5644228458404541,0.14851224422454834,-0.010537114925682545
1761369712588710000,8.1427099609375,-0.49295374751091003,0.2859528660774231,0.010918894782662392
1761369712607321300,8.1613212890625,-0.3384093940258026,0.4417189359664917,0.07750124484300613
1761369712625931000,8.179930908203126,-0.1704263836145401,0.5522822737693787,0.1330883502960205
1761369712644542500,8.19854248046875,-0.04825693368911743,0.5901548266410828,0.1355317384004593
1761369712663152000,8.217152099609375,0.05803048983216286,0.4948626458644867,0.06772769242525101
1761369712681763600,8.235763671875,0.1185043677687645,0.26701661944389343,-0.10949437320232391
1761369712700373200,8.254373291015625,0.07635590434074402,-0.06284090876579285,-0.3868190348148346
1761369712718984700,8.272984619140624,-0.020157959312200546,-0.36459946632385254,-0.5804576277732849
1761369712737594400,8.291594482421875,-0.10323318839073181,-0.39330926537513733,-0.5150969624519348
1761369712756205800,8.310205810546876,-0.1429382562637329,-0.16729579865932465,-0.2786990702152252
1761369712774815500,8.3288154296875,0.01954711228609085,0.1271325796842575,0.07566870748996735
1761369712793427000,8.347427001953125,0.21623992919921875,0.3238253891468048,0.28580015897750854
1761369712812036600,8.36603662109375,0.37689274549484253,0.31954947113990784,0.2748049199581146
1761369712830648000,8.38464794921875,0.444085955619812,0.09292513877153397,0.08055548369884491
1761369712849257700,8.4032578125,0.3805578351020813,-0.1343100368976593,-0.15591876208782196
1761369712867869200,8.421869140625,0.2730487287044525,-0.2656421959400177,-0.2786990702152252
1761369712886478800,8.440478759765625,0.20524467527866364,-0.3016822040081024,-0.23410721123218536
1761369712905090300,8.45909033203125,0.1557660549879074,-0.20639002323150635,-0.0844496339559555
1761369712923700000,8.477699951171875,0.13560809195041656,-0.09704835712909698,0.07322531193494797
1761369712942311400,8.4963115234375,0.13621893525123596,-0.08971819281578064,0.17035003006458282
1761369712960921000,8.514921142578125,0.1313321590423584,-0.14286190271377563,0.1856212168931961
1761369712979532500,8.533532470703125,0.09590301662683487,-0.1587439328432083,0.14041851460933685
1761369712998142200,8.55214208984375,0.02076880633831024,-0.13064496219158173,0.08483141660690308
1761369713016753400,8.57075341796875,-0.053143709897994995,-0.09032903611660004,0.05428905040025711
1761369713035363300,8.58936328125,-0.08002099394798279,-0.06467345356941223,0.05734328553080559
1761369713053974800,8.607974853515625,-0.06352811306715012,-0.03718532621860504,0.07689040154218674
1761369713072584400,8.62658447265625,-0.025655584409832954,0.03306210786104202,0.07322531193494797
1761369713091195600,8.645195556640624,-0.00916270911693573,0.09475768357515335,0.0017561858985573053
1761369713109805600,8.6638056640625,-0.0036650835536420345,0.11552648991346359,-0.13514995574951172
1761369713128416800,8.682416748046874,-0.08368607610464096,0.06360447406768799,-0.28969430923461914
1761369713147026700,8.701026611328125,-0.26755109429359436,-0.06467345356941223,-0.4143071472644806
1761369713165638000,8.719637939453126,-0.4563029110431671,-0.15568970143795013,-0.5138752460479736
1761369713184247800,8.738247802734374,-0.5473191738128662,-0.1220930963754654,-0.5419742465019226
1761369713202859000,8.75685888671875,-0.5216635465621948,0.04283566400408745,-0.3978142738342285
1761369713221469000,8.775468994140626,-0.41110020875930786,0.19982340931892395,-0.12965233623981476
1761369713240080100,8.794080078125,-0.29320669174194336,0.18577392399311066,0.0683385357260704
1761369713258690000,8.81268994140625,-0.21501824259757996,0.011682453565299511,0.11964970827102661
1761369713277301200,8.83130126953125,-0.18569757044315338,-0.1336991935968399,0.1721825748682022
1761369713295911200,8.8499111328125,-0.23151111602783203,-0.21555273234844208,0.2503710091114044
1761369713314522400,8.8685224609375,-0.2858765125274658,-0.18989713490009308,0.2882435619831085
1761369713333132300,8.88713232421875,-0.3408527672290802,-0.17890189588069916,0.23021306097507477
1761369713351743500,8.905743408203126,-0.43614494800567627,-0.2540360987186432,0.06711684167385101
1761369713370353400,8.924353515625,-0.554649293422699,-0.37742725014686584,-0.12110047042369843
1761369713388964600,8.942964599609375,-0.6542174220085144,-0.49470990896224976,-0.252432644367218
1761369713407574500,8.961574462890624,-0.7049177289009094,-0.5747309327125549,-0.27625566720962524
1761369713426185700,8.980185791015625,-0.7110261917114258,-0.542356014251709,-0.18035265803337097
1761369713444795600,8.998795654296876,-0.6462764143943787,-0.3859791159629822,-0.0038177953101694584
1761369713463406800,9.01740673828125,-0.49112120270729065,-0.25647950172424316,0.18501035869121552
1761369713482016500,9.0360166015625,-0.32069480419158936,-0.22960221767425537,0.3163425326347351
1761369713500628000,9.0546279296875,-0.18753011524677277,-0.2644205093383789,0.3670428395271301
1761369713519238000,9.07323779296875,-0.12339114397764206,-0.2674747407436371,0.36459946632385254
1761369713537849000,9.09184912109375,-0.1423274129629135,-0.18989713490009308,0.3542150557041168
1761369713556458800,9.110458740234375,-0.24311721324920654,-0.120871402323246,0.31145575642585754
1761369713575070200,9.1290703125,-0.4190412163734436,-0.1874537467956543,0.22899135947227478
1761369713593680000,9.147679931640624,-0.6505523324012756,-0.4238516390323639,0.12392564117908478
1761369713612291300,9.166291259765625,-0.869235634803772,-0.6474217176437378,0.024968381971120834
1761369713630901000,9.18490087890625,-1.0072871446609497,-0.7775322198867798,-0.017867282032966614
1761369713649512400,9.203512451171875,-1.0537115335464478,-0.8404494524002075,0.06100837141275406
1761369713668122000,9.2221220703125,-0.9895725846290588,-0.7567633986473083,0.2558686435222626
1761369713686733600,9.240733642578125,-0.813648521900177,-0.5557946562767029,0.44339874386787415
1761369713705343200,9.25934326171875,-0.5876350402832031,-0.36215606331825256,0.489212304353714
1761369713723954700,9.27795458984375,-0.38422292470932007,-0.22410458326339722,0.3694862425327301
1761369713742564400,9.296564453125,-0.23212195932865143,-0.21005509793758392,0.16301986575126648
1761369713761175800,9.31517578125,-0.15515519678592682,-0.2803025245666504,0.0017561858985573053
1761369713779785500,9.333785400390624,-0.14904673397541046,-0.3151208162307739,-0.046577103435993195
1761369713798397000,9.35239697265625,-0.20707722008228302,-0.32733777165412903,-0.02092151902616024
1761369713817006600,9.371006591796874,-0.33474430441856384,-0.35116082429885864,0.023746687918901443
1761369713835618000,9.3896181640625,-0.48928865790367126,-0.329781174659729,0.0823880210518837
1761369713854227700,9.408227783203126,-0.610236406326294,-0.21677441895008087,0.13736428320407867
1761369713872839000,9.4268388671875,-0.6737645268440247,-0.06100837141275406,0.14469444751739502
1761369713891448800,9.44544873046875,-0.6432221531867981,0.06665870547294617,0.11964970827102661
1761369713910060000,9.46406005859375,-0.5467082858085632,0.17722205817699432,0.1330883502960205
1761369713928670000,9.482669921875,-0.42576053738594055,0.3012240529060364,0.19295138120651245
1761369713947281200,9.50128125,-0.3286358118057251,0.3403182923793793,0.227769672870636
1761369713965891000,9.51989111328125,-0.28282228112220764,0.28961795568466187,0.17584764957427979
1761369713984502300,9.538502197265625,-0.31825143098831177,0.09231429547071457,0.021914144977927208
1761369714003112200,9.5571123046875,-0.4318690001964569,-0.12392564117908478,-0.1522536724805832
1761369714021723400,9.575723388671875,-0.6029062271118164,-0.19478392601013184,-0.26037365198135376
1761369714040333300,9.594333251953126,-0.7690566778182983,-0.1984490007162094,-0.23777230083942413
1761369714058944500,9.612944580078125,-0.833195686340332,-0.10010259598493576,-0.1119377613067627
1761369714077554400,9.631554443359375,-0.7769976854324341,0.014125842601060867,-0.001985253533348441
1761369714096165600,9.65016552734375,-0.6548282504081726,0.17050273716449738,0.009697199799120426
1761369714114775600,9.668775634765625,-0.4960079789161682,0.2602972984313965,-0.051463883370161057
1761369714133386800,9.68738671875,-0.32069480419158936,0.1924932450056076,-0.07650861889123917
1761369714151996700,9.70599658203125,-0.1692046970129013,0.18943901360034943,-0.008093725889921188
1761369714170607900,9.72460791015625,-0.023823043331503868,0.20226679742336273,0.10376767814159393
1761369714189217800,9.7432177734375,0.08857285231351852,0.15217731893062592,0.16424155235290527
1761369714207829000,9.7618291015625,0.13499724864959717,0.05138752609491348,0.12636902928352356
1761369714226438700,9.780438720703126,0.12522368133068085,-0.19172967970371246,0.021914144977927208
1761369714245050000,9.799050048828125,0.06169557198882103,-0.3963635265827179,-0.07406523078680038
1761369714263659800,9.81765966796875,-0.04031591862440109,-0.5771743059158325,-0.12171131372451782
1761369714282271200,9.836271240234375,-0.16553960740566254,-0.597943127155304,-0.06490252166986465
1761369714300881000,9.854880859375,-0.26694026589393616,-0.46661093831062317,0.005421269219368696
1761369714319492400,9.873492431640624,-0.288930743932724,-0.3853682577610016,0.04390464723110199
1761369714338102000,9.89210205078125,-0.24494975805282593,-0.29740625619888306,0.06100837141275406
1761369714356713500,9.91071337890625,-0.17897824943065643,-0.2143310308456421,0.05123481526970863
1761369714375323100,9.9293232421875,-0.13560809195041656,-0.21799612045288086,0.04940227046608925
1761369714393934600,9.9479345703125,-0.16492876410484314,-0.19600561261177063,0.06039752438664436
1761369714412544300,9.966544189453124,-0.208298921585083,-0.08299887180328369,0.08544225990772247
1761369714431155700,9.98515576171875,-0.2620534598827362,0.0489441379904747,0.1336991935968399
1761369714449765400,10.003765380859376,-0.3512371778488159,0.12163496017456055,0.2015032321214676
1761369714468376600,10.02237646484375,-0.4294256269931793,0.09109259396791458,0.24792763590812683
1761369714486986500,10.040986572265625,-0.4734066128730774,0.006184828467667103,0.24120831489562988
1761369714505597700,10.05959765625,-0.5051707029342651,-0.14958122372627258,0.18439951539039612
1761369714524207600,10.07820751953125,-0.5754181146621704,-0.3328354060649872,0.1465269923210144
1761369714542818800,10.09681884765625,-0.6927008032798767,-0.41468894481658936,0.20944425463676453
1761369714561428700,10.1154287109375,-0.8215895891189575,-0.40063944458961487,0.3053472638130188
1761369714580040000,10.1340400390625,-0.8826742768287659,-0.22410458326339722,0.35116082429885864
1761369714598649900,10.15264990234375,-0.8875610828399658,-0.09277242422103882,0.27419406175613403
1761369714617261000,10.171260986328125,-0.9052756428718567,-0.07322531193494797,0.11537377536296844
1761369714635871000,10.18987109375,-0.9211576581001282,0.02023431472480297,0.029855160042643547
1761369714654482200,10.208482177734375,-0.9248227477073669,0.13507360219955444,0.023746687918901443
1761369714673092000,10.227092041015625,-0.9223793745040894,0.1020878478884697,0.02802261710166931
1761369714691703300,10.245703369140625,-0.9339854717254639,-0.004810422193259001,0.020692450925707817
1761369714710313200,10.264313232421875,-0.9578084945678711,-0.11415208131074905,-0.01969982497394085
1761369714728924400,10.28292431640625,-0.9736905097961426,-0.17890189588069916,-0.08139539510011673
1761369714747534000,10.3015341796875,-0.9242119193077087,-0.13125580549240112,-0.06368082761764526
1761369714766145500,10.3201455078125,-0.7879929542541504,0.0165692325681448,0.07811209559440613
1761369714784755200,10.338755126953124,-0.578472375869751,0.1796654462814331,0.2650313675403595
1761369714803366700,10.35736669921875,-0.3799470067024231,0.2193705290555954,0.4195757210254669
1761369714821976300,10.375976318359376,-0.3005368411540985,0.14484715461730957,0.49593162536621094
1761369714840587800,10.394587890625,-0.33230090141296387,0.1020878478884697,0.47088688611984253
1761369714859197400,10.413197509765626,-0.43797749280929565,0.06971294432878494,0.33833301067352295
1761369714877809000,10.431808837890625,-0.5644228458404541,0.07093463838100433,0.1599656194448471
1761369714896418600,10.45041845703125,-0.6395570635795593,0.14362546801567078,0.029855160042643547
1761369714915029800,10.46902978515625,-0.6426113247871399,0.22792237997055054,-0.023975754156708717
1761369714933639700,10.4876396484375,-0.5845808386802673,0.26396235823631287,0.0023670331574976444
1761369714952251000,10.5062509765625,-0.4953971207141876,0.29328304529190063,0.06467345356941223
1761369714970860800,10.52486083984375,-0.393385648727417,0.25235626101493835,0.10437852889299393
1761369714989472000,10.543471923828125,-0.31886225938796997,0.13263021409511566,0.14347274601459503
1761369715008082000,10.56208203125,-0.25289076566696167,0.04650074616074562,0.24548424780368805
1761369715026693000,10.580693115234375,-0.17775654792785645,-0.011529741808772087,0.3939201235771179
1761369715045303000,10.599302978515626,-0.1423274129629135,-0.08299887180328369,0.51425701379776
1761369715063914200,10.617914306640625,-0.15026842057704926,-0.17951273918151855,0.5234197378158569
1761369715082524200,10.636524169921875,-0.16553960740566254,-0.23265644907951355,0.46783265471458435
1761369715101135400,10.65513525390625,-0.17714570462703705,-0.2015032321214676,0.40369367599487305
1761369715119745000,10.6737451171875,-0.18936264514923096,-0.15019206702709198,0.3798706531524658
1761369715138356500,10.6923564453125,-0.23884128034114838,-0.13675342500209808,0.4116346836090088
1761369715156966100,10.710966064453125,-0.29565006494522095,-0.1477486789226532,0.4721085727214813
1761369715175577600,10.72957763671875,-0.32252734899520874,-0.12881241738796234,0.5167004466056824
1761369715194187300,10.748187255859374,-0.3292466700077057,-0.04818057641386986,0.5063160061836243
1761369715212798700,10.766798828125,-0.34818294644355774,0.0067956759594380856,0.4531722962856293
1761369715231408400,10.785408447265626,-0.39888325333595276,0.009849912486970425,0.3823140263557434
1761369715250019600,10.80401953125,-0.41048935055732727,-0.013362283818423748,0.3187859058380127
1761369715268629500,10.82262939453125,-0.36162158846855164,0.10514208674430847,0.3218401372432709
1761369715287240700,10.84124072265625,-0.2993151545524597,0.16378341615200043,0.3413872718811035
1761369715305850600,10.8598505859375,-0.2767138183116913,0.10575293004512787,0.30962321162223816
1761369715324461800,10.8784619140625,-0.21501824259757996,0.12224581092596054,0.29557371139526367
1761369715343071700,10.89707177734375,-0.19241689145565033,0.09414683282375336,0.32428354024887085
1761369715361683000,10.915682861328126,-0.20280128717422485,0.09109259396791458,0.36093437671661377
1761369715380292900,10.93429296875,-0.16492876410484314,0.04405735805630684,0.3719296157360077
1761369715398904000,10.952904052734375,-0.14782503247261047,-0.1074327602982521,0.4073587656021118
1761369715417514000,10.971513916015626,-0.10384403169155121,-0.36582115292549133,0.29679539799690247
1761369715436124400,10.99012451171875,-0.023212196305394173,-0.45683738589286804,0.10437852889299393
1761369715454734300,11.008734375,-0.046424392610788345,-0.37620556354522705,-0.0844496339559555
1761369715473345500,11.027345458984374,-0.08857285231351852,-0.34810659289360046,-0.23960483074188232
