time,seconds_elapsed,z,y,x
1761371104896999400,0.20599951171875,-0.7336275577545166,1.2163496017456055,0.28335678577423096
1761371104915610600,0.224610595703125,-0.7043069005012512,1.213295340538025,0.11293038725852966
1761371104934223400,0.243223388671875,-0.6731536984443665,1.2346750497817993,-0.05085303261876106
1761371104952834300,0.261834228515625,-0.6676560640335083,1.2572764158248901,-0.22005772590637207
1761371104971447000,0.280447021484375,-0.6468872427940369,1.1057099103927612,-0.3739912211894989
1761371104990058200,0.299058349609375,-0.6169557571411133,0.8125032186508179,-0.4534013867378235
1761371105008670700,0.317670654296875,-0.6383354067802429,0.3653630316257477,-0.4894413650035858
1761371105027282000,0.336281982421875,-0.6615476012229919,0.24380441009998322,-0.49860408902168274
1761371105045894400,0.354894287109375,-0.6236750483512878,0.5260158181190491,-0.47111594676971436
1761371105064505600,0.373505615234375,-0.5369347333908081,0.660402238368988,-0.4534013867378235
1761371105083118300,0.392118408203125,-0.5002838969230652,0.6151995658874512,-0.439351886510849
1761371105101729300,0.410729248046875,-0.5357130169868469,0.6445202231407166,-0.4656183123588562
1761371105120342000,0.429342041015625,-0.5760289430618286,0.5987066626548767,-0.5499152541160583
1761371105138953000,0.447952880859375,-0.45508119463920593,0.5388436317443848,-0.6000047326087952
1761371105157565700,0.466565673828125,-0.24678228795528412,0.5718293786048889,-0.6274928450584412
1761371105176177000,0.485177001953125,0.01588202826678753,0.7282062768936157,-0.5780141949653625
1761371105194789400,0.503789306640625,0.28098973631858826,0.9438353776931763,-0.4149180054664612
1761371105213400600,0.522400634765625,0.4428642690181732,1.1289221048355103,-0.22738789021968842
1761371105232013000,0.541012939453125,0.4343124032020569,1.1564102172851562,-0.11865708231925964
1761371105250624300,0.559624267578125,0.4312581717967987,0.7508076429367065,-0.0716218426823616
1761371105269237000,0.578237060546875,0.499673068523407,-0.0555107444524765,0.0946049690246582
1761371105287848000,0.596847900390625,0.4062134325504303,-0.45378315448760986,0.34810659289360046
1761371105306460700,0.615460693359375,0.16553960740566254,-0.5521295666694641,0.6040515899658203
1761371105325072000,0.63407177734375,-0.07574506103992462,-0.7989118695259094,0.8465579152107239
1761371105343684400,0.652684326171875,-0.3402419090270996,-1.1092222929000854,0.9937721490859985
1761371105362295600,0.671295654296875,-0.5882459282875061,-1.1867998838424683,1.0230927467346191
1761371105380908300,0.689908203125,-0.7721109390258789,-1.1049463748931885,0.930854856967926
1761371105399519200,0.708519287109375,-0.8790091872215271,-1.0065999031066895,0.7640935778617859
1761371105418132000,0.727132080078125,-0.9016105532646179,-0.6914027333259583,0.6040515899658203
1761371105436743000,0.745742919921875,-0.869846522808075,-0.15691138803958893,0.406137079000473
1761371105455355600,0.764355712890625,-0.8044858574867249,0.34215080738067627,0.1355317384004593
1761371105473966800,0.782966796875,-0.7501204609870911,0.6060368418693542,-0.15408621728420258
1761371105492579300,0.801579345703125,-0.7715001106262207,0.7660788297653198,-0.38071054220199585
1761371105511190500,0.8201904296875,-0.8942803740501404,0.8436564207077026,-0.5419742465019226
1761371105529803300,0.83880322265625,-1.0482138395309448,0.7538618445396423,-0.6843016147613525
1761371105548414200,0.857414306640625,-1.2125318050384521,0.3928511440753937,-0.8186880350112915
1761371105567027000,0.87602685546875,-1.3774605989456177,-0.10437852889299393,-0.8724426031112671
1761371105585638000,0.894637939453125,-1.4849697351455688,-0.3853682577610016,-0.8223531246185303
1761371105604250600,0.913250732421875,-1.4214415550231934,-0.3988068997859955,-0.5541911721229553
1761371105622861800,0.93186181640625,-1.2595670223236084,-0.012751436792314053,-0.12843063473701477
1761371105641474300,0.950474365234375,-1.0237799882888794,0.5070796012878418,0.32428354024887085
1761371105660085500,0.96908544921875,-0.7971556782722473,0.8399913311004639,0.6590278148651123
1761371105678698200,0.9876982421875,-0.6401679515838623,0.7373690009117126,0.8202915191650391
1761371105697309400,1.006309326171875,-0.6035171151161194,0.4661528170108795,0.8184589743614197
1761371105715922000,1.024921875,-0.5833591222763062,0.1784437596797943,0.722555935382843
1761371105734533000,1.043533203125,-0.6914790868759155,-0.14164020121097565,0.5582380294799805
1761371105753145600,1.0621455078125,-0.8551861643791199,-0.27236151695251465,0.4220190942287445
1761371105771756800,1.0807568359375,-0.9810206890106201,-0.2613662779331207,0.329781174659729
1761371105790369500,1.09936962890625,-1.060430884361267,-0.2644205093383789,0.24853847920894623
1761371105808980500,1.11798046875,-1.178935170173645,-0.4195757210254669,0.19478392601013184
1761371105827593200,1.13659326171875,-1.372573733329773,-0.5545729398727417,0.19417306780815125
1761371105846204400,1.155204345703125,-1.557660460472107,-0.5851153135299683,0.22838051617145538
1761371105864817000,1.17381689453125,-1.559493064880371,-0.5075377225875854,0.3591018319129944
1761371105883428000,1.192427978515625,-1.368297815322876,-0.18989713490009308,0.5411342978477478
1761371105902040800,1.211040771484375,-1.041494607925415,0.29145050048828125,0.7286643981933594
1761371105920651800,1.22965185546875,-0.6975875496864319,0.5748836398124695,0.7451573014259338
1761371105939264500,1.248264404296875,-0.4312581717967987,0.6072585582733154,0.6260420680046082
1761371105957875500,1.26687548828125,-0.2345653474330902,0.2444152534008026,0.4586699306964874
1761371105976488200,1.28548828125,-0.06719319522380829,-0.33711132407188416,0.49654245376586914
1761371105995099400,1.304099365234375,0.013438640162348747,-0.7989118695259094,0.7726454138755798
1761371106013712000,1.3227119140625,-0.022601349279284477,-0.9143620133399963,1.1458730697631836
1761371106032323000,1.341322998046875,-0.20096874237060547,-0.7298861145973206,1.4714547395706177
1761371106050935800,1.359935791015625,-0.41232189536094666,-0.6932352781295776,1.6046193838119507
1761371106069546800,1.378546630859375,-0.6358919739723206,-0.6852942705154419,1.445188283920288
1761371106088159500,1.397159423828125,-0.7995990514755249,-0.8129613399505615,1.0799015760421753
1761371106106770700,1.415770751953125,-0.8643488883972168,-0.9051992893218994,0.7341620326042175
1761371106125383200,1.434383056640625,-0.8533536195755005,-0.7708128690719604,0.569844126701355
1761371106143994400,1.452994384765625,-0.7843278646469116,-0.51914381980896,0.5545729398727417
1761371106162607000,1.471607177734375,-0.7281299233436584,-0.226547971367836,0.5484644770622253
1761371106181218000,1.490218017578125,-0.7043069005012512,-0.03474193811416626,0.46905434131622314
1761371106199830800,1.508830810546875,-0.6878139972686768,-0.06467345356941223,0.32245099544525146
1761371106218442000,1.52744189453125,-0.6780404448509216,-0.20394663512706757,0.16546325385570526
1761371106237054500,1.546054443359375,-0.6884248852729797,-0.35054996609687805,0.06711684167385101
1761371106255665700,1.564665771484375,-0.7146912813186646,-0.40186113119125366,0.07261446863412857
1761371106274278400,1.5832783203125,-0.7049177289009094,-0.382924884557724,0.15691138803958893
1761371106292889300,1.601889404296875,-0.6193991303443909,-0.2772482931613922,0.29496288299560547
1761371106311502000,1.620502197265625,-0.4960079789161682,-0.14469444751739502,0.4476746916770935
1761371106330113300,1.63911328125,-0.38422292470932007,-0.0823880210518837,0.561292290687561
1761371106348725800,1.657725830078125,-0.29320669174194336,-0.04756972938776016,0.6083275079727173
1761371106367337000,1.6763369140625,-0.23273280262947083,-0.036574479192495346,0.6016082167625427
1761371106385949400,1.694949462890625,-0.17836740612983704,-0.03596363216638565,0.5783960223197937
1761371106404560600,1.713560546875,-0.12583453953266144,-0.03840702027082443,0.5405234694480896
1761371106423173400,1.73217333984375,-0.08735115826129913,-0.04879142343997955,0.5020400881767273
1761371106441784300,1.750784423828125,-0.08429691940546036,-0.06711684167385101,0.4879906177520752
1761371106460397000,1.76939697265625,-0.10628741979598999,-0.02802261710166931,0.49287739396095276
1761371106479008300,1.78800830078125,-0.16676130890846252,0.008017370477318764,0.44156619906425476
1761371106497620700,1.806620849609375,-0.2638860046863556,0.022677704691886902,0.3151208162307739
1761371106516232000,1.82523193359375,-0.3286358118057251,0.02695363573729992,0.1752368062734604
1761371106534844700,1.8438447265625,-0.4068242609500885,0.009849912486970425,0.06406260281801224
1761371106553455600,1.86245556640625,-0.40010493993759155,0.036727190017700195,0.04512634128332138
1761371106572068400,1.881068359375,-0.2718270421028137,0.20348849892616272,0.11537377536296844
1761371106590679600,1.899679443359375,-0.05375456064939499,0.4252260625362396,0.18928629159927368
1761371106609292000,1.9182919921875,0.19058434665203094,0.5498389005661011,0.1996707022190094
1761371106627903200,1.9369033203125,0.4049917459487915,0.4954734742641449,0.1343100368976593
1761371106646515700,1.955515625,0.517998456954956,0.18821731209754944,0.022524992004036903
1761371106665127000,1.974126953125,0.5045598149299622,-0.19295138120651245,-0.06917845457792282
1761371106683739600,1.99273974609375,0.42392799258232117,-0.5484644770622253,-0.09972081333398819
1761371106702350800,2.011350830078125,0.29687178134918213,-0.6608603596687317,-0.07345438003540039
1761371106720963300,2.02996337890625,0.24433889985084534,-0.5667899250984192,-0.017867282032966614
1761371106739574500,2.048574462890625,0.30664533376693726,-0.32550522685050964,0.020692450925707817
1761371106758187000,2.06718701171875,0.4343124032020569,-0.07872293889522552,-0.00259610079228878
1761371106776798200,2.085798095703125,0.5332696437835693,0.14729054272174835,-0.08139539510011673
1761371106795411000,2.104410888671875,0.5711421966552734,0.31771692633628845,-0.16630317270755768
1761371106814022000,2.12302197265625,0.5674771070480347,0.41239824891090393,-0.23471805453300476
1761371106832634600,2.141634521484375,0.5570927262306213,0.43316707015037537,-0.2786990702152252
1761371106851245800,2.160245849609375,0.5601469278335571,0.3665847182273865,-0.3049654960632324
1761371106869858300,2.1788583984375,0.5705313682556152,0.2596864402294159,-0.31596073508262634
1761371106888469500,2.197469482421875,0.5803049206733704,0.09414683282375336,-0.31229567527770996
1761371106907082200,2.216082275390625,0.5699204802513123,-0.08422056585550308,-0.2725905776023865
1761371106925693200,2.234693115234375,0.5216635465621948,-0.20516832172870636,-0.18218518793582916
1761371106944306000,2.253305908203125,0.43736663460731506,-0.23082390427589417,-0.055739812552928925
1761371106962916900,2.271916748046875,0.3500154912471771,-0.1856212168931961,0.05856497958302498
1761371106981529600,2.290529541015625,0.261442631483078,-0.14286190271377563,0.10926530510187149
1761371107000140800,2.309140869140625,0.17531315982341766,-0.05123481526970863,0.09093988686800003
1761371107018753300,2.327753173828125,0.13316470384597778,0.06421531736850739,0.026190076023340225
1761371107037364500,2.346364501953125,0.13744063675403595,0.1552315652370453,-0.05268557742238045
1761371107055977200,2.364977294921875,0.12461283802986145,0.14484715461730957,-0.11010521650314331
1761371107074588200,2.383588134765625,0.08612946420907974,0.09781191498041153,-0.0984991192817688
1761371107093201000,2.402200927734375,0.04886778071522713,0.08070819079875946,-0.025197450071573257
1761371107111812000,2.42081201171875,0.04092676565051079,0.13873867690563202,0.07322531193494797
1761371107130424600,2.439424560546875,0.043981000781059265,0.20898611843585968,0.13919681310653687
1761371107149035800,2.458035888671875,0.009773556143045425,0.18271969258785248,0.14164020121097565
1761371107167648300,2.476648193359375,-0.09956810623407364,0.10575293004512787,0.11781716346740723
1761371107186259500,2.495259521484375,-0.2363978922367096,0.037948887795209885,0.09888090193271637
1761371107204872200,2.5138720703125,-0.3384093940258026,0.015347537584602833,0.07994463294744492
1761371107223483400,2.5324833984375,-0.363454133272171,0.04100312292575836,0.06345175951719284
1761371107242095900,2.551095947265625,-0.31092125177383423,0.1802763044834137,0.03779617324471474
1761371107260707000,2.56970703125,-0.17836740612983704,0.35742199420928955,-0.06612421572208405
1761371107279319800,2.58831982421875,0.03176405653357506,0.3659738600254059,-0.24021568894386292
1761371107297930800,2.6069306640625,0.21318569779396057,0.14790138602256775,-0.4020902216434479
1761371107316543500,2.62554345703125,0.26938363909721375,-0.24304085969924927,-0.47417017817497253
1761371107335154400,2.644154541015625,0.1704263836145401,-0.7921925187110901,-0.42224815487861633
1761371107353767200,2.66276708984375,-0.03665083646774292,-1.1177741289138794,-0.19195875525474548
1761371107372378400,2.68137841796875,-0.2339545041322708,-0.9992697834968567,0.18989713490009308
1761371107390990800,2.699990966796875,-0.3701734244823456,-0.48127129673957825,0.546631932258606
1761371107409602000,2.71860205078125,-0.4282039403915405,-0.11231953650712967,0.7799755930900574
1761371107428214800,2.73721484375,-0.49417543411254883,0.030007870867848396,0.8832087516784668
1761371107446825700,2.75582568359375,-0.6016845703125,0.15828579664230347,0.8086854219436646
1761371107465438500,2.7744384765625,-0.7043069005012512,0.141182079911232,0.5564054846763611
1761371107484049700,2.793049560546875,-0.7336275577545166,0.21204034984111786,0.3713187873363495
1761371107502662100,2.811662109375,-0.7696675658226013,0.5180748105049133,0.21799612045288086
1761371107521273300,2.8302734375,-0.6786513328552246,0.7428666353225708,-0.049020491540431976
1761371107539886000,2.848885986328125,-0.5424323678016663,0.8393805027008057,-0.40453359484672546
1761371107558497000,2.8674970703125,-0.45141613483428955,0.5278483629226685,-0.7001836895942688
1761371107577109800,2.88610986328125,-0.41048935055732727,0.09170344471931458,-0.8192988634109497
1761371107595721000,2.904720947265625,-0.3817795515060425,-0.4330143630504608,-0.7368345260620117
1761371107614333400,2.92333349609375,-0.3903313875198364,-0.9168053865432739,-0.5291464328765869
1761371107632944600,2.941944580078125,-0.4343124032020569,-1.144040584564209,-0.3196258246898651
1761371107651557000,2.96055712890625,-0.469741553068161,-1.2466628551483154,-0.2017323076725006
1761371107670168300,2.979168212890625,-0.47890424728393555,-1.1678636074066162,-0.18707197904586792
1761371107688781000,2.997781005859375,-0.4196520745754242,-0.6688013672828674,-0.11254860460758209
1761371107707392300,3.016392333984375,-0.3151971995830536,-0.2943520247936249,-0.019088976085186005
1761371107726004700,3.035004638671875,-0.18019993603229523,-0.255257785320282,0.08910734206438065
1761371107744616000,3.053615966796875,-0.10628741979598999,-0.21066594123840332,0.25831204652786255
1761371107763228400,3.072228515625,0.010995250195264816,-0.10254598408937454,0.39208757877349854
1761371107781839600,3.090839599609375,0.18997350335121155,-0.12453648447990417,0.4379011392593384
1761371107800452400,3.109452392578125,0.35856732726097107,-0.334057092666626,0.3926984369754791
1761371107819063600,3.1280634765625,0.418430358171463,-0.6156576871871948,0.32367268204689026
1761371107837676000,3.146676025390625,0.2980934679508209,-0.6681905388832092,0.276637464761734
1761371107856287200,3.165287353515625,0.16615045070648193,-0.45256146788597107,0.23693238198757172
1761371107874899700,3.183899658203125,0.2223484069108963,-0.12636902928352356,0.15385715663433075
1761371107893511000,3.202510986328125,0.36223241686820984,0.20165595412254333,0.023746687918901443
1761371107912123600,3.22112353515625,0.46363306045532227,0.32077115774154663,-0.14125843346118927
1761371107930734800,3.23973486328125,0.45263782143592834,0.1668376624584198,-0.35138988494873047
1761371107949347300,3.258347412109375,0.34757208824157715,-0.16851748526096344,-0.5554128885269165
1761371107967958500,3.27695849609375,0.24311721324920654,-0.5038726329803467,-0.6635328531265259
1761371107986571300,3.2955712890625,0.13560809195041656,-0.6297071576118469,-0.5859552621841431
1761371108005182200,3.31418212890625,0.006719320081174374,-0.43118181824684143,-0.3239017724990845
1761371108023795000,3.332794921875,-0.02748812735080719,0.013514995574951172,0.03229855000972748
1761371108042406100,3.35140625,-0.0390942245721817,0.30305659770965576,0.23265644907951355
1761371108061018600,3.3700185546875,-0.0036650835536420345,0.4154524803161621,0.22043950855731964
1761371108079629800,3.3886298828125,0.10689827054738998,0.39895960688591003,0.04390464723110199
1761371108098242600,3.40724267578125,0.19058434665203094,0.2053210288286209,-0.16996824741363525
1761371108116853500,3.425853515625,0.19974705576896667,0.015347537584602833,-0.2976353168487549
1761371108135466200,3.44446630859375,0.2235700935125351,0.0165692325681448,-0.3501681983470917
1761371108154077400,3.463077392578125,0.26755109429359436,0.11308310180902481,-0.4124746024608612
1761371108172690000,3.48168994140625,0.2980934679508209,0.21326205134391785,-0.439351886510849
1761371108191301000,3.500301025390625,0.3402419090270996,0.30611082911491394,-0.4283566474914551
1761371108209913900,3.518913818359375,0.37567105889320374,0.3213820159435272,-0.386208176612854
1761371108228524800,3.53752490234375,0.4159869849681854,0.30244573950767517,-0.3483356535434723
1761371108247137500,3.556137451171875,0.46302223205566406,0.28045526146888733,-0.30130040645599365
1761371108265748700,3.574748779296875,0.4966188073158264,0.29450473189353943,-0.23166382312774658
1761371108284361200,3.593361328125,0.53143709897995,0.2725142240524292,-0.13453911244869232
1761371108302972400,3.611972412109375,0.5491516590118408,0.21387289464473724,-0.0038177953101694584
1761371108321585200,3.630585205078125,0.5540384650230408,0.09842276573181152,0.12636902928352356
1761371108340196000,3.649196044921875,0.518609344959259,-0.05306735634803772,0.20700086653232574
1761371108358808800,3.667808837890625,0.4428642690181732,-0.15385715663433075,0.22227205336093903
1761371108377420000,3.686419921875,0.3432961702346802,-0.22410458326339722,0.20394663512706757
1761371108396032500,3.705032470703125,0.2113531529903412,-0.2686964273452759,0.16912832856178284
1761371108414643700,3.723643798828125,0.06413896381855011,-0.2522035539150238,0.11964970827102661
1761371108433256400,3.74225634765625,-0.056808795779943466,-0.11048699915409088,0.09765920788049698
1761371108451867400,3.760867431640625,-0.1698155403137207,-0.031076854094862938,0.1587439328432083
1761371108470480100,3.779480224609375,-0.2870981991291046,0.004963133949786425,0.28274592757225037
1761371108489091300,3.79809130859375,-0.4159869849681854,0.09903360903263092,0.3847574293613434
1761371108507703800,3.816703857421875,-0.5625903010368347,0.19554747641086578,0.3835357129573822
1761371108526315000,3.83531494140625,-0.6456655263900757,0.20348849892616272,0.28457847237586975
1761371108544927700,3.853927734375,-0.6157340407371521,0.1918824017047882,0.13919681310653687
1761371108563538700,3.87253857421875,-0.5216635465621948,0.09842276573181152,0.0017561858985573053
1761371108582151400,3.8911513671875,-0.46302223205566406,-0.08971819281578064,-0.06062658876180649
1761371108600762400,3.909762451171875,-0.4734066128730774,-0.22838051617145538,-0.04840964451432228
1761371108619375000,3.928375,-0.5241069197654724,-0.23265644907951355,0.010918894782662392
1761371108637986300,3.946986328125,-0.5192201733589172,-0.08544225990772247,0.09338327497243881
1761371108656598800,3.965598876953125,-0.3970507085323334,0.139960378408432,0.1349208950996399
1761371108675210000,3.9842099609375,-0.2223484069108963,0.30488914251327515,0.11537377536296844
1761371108693822700,4.00282275390625,-0.09407047927379608,0.30733251571655273,0.0561215914785862
1761371108712434000,4.021433837890625,-0.05497625470161438,0.08437328040599823,-0.001374406274408102
1761371108731046400,4.04004638671875,-0.07269082218408585,-0.2894652485847473,-0.001374406274408102
1761371108749657600,4.05865771484375,-0.15271180868148804,-0.639480710029602,0.07261446863412857
1761371108768270000,4.07727001953125,-0.2987042963504791,-0.7793647646903992,0.17890189588069916
1761371108786881300,4.09588134765625,-0.41537612676620483,-0.8001335263252258,0.24914932250976562
1761371108805494000,4.114493896484375,-0.45141613483428955,-0.7537091374397278,0.26991814374923706
1761371108824105200,4.133105224609375,-0.39827242493629456,-0.5967214107513428,0.2528144121170044
1761371108842717700,4.1517177734375,-0.29748260974884033,-0.38842248916625977,0.21677441895008087
1761371108861329000,4.170328857421875,-0.21746163070201874,-0.21616357564926147,0.20516832172870636
1761371108879941600,4.188941650390625,-0.20096874237060547,-0.08971819281578064,0.2528144121170044
1761371108898552600,4.207552490234375,-0.23273280262947083,-0.03779617324471474,0.33894386887550354
1761371108917165300,4.226165283203125,-0.2919849753379822,-0.03901786729693413,0.40247198939323425
1761371108935776500,4.244776611328125,-0.34879377484321594,-0.05123481526970863,0.44339874386787415
1761371108954389000,4.263388916015625,-0.39888325333595276,-0.05184566229581833,0.47943875193595886
1761371108973000200,4.282000244140625,-0.4355340898036957,-0.03779617324471474,0.5026509165763855
1761371108991613000,4.300613037109375,-0.42453885078430176,0.05138752609491348,0.5283065438270569
1761371109010223900,4.319223876953125,-0.34635040163993835,0.17111359536647797,0.5692332983016968
1761371109028836600,4.337836669921875,-0.182643324136734,0.24991288781166077,0.6174902319908142
1761371109047447600,4.356447509765625,0.02076880633831024,0.24380441009998322,0.6382590532302856
1761371109066060300,4.375060302734375,0.18997350335121155,-0.0426829531788826,0.6083275079727173
1761371109084671500,4.39367138671875,0.1575985997915268,-0.5478536486625671,0.5252522826194763
1761371109103284000,4.412283935546875,-0.15943112969398499,-0.884430468082428,0.4214082658290863
1761371109121895200,4.430895263671875,-0.5564818382263184,-0.8832087516784668,0.3022930324077606
1761371109140508000,4.4495078125,-0.8710681796073914,-0.49470990896224976,0.22838051617145538
1761371109159118800,4.468118896484375,-0.8997780084609985,0.05688514932990074,0.12820157408714294
1761371109177731600,4.486731689453125,-0.7128587365150452,0.7404232621192932,-0.06734590977430344
1761371109196342800,4.5053427734375,-0.44042086601257324,1.1344196796417236,-0.3617742955684662
1761371109214955300,4.523955322265625,-0.25777754187583923,1.1081533432006836,-0.6128324866294861
1761371109233566500,4.54256640625,-0.21990501880645752,0.8509865999221802,-0.650094211101532
1761371109252179200,4.56117919921875,-0.30725616216659546,0.47653722763061523,-0.4497362971305847
1761371109270790100,4.5797900390625,-0.47585001587867737,0.00129805039614439,-0.1113269105553627
1761371109289403000,4.59840283203125,-0.6536065936088562,-0.3865899443626404,0.24487338960170746
1761371109308014000,4.61701416015625,-0.7348492741584778,-0.6345939636230469,0.4501180648803711
1761371109326626600,4.63562646484375,-0.6957550048828125,-0.7763105034828186,0.4641675651073456
1761371109345237800,4.65423779296875,-0.5754181146621704,-0.8453362584114075,0.37742725014686584
1761371109363850200,4.672850341796875,-0.4581354558467865,-0.782418966293335,0.29557371139526367
1761371109382461400,4.69146142578125,-0.4074351191520691,-0.5918346643447876,0.28335678577423096
1761371109401074200,4.71007421875,-0.418430358171463,-0.33772218227386475,0.3035147190093994
1761371109419685400,4.728685302734375,-0.47768256068229675,-0.11415208131074905,0.308401495218277
1761371109438297900,4.7472978515625,-0.5723638534545898,0.01046075951308012,0.28763270378112793
1761371109456909000,4.765908935546875,-0.684759795665741,-0.008475505746901035,0.23571068048477173
1761371109475521500,4.784521484375,-0.8050966858863831,-0.120871402323246,0.16790664196014404
1761371109494132700,4.8031328125,-0.9297095537185669,-0.24792763590812683,0.0946049690246582
1761371109512745500,4.821745361328125,-1.0524898767471313,-0.3419981002807617,0.005421269219368696
1761371109531356400,4.8403564453125,-1.197871446609497,-0.45378315448760986,-0.0850604772567749
1761371109549969200,4.85896923828125,-1.378682255744934,-0.5105919241905212,-0.14675605297088623
1761371109568580400,4.877580322265625,-1.550330400466919,-0.49287739396095276,-0.1779092699289322
1761371109587192800,4.89619287109375,-1.6712781190872192,-0.42812758684158325,-0.1369825005531311
1761371109605804000,4.914803955078125,-1.7842848300933838,-0.32122930884361267,-0.0038177953101694584
1761371109624416800,4.933416748046875,-1.8019994497299194,-0.2821350693702698,0.15813308954238892
1761371109643027700,4.95202783203125,-1.7354170083999634,-0.24181915819644928,0.31145575642585754
1761371109661640400,4.970640380859375,-1.6755540370941162,-0.21799612045288086,0.436068594455719
1761371109680251400,4.98925146484375,-1.6566177606582642,-0.18378867208957672,0.51914381980896
1761371109698864000,5.007864013671875,-1.6871601343154907,-0.20577916502952576,0.5722874999046326
1761371109717475300,5.026475341796875,-1.7549642324447632,-0.2772482931613922,0.5802285671234131
1761371109736087800,5.045087890625,-1.8441479206085205,-0.39086589217185974,0.4910448491573334
1761371109754699000,5.063698974609375,-1.9541003704071045,-0.5185329914093018,0.3554367423057556
1761371109773311700,5.082311767578125,-2.0922281742095947,-0.6193227767944336,0.2803025245666504
1761371109791922700,5.100922607421875,-2.216840982437134,-0.6559736132621765,0.253425270318985
1761371109810535400,5.119535400390625,-2.2479941844940186,-0.6425349712371826,0.2631988227367401
1761371109829146600,5.138146728515625,-2.188742160797119,-0.5478536486625671,0.2919086217880249
1761371109847759000,5.156759033203125,-2.084897994995117,-0.3688753843307495,0.31145575642585754
1761371109866370300,5.175370361328125,-2.0145742893218994,-0.20272493362426758,0.3016822040081024
1761371109884982800,5.193982666015625,-1.9901403188705444,-0.1593547761440277,0.2772482931613922
1761371109903594000,5.212593994140625,-1.9858644008636475,-0.1874537467956543,0.2668638825416565
1761371109922206700,5.231206787109375,-1.9919729232788086,-0.20272493362426758,0.3016822040081024
1761371109940817700,5.249817626953125,-1.998692274093628,-0.15507884323596954,0.35116082429885864
1761371109959430400,5.268430419921875,-1.9870861768722534,-0.05978667363524437,0.36154523491859436
1761371109978041600,5.28704150390625,-1.9266122579574585,-0.04634803533554077,0.3169533610343933
1761371109996654000,5.305654052734375,-1.8111621141433716,-0.16301986575126648,0.2528144121170044
1761371110015265300,5.324265380859375,-1.6724997758865356,-0.4977641701698303,0.22288289666175842
1761371110033878000,5.3428779296875,-1.601030707359314,-1.0004914999008179,0.2662530541419983
1761371110052489000,5.361489013671875,-1.6175235509872437,-1.4500750303268433,0.3810923397541046
1761371110071101700,5.380101806640625,-1.6340163946151733,-1.558882236480713,0.6174902319908142
1761371110089712600,5.398712646484375,-1.6120258569717407,-1.253993034362793,0.880154550075531
1761371110108325400,5.417325439453125,-1.504516839981079,-0.745768129825592,1.0065999031066895
1761371110126936600,5.4359365234375,-1.3096565008163452,-0.16729579865932465,0.9326874017715454
1761371110145549000,5.454549072265625,-1.0970816612243652,0.26701661944389343,0.7353837490081787
1761371110164160300,5.47316015625,-0.9413156509399414,0.47348299622535706,0.5588488578796387
1761371110182772700,5.491772705078125,-0.8875610828399658,0.5223507881164551,0.4886014461517334
1761371110201384000,5.510384033203125,-0.9248227477073669,0.5028036236763,0.5338041186332703
1761371110219996700,5.52899658203125,-1.0103414058685303,0.38552096486091614,0.6199336051940918
1761371110238608000,5.54760791015625,-1.0885298252105713,0.18882815539836884,0.7140040993690491
1761371110257220400,5.566220458984375,-1.138619303703308,-0.03779617324471474,0.801355242729187
1761371110275831600,5.58483154296875,-1.1300674676895142,-0.19478392601013184,0.8606074452400208
1761371110294444000,5.603444091796875,-1.0518789291381836,-0.23082390427589417,0.8575531840324402
1761371110313055200,5.62205517578125,-0.9413156509399414,-0.20516832172870636,0.7702020406723022
1761371110331668000,5.64066796875,-0.9229902029037476,-0.3218401372432709,0.5814502239227295
1761371110350279000,5.65927880859375,-1.040272831916809,-0.4763845205307007,0.3548259139060974
1761371110368891600,5.6778916015625,-1.147171139717102,-0.3713187873363495,0.227769672870636
1761371110387502600,5.696502685546875,-1.1044118404388428,-0.03718532621860504,0.23265644907951355
1761371110406115300,5.715115234375,-0.8851176500320435,0.3232145607471466,0.29496288299560547
1761371110424726500,5.7337265625,-0.6829272508621216,0.5064687132835388,0.29862794280052185
1761371110443339000,5.752339111328125,-0.582748293876648,0.47470468282699585,0.23571068048477173
1761371110461950200,5.7709501953125,-0.5528167486190796,0.25052374601364136,0.19661645591259003
1761371110480562700,5.789562744140625,-0.5943543910980225,-0.012140588834881783,0.26991814374923706
1761371110499174000,5.808173828125,-0.7055285573005676,-0.22288289666175842,0.41896486282348633
1761371110517786600,5.82678662109375,-0.8765658140182495,-0.3151208162307739,0.5118136405944824
1761371110536397600,5.8453974609375,-1.0176715850830078,-0.36215606331825256,0.47027602791786194
1761371110555010300,5.86401025390625,-1.081810474395752,-0.41041299700737,0.31145575642585754
1761371110573621500,5.88262158203125,-1.0665392875671387,-0.4488963782787323,0.11964970827102661
1761371110592234000,5.90123388671875,-1.01706063747406,-0.5020400881767273,-0.02092151902616024
1761371110610845200,5.91984521484375,-0.9834640622138977,-0.5790068507194519,-0.06490252166986465
1761371110629457700,5.938457763671875,-0.990183413028717,-0.652919352054596,-0.03130592033267021
1761371110648068900,5.95706884765625,-1.022558331489563,-0.7359945774078369,0.05123481526970863
1761371110666681600,5.975681640625,-1.0341644287109375,-0.7989118695259094,0.16973918676376343
1761371110685292500,5.99429248046875,-0.9797990322113037,-0.8257891535758972,0.28274592757225037
1761371110703905300,6.0129052734375,-0.8729007244110107,-0.8398386240005493,0.35360419750213623
1761371110722516200,6.03151611328125,-0.7550072073936462,-0.8386169075965881,0.39330926537513733
1761371110741129000,6.05012890625,-0.6297835111618042,-0.8502230048179626,0.41468894481658936
1761371110759740200,6.068740234375,-0.5363239049911499,-0.9601755142211914,0.45683738589286804
1761371110778352600,6.0873525390625,-0.5858024954795837,-0.9161945581436157,0.5454102754592896
1761371110796963800,6.1059638671875,-0.6884248852729797,-0.8160156011581421,0.5728983879089355
1761371110815576600,6.12457666015625,-0.7421793937683105,-0.8422819972038269,0.4873797595500946
1761371110834187500,6.1431875,-0.8386932611465454,-0.8838196396827698,0.3145099878311157
1761371110852800300,6.16180029296875,-0.9132166504859924,-0.9198595881462097,0.10560022294521332
1761371110871411200,6.1804111328125,-0.9297095537185669,-0.7836406826972961,-0.03802524134516716
1761371110890024000,6.19902392578125,-0.9284878373146057,-0.40308284759521484,-0.10460758954286575
1761371110908635100,6.21763525390625,-0.8393041491508484,0.06726955622434616,-0.12781979143619537
1761371110927247600,6.23624755859375,-0.6493306159973145,0.4814240038394928,-0.14370182156562805
1761371110945858800,6.25485888671875,-0.46363306045532227,0.770965576171875,-0.15897299349308014
1761371110964471300,6.27347119140625,-0.30603447556495667,0.89680016040802,-0.15775130689144135
1761371110983082500,6.29208251953125,-0.19424942135810852,0.8809180855751038,-0.13453911244869232
1761371111001695000,6.310695068359375,-0.14782503247261047,0.8039513230323792,-0.06123743951320648
1761371111020306200,6.32930615234375,-0.15393351018428802,0.6121453046798706,0.06345175951719284
1761371111038919000,6.3479189453125,-0.1844758689403534,0.3335989713668823,0.21860696375370026
1761371111057529900,6.36652978515625,-0.1966928243637085,0.13324105739593506,0.35177165269851685
1761371111076142600,6.385142578125,-0.12216944992542267,0.07887565344572067,0.3969743549823761
1761371111094753800,6.40375390625,0.03420744836330414,0.06726955622434616,0.3328354060649872
1761371111113366300,6.4223662109375,0.20768806338310242,0.07887565344572067,0.2143310308456421
1761371111131977500,6.4409775390625,0.3530697226524353,0.18455222249031067,0.15263545513153076
1761371111150590000,6.45958984375,0.42576053738594055,0.26335152983665466,0.12453648447990417
1761371111169201200,6.478201171875,0.38849884271621704,0.10880716890096664,0.06528430432081223
1761371111187814000,6.49681396484375,0.25533416867256165,-0.10437852889299393,0.026190076023340225
1761371111206424800,6.5154248046875,0.10750912129878998,-0.0823880210518837,0.08788564801216125
1761371111225037600,6.53403759765625,-0.03665083646774292,0.17050273716449738,0.22349373996257782
1761371111243648500,6.5526484375,-0.16187451779842377,0.42278265953063965,0.2943520247936249
1761371111262261200,6.57126123046875,-0.27121618390083313,0.5486171841621399,0.27297237515449524
1761371111280872400,6.58987255859375,-0.3500154912471771,0.641465961933136,0.28518930077552795
1761371111299485000,6.60848486328125,-0.37383851408958435,0.6347466707229614,0.35177165269851685
1761371111318096100,6.62709619140625,-0.337798535823822,0.5809921026229858,0.4458421468734741
1761371111336708600,6.64570849609375,-0.24433889985084534,0.6243622303009033,0.5307499170303345
1761371111355319800,6.66431982421875,-0.12094775587320328,0.6573479771614075,0.5649573802947998
1761371111373932300,6.682932373046875,-0.05375456064939499,0.5192965269088745,0.5020400881767273
1761371111392543500,6.70154345703125,-0.08857285231351852,0.21570543944835663,0.3676536977291107
1761371111411156200,6.72015625,-0.23273280262947083,-0.1080436110496521,0.21921780705451965
1761371111429767200,6.73876708984375,-0.4605788290500641,-0.4495072364807129,0.11231953650712967
1761371111448380000,6.7573798828125,-0.712247908115387,-0.6309288740158081,0.13125580549240112
1761371111466991000,6.7759912109375,-0.8655705451965332,-0.5991647839546204,0.28518930077552795
1761371111485603600,6.794603515625,-0.9046648144721985,-0.45744824409484863,0.4598916172981262
1761371111504214800,6.81321484375,-0.833195686340332,-0.2796916961669922,0.5399126410484314
1761371111522827300,6.8318271484375,-0.6682668924331665,-0.13186664879322052,0.5081485509872437
1761371111541438500,6.8504384765625,-0.47707170248031616,-0.00908635277301073,0.4110238552093506
1761371111560051000,6.869051025390625,-0.34818294644355774,0.04222481697797775,0.276637464761734
1761371111578662100,6.887662109375,-0.2980934679508209,0.02695363573729992,0.16851748526096344
1761371111597274600,6.906274658203125,-0.32130566239356995,-0.007253811229020357,0.13797512650489807
1761371111615885800,6.9248857421875,-0.3805578351020813,-0.06223006546497345,0.14347274601459503
1761371111634498600,6.94349853515625,-0.43858832120895386,-0.18378867208957672,0.09277242422103882
1761371111653109500,6.962109619140625,-0.4862344264984131,-0.33894386887550354,-0.02214321307837963
1761371111671722200,6.98072216796875,-0.522885262966156,-0.45622655749320984,-0.1522536724805832
1761371111690333400,6.99933349609375,-0.5674771070480347,-0.5564054846763611,-0.252432644367218
1761371111708946000,7.01794580078125,-0.6462764143943787,-0.6266529560089111,-0.27625566720962524
1761371111727557000,7.03655712890625,-0.7342383861541748,-0.5985539555549622,-0.18646112084388733
1761371111746169600,7.055169677734375,-0.7953231334686279,-0.44339874386787415,-0.013591351918876171
1761371111764780800,7.07378076171875,-0.7879929542541504,-0.3145099878311157,0.1349208950996399
1761371111783393300,7.092393310546875,-0.7330167293548584,-0.23448899388313293,0.2002815455198288
1761371111802004500,7.11100439453125,-0.6542174220085144,-0.20700086653232574,0.20761170983314514
1761371111820617000,7.129616943359375,-0.5961869359016418,-0.2381540685892105,0.227769672870636
1761371111839228200,7.148228271484375,-0.5858024954795837,-0.31389912962913513,0.2888543903827667
1761371111857841000,7.1668408203125,-0.5906893014907837,-0.5038726329803467,0.3688753843307495
1761371111876451800,7.185451904296875,-0.5931326746940613,-0.8215132355690002,0.4629458785057068
1761371111895064600,7.204064697265625,-0.629172682762146,-1.1751937866210938,0.6009973287582397
1761371111913675500,7.222675537109375,-0.726908266544342,-1.462291955947876,0.8428928852081299
1761371111932288300,7.241288330078125,-0.8961129188537598,-1.5289506912231445,1.1312127113342285
1761371111950899200,7.259899169921875,-1.0579874515533447,-1.2979741096496582,1.2778160572052002
1761371111969512000,7.278511962890625,-1.1178505420684814,-1.0463049411773682,1.112276554107666
1761371111988123100,7.297123046875,-1.1202938556671143,-0.8917606472969055,0.6639146208763123
1761371112006735600,7.315735595703125,-1.1422843933105469,-1.0047674179077148,0.1605764776468277
1761371112025346800,7.334346923828125,-1.2363548278808594,-1.0401965379714966,-0.17913095653057098
1761371112043959300,7.352959228515625,-1.3676869869232178,-0.8416711688041687,-0.2670929729938507
1761371112062570500,7.371570556640625,-1.4397670030593872,-0.5105919241905212,-0.15836215019226074
1761371112081183200,7.390183349609375,-1.4232741594314575,-0.12575818598270416,-0.005650337319821119
1761371112099794200,7.408794189453125,-1.3395880460739136,0.10269869863986969,0.03229855000972748
1761371112118407000,7.427406982421875,-1.2009257078170776,0.09720107167959213,-0.0331384651362896
1761371112137017900,7.446017822265625,-1.0616525411605835,-0.07017108052968979,-0.13087402284145355
1761371112155630600,7.464630615234375,-0.9895725846290588,-0.36521029472351074,-0.1522536724805832
1761371112174241500,7.483241455078125,-0.9889616966247559,-0.6290963292121887,-0.05329642444849014
1761371112192854300,7.501854248046875,-1.0274450778961182,-0.7213342785835266,0.11293038725852966
1761371112211465500,7.520465576171875,-1.0506572723388672,-0.6730773448944092,0.22960221767425537
1761371112230078000,7.539077880859375,-1.0024003982543945,-0.5790068507194519,0.21677441895008087
1761371112248689200,7.557689208984375,-0.8814526200294495,-0.5118136405944824,0.11659546941518784
1761371112267301600,7.576301513671875,-0.7165238261222839,-0.49348822236061096,0.01763821393251419
1761371112285912800,7.594912841796875,-0.5796940326690674,-0.4647783935070038,-0.0007635590736754239
1761371112304525300,7.613525390625,-0.5002838969230652,-0.44339874386787415,0.06467345356941223
1761371112323136500,7.632136474609375,-0.4587462842464447,-0.4446204602718353,0.1727934181690216
1761371112341749000,7.6507490234375,-0.4282039403915405,-0.44034451246261597,0.2882435619831085
1761371112360360200,7.669360107421875,-0.4049917459487915,-0.4073587656021118,0.3670428395271301
1761371112378973000,7.687972900390625,-0.40132665634155273,-0.36398860812187195,0.37681639194488525
1761371112397584000,7.706583984375,-0.4049917459487915,-0.308401495218277,0.32672691345214844
1761371112416196600,7.725196533203125,-0.39888325333595276,-0.1361425817012787,0.2124984860420227
1761371112434807600,7.7438076171875,-0.3549022674560547,0.06421531736850739,0.07261446863412857
1761371112453420300,7.762420166015625,-0.2718270421028137,0.4441623091697693,-0.039857782423496246
1761371112472031200,7.78103125,-0.1447708010673523,0.7025507092475891,-0.07406523078680038
1761371112490644000,7.79964404296875,-0.038483377546072006,0.8234984874725342,0.010918894782662392
1761371112509255200,7.818255126953125,-0.0006108472589403391,0.8607601523399353,0.1856212168931961
1761371112527867600,7.83686767578125,0.05925218388438225,1.0073634386062622,0.3823140263557434
1761371112546478800,7.855478759765625,0.14171656966209412,0.9682692885398865,0.4623350203037262
1761371112565091300,7.87409130859375,0.1954711228609085,0.7801283001899719,0.4324035048484802
1761371112583702500,7.89270263671875,0.2504473626613617,0.48997586965560913,0.34932827949523926
1761371112602315000,7.91131494140625,0.30664533376693726,0.29267218708992004,0.2631988227367401
1761371112620926200,7.92992626953125,0.33596599102020264,0.006184828467667103,0.20761170983314514
1761371112639538700,7.94853857421875,0.3500154912471771,-0.16607409715652466,0.21555273234844208
1761371112658150000,7.96714990234375,0.2895416021347046,-0.16790664196014404,0.28702184557914734
1761371112676762400,7.985762451171875,0.20646637678146362,-0.19661645591259003,0.42873841524124146
1761371112695373600,8.00437353515625,0.1447708010673523,-0.1465269923210144,0.5954996943473816
1761371112713986000,8.022986083984375,0.14110571146011353,0.03733803704380989,0.7091172933578491
1761371112732597200,8.04159716796875,0.1582094430923462,0.23464170098304749,0.6920135617256165
1761371112751209700,8.060209716796875,0.1575985997915268,0.38429927825927734,0.5130353569984436
1761371112769821000,8.078821044921876,0.15026842057704926,0.428891122341156,0.2149418741464615
1761371112788433400,8.097433349609375,0.12522368133068085,0.23769593238830566,-0.13514995574951172
1761371112807044600,8.116044677734376,0.03176405653357506,-0.07505785673856735,-0.4240806996822357
1761371112825657300,8.1346572265625,-0.11117420345544815,-0.32550522685050964,-0.5761816501617432
1761371112844268300,8.153268310546874,-0.25533416867256165,-0.5325824618339539,-0.6116108298301697
1761371112862881000,8.171881103515625,-0.3811686933040619,-0.6321505308151245,-0.5224271416664124
1761371112881492000,8.190491943359374,-0.4593571424484253,-0.5649573802947998,-0.335507869720459
1761371112900104700,8.209104736328126,-0.45385950803756714,-0.4354577362537384,-0.15408621728420258
1761371112918716000,8.2277158203125,-0.3701734244823456,-0.29740625619888306,-0.05390727147459984
1761371112937328400,8.246328369140626,-0.2486148327589035,-0.15568970143795013,-0.047798797488212585
1761371112955939600,8.264939697265625,-0.15332266688346863,-0.07444700598716736,-0.09910997003316879
1761371112974552000,8.283552001953124,-0.09712471067905426,0.004352286923676729,-0.16080553829669952
1761371112993163300,8.302163330078125,-0.08490777015686035,0.009239064529538155,-0.22250111401081085
1761371113011775700,8.320775634765624,-0.11178504675626755,-0.03779617324471474,-0.2793098986148834
1761371113030387000,8.339386962890625,-0.16248537600040436,-0.1587439328432083,-0.3379512429237366
1761371113048999400,8.35799951171875,-0.24433889985084534,-0.31267744302749634,-0.3752129375934601
1761371113067610600,8.376610595703125,-0.32008397579193115,-0.36582115292549133,-0.3220692276954651
1761371113086223000,8.39522314453125,-0.34573954343795776,-0.33772218227386475,-0.1772984117269516
1761371113104834300,8.413834228515626,-0.3530697226524353,-0.34810659289360046,-0.04107947647571564
1761371113123446800,8.43244677734375,-0.34696123003959656,-0.3700970709323883,0.04085041210055351
1761371113142058000,8.45105810546875,-0.337798535823822,-0.2882435619831085,0.09949174523353577
1761371113160670500,8.46967041015625,-0.37506023049354553,-0.17951273918151855,0.16973918676376343
1761371113179281700,8.48828173828125,-0.4446968138217926,-0.15446799993515015,0.24181915819644928
1761371113197894100,8.50689404296875,-0.5522059202194214,-0.2131093442440033,0.280913382768631
1761371113216505300,8.52550537109375,-0.5851916670799255,-0.23326729238033295,0.25953373312950134
1761371113235118000,8.5441181640625,-0.522885262966156,-0.6040515899658203,0.04879142343997955
1761371113253729000,8.56272900390625,-0.4318690001964569,-0.9449043273925781,-0.13148486614227295
1761371113272341800,8.581341796875,-0.4159869849681854,-1.0047674179077148,-0.26342788338661194
1761371113290952700,8.59995263671875,-0.4746283292770386,-1.028590440750122,-0.35200074315071106
1761371113309565400,8.6185654296875,-0.5876350402832031,-1.0884534120559692,-0.36971530318260193
1761371113328176400,8.63717626953125,-0.6633801460266113,-1.0713497400283813,-0.20784078538417816
1761371113346789000,8.6557890625,-0.7287407517433167,-0.875267744064331,0.08910734206438065
1761371113365400000,8.674400146484375,-0.7189671993255615,-0.44400960206985474,0.41774317622184753
1761371113384012800,8.6930126953125,-0.6420004963874817,-0.11170869320631027,0.5777851343154907
1761371113402623700,8.711623779296875,-0.5405998229980469,-0.0231358390301466,0.5124244689941406
1761371113421236500,8.730236572265625,-0.44103172421455383,-0.015194825828075409,0.33650049567222595
1761371113439847400,8.748847412109376,-0.41232189536094666,-0.05062396824359894,0.1465269923210144
1761371113458460200,8.767460205078125,-0.43858832120895386,-0.18073442578315735,-0.029473381116986275
1761371113477071400,8.7860712890625,-0.4966188073158264,-0.26991814374923706,-0.1907370537519455
1761371113495683800,8.804683837890625,-0.5796940326690674,-0.21799612045288086,-0.3452814221382141
1761371113514295000,8.823294921875,-0.6878139972686768,-0.08544225990772247,-0.4937172830104828
1761371113532907500,8.841907470703125,-0.8044858574867249,0.031229566782712936,-0.5908420085906982
1761371113551518700,8.860518798828124,-0.8686248064041138,0.1265217363834381,-0.6012263894081116
1761371113570131200,8.879131103515626,-0.7928797602653503,0.1814979910850525,-0.5309789776802063
1761371113588742400,8.897742431640625,-0.6749862432479858,0.18455222249031067,-0.43324342370033264
1761371113607355000,8.91635498046875,-0.5662553906440735,0.1527881771326065,-0.31290650367736816
1761371113625966000,8.934966064453125,-0.47646087408065796,0.09475768357515335,-0.14858859777450562
1761371113644578600,8.95357861328125,-0.43614494800567627,0.006184828467667103,0.08727480471134186
1761371113663189800,8.972189697265625,-0.4679090082645416,-0.01885990984737873,0.3432198166847229
1761371113681802200,8.99080224609375,-0.5070032477378845,-0.014583977870643139,0.509981095790863
1761371113700413400,9.009413330078125,-0.5106683373451233,-0.02924431301653385,0.5643464922904968
1761371113719026000,9.02802587890625,-0.5008947253227234,-0.034131091088056564,0.5496861934661865
1761371113737637000,9.04663720703125,-0.46241137385368347,0.03733803704380989,0.5234197378158569
1761371113756249900,9.065249755859375,-0.3958290219306946,0.17783290147781372,0.5014292597770691
1761371113774860800,9.08386083984375,-0.3011476993560791,0.35436776280403137,0.4727194309234619
1761371113793473500,9.1024736328125,-0.20585553348064423,0.29450473189353943,0.40552622079849243
1761371113812084500,9.12108447265625,-0.14843589067459106,0.048333290964365005,0.308401495218277
1761371113830697200,9.139697265625,-0.16553960740566254,-0.03229855000972748,0.2515927255153656
1761371113849308200,9.15830810546875,-0.23945212364196777,0.06055023521184921,0.24792763590812683
1761371113867921000,9.1769208984375,-0.2761029601097107,0.3085542321205139,0.25953373312950134
1761371113886531800,9.19553173828125,-0.23028941452503204,0.42095011472702026,0.28335678577423096
1761371113905144600,9.21414453125,-0.183865025639534,0.4270585775375366,0.29984965920448303
1761371113923755500,9.232755615234375,-0.19363857805728912,0.2609081268310547,0.23571068048477173
1761371113942368300,9.2513681640625,-0.21257483959197998,0.023899398744106293,0.12636902928352356
1761371113960979200,9.269979248046875,-0.2626643180847168,-0.174625962972641,0.026190076023340225
1761371113979592000,9.288592041015624,-0.33169007301330566,-0.28335678577423096,0.053678203374147415
1761371113998203100,9.307203125,-0.37200596928596497,-0.20944425463676453,0.20272493362426758
1761371114016815600,9.325815673828124,-0.37139514088630676,-0.1080436110496521,0.31389912962913513
1761371114035426800,9.3444267578125,-0.2980934679508209,-0.035352785140275955,0.2882435619831085
1761371114054039300,9.363039306640625,-0.23334364593029022,-0.022524992004036903,0.13247749209403992
1761371114072650500,9.381650390625,-0.2223484069108963,-0.12453648447990417,-0.03680354729294777
1761371114091263000,9.400262939453125,-0.29259583353996277,-0.24120831489562988,-0.09605573117733002
1761371114109874200,9.418874267578126,-0.3946073353290558,-0.24731677770614624,-0.058183200657367706
1761371114128486700,9.437486572265625,-0.4752391576766968,-0.12636902928352356,0.013362283818423748
1761371114147097900,9.456097900390626,-0.5167768001556396,-0.03962871432304382,0.0695602297782898
1761371114165710300,9.47471044921875,-0.53143709897995,-0.07261446863412857,0.08910734206438065
1761371114184321500,9.493321533203124,-0.5033381581306458,-0.16851748526096344,0.07017108052968979
1761371114202934300,9.511934326171875,-0.4813476502895355,-0.29923880100250244,0.03229855000972748
1761371114221545200,9.530545166015624,-0.4978405237197876,-0.4091913104057312,-0.0050394898280501366
1761371114240158000,9.549157958984376,-0.522885262966156,-0.436068594455719,0.012140588834881783
1761371114258769000,9.567768798828125,-0.5467082858085632,-0.41713231801986694,0.07566870748996735
1761371114277381600,9.586381591796876,-0.5076140761375427,-0.32428354024887085,0.24304085969924927
1761371114295992600,9.60499267578125,-0.49295374751091003,-0.2815242409706116,0.36093437671661377
1761371114314605300,9.623605224609374,-0.46546560525894165,-0.3016822040081024,0.3963635265827179
1761371114333216300,9.64221630859375,-0.45019441843032837,-0.3841465711593628,0.3450523316860199
1761371114351829000,9.6608291015625,-0.46302223205566406,-0.46661093831062317,0.2405974566936493
1761371114370440000,9.67943994140625,-0.4984513521194458,-0.49470990896224976,0.15385715663433075
1761371114389052700,9.698052734375,-0.5515950918197632,-0.47882789373397827,0.10987614840269089
1761371114407663600,9.71666357421875,-0.6438329815864563,-0.4898231327533722,0.0561215914785862
1761371114426276400,9.7352763671875,-0.7293516397476196,-0.4989858567714691,-0.009315420873463154
1761371114444887600,9.753887451171876,-0.7831062078475952,-0.49593162536621094,-0.05512896552681923
1761371114463500000,9.7725,-0.8258655071258545,-0.514867901802063,-0.06612421572208405
1761371114482111200,9.791111328125,-0.8521319031715393,-0.49409908056259155,-0.039857782423496246
1761371114500723700,9.8097236328125,-0.8710681796073914,-0.37803810834884644,-0.023364907130599022
1761371114519335000,9.8283349609375,-0.9003888368606567,-0.2503710091114044,-0.03924693539738655
1761371114537947400,9.846947509765625,-0.9370396733283997,-0.1465269923210144,-0.06673506647348404
1761371114556558600,9.86555859375,-0.9700254201889038,-0.0958266630768776,-0.06245913356542587
1761371114575171000,9.884171142578126,-1.0024003982543945,-0.0946049690246582,-0.029473381116986275
1761371114593782300,9.9027822265625,-0.9956810474395752,-0.1483595222234726,0.04146125912666321
1761371114612394800,9.921394775390626,-0.9358180165290833,-0.21799612045288086,0.1361425817012787
1761371114631006000,9.940005859375,-0.883895993232727,-0.21982865035533905,0.22838051617145538
1761371114649618400,9.958618408203124,-0.8527427911758423,-0.17706935107707977,0.3022930324077606
1761371114668229600,9.977229736328125,-0.8399149775505066,-0.16301986575126648,0.32672691345214844
1761371114686842000,9.995842041015624,-0.8496885299682617,-0.17951273918151855,0.27052897214889526
1761371114705453300,10.014453369140625,-0.8435800671577454,-0.19417306780815125,0.1349208950996399
1761371114724066000,10.033066162109375,-0.8496885299682617,-0.30901235342025757,-0.049020491540431976
1761371114742677000,10.051677001953125,-0.9040539264678955,-0.5576272010803223,-0.24693500995635986
1761371114761289700,10.070289794921875,-0.998735249042511,-0.7775322198867798,-0.3471139669418335
1761371114779900700,10.088900634765626,-1.086086392402649,-0.7793647646903992,-0.26464956998825073
1761371114798513400,10.107513427734375,-1.09219491481781,-0.5063160061836243,-0.072843536734581
1761371114817124400,10.126124267578126,-1.014006495475769,-0.061619218438863754,0.1086544543504715
1761371114835737000,10.144737060546875,-0.9046648144721985,0.17538951337337494,0.1214822456240654
1761371114854348000,10.16334814453125,-0.7916580438613892,0.10819631814956665,0.005421269219368696
1761371114872960800,10.181960693359375,-0.6957550048828125,-0.04390464723110199,-0.1241547018289566
1761371114891571700,10.20057177734375,-0.5906893014907837,-0.12881241738796234,-0.15775130689144135
1761371114910184400,10.219184326171876,-0.46424391865730286,-0.11476293206214905,-0.08628217875957489
1761371114928795400,10.23779541015625,-0.33596599102020264,-0.08788564801216125,0.029855160042643547
1761371114947408100,10.256408203125,-0.22967857122421265,-0.09093988686800003,0.1459161341190338
1761371114966019000,10.27501904296875,-0.1459924876689911,-0.12270393967628479,0.227769672870636
1761371114984631800,10.2936318359375,-0.10017894953489304,-0.17829103767871857,0.2393757700920105
1761371115003242800,10.31224267578125,-0.08185353130102158,-0.23448899388313293,0.18928629159927368
1761371115021855500,10.33085546875,-0.09040539711713791,-0.2680855989456177,0.1086544543504715
1761371115040466400,10.349466552734375,-0.12888877093791962,-0.24914932250976562,0.05306735634803772
1761371115059079200,10.3680791015625,-0.17348061501979828,-0.15019206702709198,0.06772769242525101
1761371115077690400,10.3866904296875,-0.17775654792785645,-0.05062396824359894,0.14164020121097565
1761371115096302800,10.405302734375,-0.1319430023431778,0.004352286923676729,0.1996707022190094
1761371115114914000,10.4239140625,-0.061084724962711334,0.00862821750342846,0.21066594123840332
1761371115133526500,10.442526611328125,0.010995250195264816,-0.07566870748996735,0.1752368062734604
1761371115152137500,10.461137451171876,0.02626643143594265,-0.30412557721138,0.08299887180328369
1761371115170750200,10.479750244140625,0.007941014133393764,-0.4727194309234619,0.08360971510410309
1761371115189361400,10.498361328125,-0.0653606578707695,-0.44278791546821594,0.23448899388313293
1761371115207974000,10.516973876953125,-0.16248537600040436,-0.18439951539039612,0.41285640001296997
1761371115226585000,10.535585205078124,-0.2345653474330902,0.14362546801567078,0.45500484108924866
1761371115245197600,10.554197509765626,-0.24372805655002594,0.3891860544681549,0.34993913769721985
1761371115263808800,10.572808837890625,-0.1985253542661667,0.559001624584198,0.14897038042545319
1761371115282421200,10.591421142578126,-0.17286977171897888,0.6335249543190002,-0.022754060104489326
1761371115301032400,10.610032470703125,-0.21379654109477997,0.6536829471588135,-0.09422318637371063
1761371115319645000,10.62864501953125,-0.288930743932724,0.6451310515403748,-0.09361234307289124
1761371115338256100,10.647256103515625,-0.3310792148113251,0.7019398808479309,-0.03374931216239929
1761371115356868600,10.66586865234375,-0.2718270421028137,0.9047411680221558,0.11781716346740723
1761371115375479800,10.684479736328125,-0.13988402485847473,1.0195804834365845,0.28641101717948914
1761371115394092300,10.70309228515625,-0.01588202826678753,1.031186580657959,0.35238251090049744
1761371115412703500,10.721703369140625,0.026877280324697495,0.818000853061676,0.3218401372432709
1761371115431316000,10.74031591796875,0.062306419014930725,0.665289044380188,0.2399866133928299
1761371115449927200,10.75892724609375,0.11300674080848694,0.5712185502052307,0.1587439328432083
1761371115468539600,10.77753955078125,0.25289076566696167,0.4154524803161621,0.15324631333351135
1761371115487150800,10.79615087890625,0.33718767762184143,0.25174543261528015,0.16424155235290527
1761371115505763300,10.814763427734375,0.342074453830719,0.043446511030197144,0.1477486789226532
1761371115524374500,10.83337451171875,0.2376195788383484,-0.45256146788597107,0.15813308954238892
1761371115542987000,10.851987060546875,0.04825693368911743,-0.8935931921005249,0.10560022294521332
1761371115561598200,10.87059814453125,-0.11667182296514511,-0.8282325267791748,0.11598462611436844
1761371115580210700,10.889210693359376,-0.2583884000778198,-0.7317186594009399,0.18378867208957672
