time,seconds_elapsed,z,y,x
1761369877267282200,0.1912822265625,0.17958909273147583,0.5644991993904114,0.17829103767871857
1761369877285891800,0.209891845703125,0.13682979345321655,0.9707126617431641,0.034131091088056564
1761369877304503300,0.22850341796875,0.18142163753509521,1.2823210954666138,-0.0850604772567749
1761369877323113000,0.247113037109375,0.265718549489975,1.2725476026535034,-0.08933641016483307
1761369877341724400,0.265724365234375,0.3927747905254364,1.26399564743042,0.04390464723110199
1761369877360334300,0.284334228515625,0.5900784730911255,1.3049224615097046,0.20394663512706757
1761369877378945500,0.302945556640625,0.8711445331573486,1.3934953212738037,0.28580015897750854
1761369877397555500,0.321555419921875,1.2119972705841064,1.4411413669586182,0.32733777165412903
1761369877416166700,0.340166748046875,1.5125341415405273,1.5443745851516724,0.2393757700920105
1761369877434776600,0.358776611328125,1.64569890499115,1.8583500385284424,0.005421269219368696
1761369877453387800,0.3773876953125,1.4935978651046753,1.9964015483856201,-0.32878854870796204
1761369877471997700,0.395997802734375,1.1838983297348022,1.6598247289657593,-0.39353835582733154
1761369877490609000,0.41460888671875,1.0238564014434814,1.109375,-0.5963396430015564
1761369877509218800,0.43321875,1.061728835105896,0.7324821949005127,-0.7997517585754395
1761369877527830300,0.451830322265625,1.1900068521499634,0.43622130155563354,-0.9035958051681519
1761369877546440000,0.47043994140625,1.3439403772354126,0.3531460762023926,-0.8425110578536987
1761369877565051400,0.489051513671875,1.5510175228118896,0.6982747912406921,-0.8828269839286804
1761369877583661000,0.5076611328125,1.8014649152755737,0.7929561138153076,-0.8919897079467773
1761369877602272500,0.5262724609375,2.0097639560699463,0.6506286859512329,-0.8791618943214417
1761369877620882200,0.544882080078125,2.0366411209106445,0.4319453537464142,-0.9604045748710632
1761369877639493600,0.56349365234375,1.8075734376907349,0.22364644706249237,-0.9958337545394897
1761369877658103600,0.582103515625,1.446562647819519,0.24930204451084137,-0.857782244682312
1761369877676714800,0.60071484375,1.2156623601913452,0.35436776280403137,-0.5028799772262573
1761369877695324700,0.61932470703125,1.2474265098571777,0.46309858560562134,-0.09544488787651062
1761369877713936000,0.637935791015625,1.4068576097488403,0.6072585582733154,0.20211409032344818
1761369877732545800,0.6565458984375,1.5137559175491333,0.5290700793266296,0.4000285863876343
1761369877751157200,0.6751572265625,1.5357463359832764,0.18394137918949127,0.37498384714126587
1761369877769767000,0.693766845703125,1.6353144645690918,0.11002886295318604,0.12392564117908478
1761369877788378400,0.71237841796875,1.7177788019180298,0.2596864402294159,-0.09605573117733002
1761369877806988300,0.73098828125,1.751375436782837,0.38613182306289673,-0.3067980408668518
1761369877825599500,0.749599609375,1.525972843170166,0.2871745824813843,-0.5554128885269165
1761369877844209400,0.76820947265625,1.2052780389785767,0.3274904787540436,-0.775317907333374
1761369877862820600,0.786820556640625,0.924288272857666,0.17722205817699432,-0.9512419104576111
1761369877881430500,0.805430419921875,0.724541187286377,0.0037414394319057465,-1.0312628746032715
1761369877900042000,0.8240419921875,0.6726191639900208,0.023899398744106293,-1.1131163835525513
1761369877918651600,0.842651611328125,0.6768951416015625,-0.08666395395994186,-1.190693974494934
1761369877937263000,0.86126318359375,0.7306496500968933,-0.17035003006458282,-1.2413944005966187
1761369877955873000,0.879873046875,0.7795174717903137,-0.24670593440532684,-1.2499462366104126
1761369877974484200,0.898484130859375,0.7850151062011719,-0.5447993874549866,-1.1302201747894287
1761369877993094100,0.91709423828125,0.7196544408798218,-0.6681905388832092,-0.8199097514152527
1761369878011705300,0.935705322265625,0.6524612307548523,-0.5014292597770691,-0.5370874404907227
1761369878030315300,0.954315185546875,0.6842252612113953,-0.3566584289073944,-0.3739912211894989
1761369878048926700,0.9729267578125,0.7147676348686218,-0.3981960713863373,-0.24815669655799866
1761369878067536400,0.991536376953125,0.7923452258110046,-0.3316137194633484,-0.07834116369485855
1761369878086147800,1.01014794921875,0.9334509968757629,-0.308401495218277,0.08299887180328369
1761369878104757800,1.0287578125,1.0427926778793335,-0.35238251090049744,0.18378867208957672
1761369878123369000,1.047368896484375,1.1142617464065552,-0.21799612045288086,0.2888543903827667
1761369878141979000,1.065978759765625,1.294461727142334,0.16072918474674225,0.32672691345214844
1761369878160590300,1.08459033203125,1.400138258934021,0.1821088343858719,0.19234053790569305
1761369878179200000,1.103199951171875,1.3237823247909546,0.0361163429915905,-0.05024218559265137
1761369878197811500,1.1218115234375,1.0018658638000488,-0.09949174523353577,-0.3477247953414917
1761369878216421400,1.14042138671875,0.6286382079124451,0.18760646879673004,-0.566408097743988
1761369878235032600,1.159032470703125,0.30847787857055664,0.6707866191864014,-0.5609105229377747
1761369878253642500,1.177642578125,0.20096874237060547,0.9212340116500854,-0.34405970573425293
1761369878272253700,1.196253662109375,0.36223241686820984,0.9817079305648804,-0.14186927676200867
1761369878290863600,1.214863525390625,0.8076164126396179,0.8063947558403015,0.00908635277301073
1761369878309475000,1.23347509765625,1.3042352199554443,0.5046361684799194,0.13919681310653687
1761369878328084700,1.252084716796875,1.4618338346481323,0.12102411687374115,0.19295138120651245
1761369878346696200,1.2706962890625,1.2871315479278564,-0.08971819281578064,0.2381540685892105
1761369878365306000,1.28930615234375,1.0941038131713867,-0.03168770298361778,0.16973918676376343
1761369878383917300,1.307917236328125,0.8741987943649292,0.1289651244878769,-0.054518118500709534
1761369878402527200,1.32652734375,0.6781167984008789,0.2749576270580292,-0.3220692276954651
1761369878421138700,1.345138671875,0.4960079789161682,0.2602972984313965,-0.59023118019104
1761369878439748400,1.363748291015625,0.3823903799057007,0.19066070020198822,-0.7997517585754395
1761369878458359800,1.38235986328125,0.3365768492221832,0.12346750497817993,-0.8131904006004333
1761369878476969700,1.4009697265625,0.2767138183116913,0.05688514932990074,-0.575570821762085
1761369878495581000,1.419580810546875,0.27121618390083313,-0.044515494257211685,-0.22005772590637207
1761369878514190800,1.43819091796875,0.36162158846855164,-0.11170869320631027,0.03474193811416626
1761369878532802300,1.45680224609375,0.5155550837516785,-0.10560022294521332,0.18195612728595734
1761369878551412000,1.475411865234375,0.6292490363121033,-0.03718532621860504,0.31023404002189636
1761369878570023400,1.4940234375,0.697053074836731,-0.013362283818423748,0.41591063141822815
1761369878588633300,1.51263330078125,0.7312605381011963,-0.07566870748996735,0.4904339909553528
1761369878607244500,1.53124462890625,0.7642462849617004,-0.14164020121097565,0.5014292597770691
1761369878625854500,1.5498544921875,0.8015079498291016,-0.17035003006458282,0.4519506096839905
1761369878644466000,1.5684658203125,0.8320503234863281,-0.19050799310207367,0.3407764136791229
1761369878663075800,1.587075927734375,0.8387696146965027,-0.21555273234844208,0.1587439328432083
1761369878681687000,1.60568701171875,0.7862367630004883,-0.0946049690246582,-0.04291202127933502
1761369878700297000,1.624296875,0.6506286859512329,0.13507360219955444,-0.18646112084388733
1761369878718908400,1.642908447265625,0.4752391576766968,0.34337252378463745,-0.26098448038101196
1761369878737518000,1.66151806640625,0.2877090573310852,0.4808131456375122,-0.30007871985435486
1761369878756129500,1.680129638671875,0.09956810623407364,0.4698179066181183,-0.2976353168487549
1761369878774739500,1.698739501953125,-0.0012216945178806782,0.3116084635257721,-0.2793098986148834
1761369878793351000,1.717350830078125,-0.04703523963689804,0.03733803704380989,-0.31351736187934875
1761369878811960600,1.735960693359375,-0.06902574002742767,-0.10071343928575516,-0.39476004242897034
1761369878830572000,1.754572021484375,-0.09345962852239609,-0.14530529081821442,-0.46867257356643677
1761369878849182000,1.773181884765625,-0.1447708010673523,-0.15141376852989197,-0.46867257356643677
1761369878867793200,1.791793212890625,-0.1979145109653473,-0.09643751382827759,-0.3361186981201172
1761369878886403000,1.810403076171875,-0.17714570462703705,-0.050013117492198944,-0.10155335813760757
1761369878905014500,1.8290146484375,-0.061084724962711334,0.023288551717996597,0.10621106624603271
1761369878923624400,1.84762451171875,0.07757759839296341,0.05138752609491348,0.19111883640289307
1761369878942235600,1.866235595703125,0.16248537600040436,-0.005421269219368696,0.19172967970371246
1761369878960845600,1.884845458984375,0.22051586210727692,-0.09338327497243881,0.2387649267911911
1761369878979457000,1.90345703125,0.2877090573310852,-0.06467345356941223,0.4385119676589966
1761369878998066700,1.922066650390625,0.41354358196258545,0.009849912486970425,0.8074637055397034
1761369879016678100,1.94067822265625,0.6378008723258972,0.011682453565299511,1.22222900390625
1761369879035288000,1.9592880859375,0.9316184520721436,-0.05306735634803772,1.4299170970916748
1761369879053899300,1.977899169921875,1.2242143154144287,-0.05184566229581833,1.3767733573913574
1761369879072509200,1.99650927734375,1.3750935792922974,-0.03168770298361778,1.0536351203918457
1761369879091120600,2.01512060546875,1.2895748615264893,0.24075017869472504,0.45683738589286804
1761369879109730600,2.03373046875,1.015304446220398,0.4191175699234009,-0.09177979826927185
1761369879128341800,2.052341796875,0.5906893014907837,0.3335989713668823,-0.2958027720451355
1761369879146951700,2.07095166015625,0.3414636254310608,0.2615189850330353,-0.17485502362251282
1761369879165563100,2.089563232421875,0.37567105889320374,0.14545799791812897,0.021914144977927208
1761369879184173000,2.108173095703125,0.5577035546302795,0.07093463838100433,0.15080291032791138
1761369879202784300,2.1267841796875,0.7349256277084351,0.14667969942092896,0.23021306097507477
1761369879221394200,2.145394287109375,0.8210550546646118,0.33237725496292114,0.27358320355415344
1761369879240005600,2.164005615234375,0.7905126810073853,0.46065518260002136,0.2644205093383789
1761369879258615600,2.182615478515625,0.6567371487617493,0.49974942207336426,0.19050799310207367
1761369879277227000,2.20122705078125,0.5008947253227234,0.4966951906681061,0.0555107444524765
1761369879295836700,2.219836669921875,0.40071579813957214,0.42400434613227844,-0.18157434463500977
1761369879314448100,2.2384482421875,0.37261682748794556,0.4722612798213959,-0.40697699785232544
1761369879333058000,2.25705810546875,0.4159869849681854,0.5144097208976746,-0.5694623589515686
1761369879351669500,2.27566943359375,0.5528167486190796,0.41972842812538147,-0.6323796510696411
1761369879370279200,2.294279052734375,0.7208760976791382,0.23708508908748627,-0.6085565686225891
1761369879388890600,2.312890625,0.8302177786827087,0.12102411687374115,-0.5780141949653625
1761369879407500500,2.33150048828125,0.8448781371116638,0.07154548168182373,-0.5462501645088196
1761369879426112000,2.350112060546875,0.7648571133613586,0.09170344471931458,-0.4424061179161072
1761369879444721700,2.3687216796875,0.5803049206733704,0.15767495334148407,-0.31412819027900696
1761369879463333000,2.3873330078125,0.390942245721817,0.21020781993865967,-0.19806721806526184
1761369879481943000,2.405943115234375,0.2987042963504791,0.1814979910850525,-0.08872556686401367
1761369879500554500,2.424554443359375,0.314586341381073,0.21570543944835663,0.00908635277301073
1761369879519164400,2.443164306640625,0.469741553068161,0.18638476729393005,0.10071343928575516
1761369879537775600,2.461775634765625,0.6402443051338196,0.27923354506492615,0.09643751382827759
1761369879556385500,2.480385498046875,0.6903337836265564,0.33115556836128235,-0.0844496339559555
1761369879574997000,2.4989970703125,0.5931326746940613,0.37208232283592224,-0.36910444498062134
1761369879593607000,2.51760693359375,0.42576053738594055,0.5388436317443848,-0.5493044257164001
1761369879612218400,2.53621826171875,0.19241689145565033,0.6249731183052063,-0.5890094637870789
1761369879630828000,2.554828125,0.12522368133068085,0.7819608449935913,-0.6171084642410278
1761369879649439500,2.573439453125,0.30481278896331787,1.021412968635559,-0.6598677635192871
1761369879668049400,2.59204931640625,0.7935669422149658,1.1020448207855225,-0.47355934977531433
1761369879686660900,2.610660888671875,1.4502277374267578,0.8424347043037415,0.06589514762163162
1761369879705270800,2.629270751953125,1.8558303117752075,0.4001813232898712,0.5771743059158325
1761369879723882000,2.647882080078125,1.8845402002334595,0.1014770045876503,0.8532772660255432
1761369879742492000,2.666491943359375,1.5736188888549805,0.19921256601810455,0.8092962503433228
1761369879761103400,2.685103271484375,1.1710705757141113,0.5480063557624817,0.5026509165763855
1761369879779713300,2.70371337890625,0.7697439193725586,0.803340494632721,0.14530529081821442
1761369879798324700,2.72232470703125,0.3158080279827118,0.6634564995765686,-0.11987877637147903
1761369879816934700,2.7409345703125,-0.047646086663007736,0.5150206089019775,-0.3764346241950989
1761369879835545900,2.7595458984375,-0.10995250940322876,0.4282802939414978,-0.8382351398468018
1761369879854155800,2.77815576171875,0.25289076566696167,0.5681642889976501,-1.268271565437317
1761369879872767200,2.796767333984375,0.6475744247436523,0.7679113745689392,-1.449693202972412
1761369879891377200,2.815377197265625,0.8430455923080444,0.6237514019012451,-1.3739482164382935
1761369879909988600,2.833988525390625,1.0372949838638306,0.4722612798213959,-1.0459232330322266
1761369879928598300,2.852598388671875,1.1881742477416992,0.2749576270580292,-0.5761816501617432
1761369879947209700,2.871209716796875,1.1301437616348267,0.15584240853786469,-0.06978929787874222
1761369879965819600,2.889819580078125,0.9255099296569824,0.1295759677886963,0.4256841838359833
1761369879984431000,2.90843115234375,0.7214869856834412,0.1143047958612442,0.72683185338974
1761369880003041000,2.927041015625,0.5851916670799255,0.05138752609491348,0.778143048286438
1761369880021652500,2.945652587890625,0.5051707029342651,0.013514995574951172,0.6199336051940918
1761369880040262400,2.964262451171875,0.47768256068229675,0.01901262067258358,0.3468848764896393
1761369880058873600,2.98287353515625,0.518609344959259,0.09659022092819214,0.0420721061527729
1761369880077483500,3.0014833984375,0.6042042970657349,0.22364644706249237,-0.20600824058055878
1761369880096095000,3.020094970703125,0.6836144328117371,0.3201603293418884,-0.362995982170105
1761369880114705000,3.038704833984375,0.7422557473182678,0.2963372766971588,-0.4668400287628174
1761369880133316400,3.05731640625,0.771576464176178,0.16134002804756165,-0.5212054252624512
1761369880151926300,3.07592626953125,0.7691330313682556,-0.004199574701488018,-0.567018985748291
1761369880170537500,3.094537353515625,0.7495859265327454,-0.19783815741539001,-0.6384881138801575
1761369880189147400,3.1131474609375,0.7172110676765442,-0.3285594582557678,-0.7252284288406372
1761369880207758800,3.1317587890625,0.5686988234519958,-0.41468894481658936,-0.6580352187156677
1761369880226368800,3.15036865234375,0.3555130958557129,-0.3560476005077362,-0.435075968503952
1761369880244980200,3.168980224609375,0.24433889985084534,-0.0683385357260704,-0.14370182156562805
1761369880263590100,3.187590087890625,0.2376195788383484,0.10636378079652786,0.08971819281578064
1761369880282201300,3.206201416015625,0.28221142292022705,0.13201937079429626,0.24365170300006866
1761369880300811300,3.224811279296875,0.3665083646774292,0.09475768357515335,0.24609509110450745
1761369880319422700,3.243422607421875,0.36101073026657104,0.0067956759594380856,0.11109784245491028
1761369880338032600,3.26203271484375,0.21990501880645752,-0.06406260281801224,-0.06551336497068405
1761369880356644000,3.28064404296875,0.026877280324697495,-0.15385715663433075,-0.13576079905033112
1761369880375254000,3.29925390625,-0.0781884491443634,-0.31267744302749634,-0.04169032722711563
1761369880393865500,3.317865478515625,-0.03237490355968475,-0.32672691345214844,0.20333577692508698
1761369880412475400,3.336475341796875,0.15943112969398499,-0.16973918676376343,0.5289173722267151
1761369880431086600,3.355086669921875,0.37506023049354553,-0.023746687918901443,0.8893172740936279
1761369880449696500,3.373696533203125,0.6176429390907288,-0.0426829531788826,1.235056757926941
1761369880468308000,3.392307861328125,0.9420028328895569,-0.173404261469841,1.5019971132278442
1761369880486918000,3.41091796875,1.1784007549285889,-0.3303920030593872,1.5789637565612793
1761369880505529300,3.429529296875,1.2639193534851074,-0.4611133337020874,1.3505069017410278
1761369880524139300,3.44813916015625,1.1820658445358276,-0.2405974566936493,0.6865159869194031
1761369880542750700,3.466750732421875,0.9511655569076538,0.07154548168182373,-0.17485502362251282
1761369880561360600,3.485360595703125,0.609701931476593,0.33115556836128235,-0.8773293495178223
1761369880579971800,3.503971923828125,0.2919849753379822,0.5828246474266052,-1.1693143844604492
1761369880598581800,3.522581787109375,-0.042759306728839874,0.5192965269088745,-0.9775083065032959
1761369880617193200,3.541193115234375,-0.284654825925827,0.2334200143814087,-0.4088095426559448
1761369880635803100,3.55980322265625,-0.2345653474330902,-0.0164165198802948,0.13003410398960114
1761369880654414600,3.57841455078125,0.0781884491443634,0.15034478902816772,0.42629504203796387
1761369880673024500,3.5970244140625,0.5564818382263184,0.47775891423225403,0.49470990896224976
1761369880691636000,3.615635986328125,0.9810970425605774,0.7098808884620667,0.42629504203796387
1761369880710246000,3.634245849609375,1.1900068521499634,0.7465317249298096,0.380481481552124
1761369880728857000,3.652857177734375,1.2724711894989014,0.6390225887298584,0.3053472638130188
1761369880747467000,3.671467041015625,1.1258678436279297,0.5137988924980164,0.024968381971120834
1761369880766078500,3.690078369140625,0.6274164915084839,0.46309858560562134,-0.3837648034095764
1761369880784688400,3.7086884765625,0.3915531039237976,0.27862271666526794,-0.5267030596733093
1761369880803299800,3.7272998046875,0.47707170248031616,0.18271969258785248,-0.5328115224838257
1761369880821909800,3.74590966796875,0.5583143830299377,0.29389387369155884,-0.4039227366447449
1761369880840521200,3.764521240234375,0.632914125919342,0.4154524803161621,-0.10155335813760757
1761369880859131100,3.783131103515625,0.6817818880081177,0.5211290717124939,0.2644205093383789
1761369880877742600,3.80174267578125,0.7098808884620667,0.6011500358581543,0.5124244689941406
1761369880896352500,3.8203525390625,0.7544727325439453,0.6365792155265808,0.542356014251709
1761369880914963700,3.838963623046875,0.7776849269866943,0.6579588651657104,0.3578801453113556
1761369880933573600,3.85757373046875,0.8283852338790894,0.6084802150726318,0.04634803533554077
1761369880952185000,3.87618505859375,0.9597173929214478,0.5199073553085327,-0.23410721123218536
1761369880970795000,3.894794921875,0.9896489381790161,0.3500918447971344,-0.40575528144836426
1761369880989406500,3.913406494140625,0.8375479578971863,0.14912308752536774,-0.548082709312439
1761369881008016400,3.932016357421875,0.5418215394020081,0.11613733321428299,-0.6366555690765381
1761369881026627800,3.9506279296875,0.25655585527420044,0.3342097997665405,-0.5853443741798401
1761369881045237800,3.96923779296875,0.12522368133068085,0.794788658618927,-0.47172680497169495
1761369881063849200,3.98784912109375,0.16798299551010132,1.255443811416626,-0.4088095426559448
1761369881082459100,4.006459228515625,0.3170297145843506,1.4521366357803345,-0.43263256549835205
1761369881101070300,4.0250703125,0.5100574493408203,1.2267340421676636,-0.4619532525539398
1761369881119680300,4.04368017578125,0.7184327244758606,0.7422557473182678,-0.36910444498062134
1761369881138291700,4.062291748046875,0.8503757119178772,0.3763582706451416,-0.16630317270755768
1761369881156901600,4.080901611328125,0.8748096227645874,0.3079433739185333,0.013362283818423748
1761369881175513000,4.09951318359375,0.8552625179290771,0.3867426812648773,0.09093988686800003
1761369881194123000,4.118123046875,0.8351045846939087,0.5480063557624817,0.05795413255691528
1761369881212734500,4.136734375,0.8057838678359985,0.6255839467048645,-0.036192700266838074
1761369881231344400,4.155344482421875,0.7453100085258484,0.5913764834403992,-0.1638597846031189
1761369881249955800,4.173955810546875,0.6903337836265564,0.4325562119483948,-0.4381301999092102
1761369881268565500,4.1925654296875,0.72026526927948,0.25418880581855774,-0.8993198871612549
1761369881287177000,4.211177001953125,0.7813500165939331,0.14423631131649017,-1.352568507194519
1761369881305787000,4.229786865234375,0.7330930829048157,0.03367295488715172,-1.5443745851516724
1761369881324398300,4.2483984375,0.5925218462944031,-0.09399411827325821,-1.3782241344451904
1761369881343008300,4.26700830078125,0.4569137394428253,-0.09643751382827759,-0.9768974781036377
1761369881361619700,4.28561962890625,0.38605546951293945,0.13812783360481262,-0.4149180054664612
1761369881380229600,4.304229736328125,0.34451785683631897,0.21509459614753723,0.02680092304944992
1761369881398841000,4.322841064453125,0.3298575282096863,0.24808034300804138,0.1856212168931961
1761369881417451000,4.341450927734375,0.3115321099758148,0.2835094928741455,0.15568970143795013
1761369881436062500,4.3600625,0.2767138183116913,0.2725142240524292,0.052456509321928024
1761369881454672400,4.37867236328125,0.2748812735080719,0.19860170781612396,-0.06429167091846466
1761369881473283600,4.39728369140625,0.3176405727863312,0.18943901360034943,-0.1779092699289322
1761369881491893500,4.4158935546875,0.3921639323234558,0.16989189386367798,-0.282364159822464
1761369881510505000,4.4345048828125,0.469741553068161,0.16378341615200043,-0.36605021357536316
1761369881529115000,4.453114990234375,0.497229665517807,0.16195088624954224,-0.388651579618454
1761369881547726300,4.471726318359375,0.46546560525894165,0.09414683282375336,-0.3232909142971039
1761369881566336300,4.490336181640625,0.3958290219306946,-0.03352024406194687,-0.19867807626724243
1761369881584947700,4.50894775390625,0.3042019307613373,-0.14530529081821442,-0.06856760382652283
1761369881603557600,4.5275576171875,0.19974705576896667,-0.19356222450733185,0.01763821393251419
1761369881622169000,4.546169189453125,0.0525328628718853,-0.19722731411457062,0.021303297951817513
1761369881640779000,4.564779052734375,-0.1692046970129013,-0.17951273918151855,0.007253811229020357
1761369881659390500,4.583390380859375,-0.40010493993759155,-0.10132429003715515,-0.024586603045463562
1761369881678000400,4.60200048828125,-0.5412106513977051,-0.05978667363524437,-0.13148486614227295
1761369881696611800,4.62061181640625,-0.5699204802513123,-0.04940227046608925,-0.3361186981201172
1761369881715221500,4.639221435546875,-0.5729747414588928,-0.11903885751962662,-0.5401417016983032
1761369881733833000,4.6578330078125,-0.6505523324012756,-0.28580015897750854,-0.6274928450584412
1761369881752443000,4.67644287109375,-0.7879929542541504,-0.4391228258609772,-0.4906630516052246
1761369881771054300,4.695054443359375,-0.8741224408149719,-0.4605024755001068,-0.11804623156785965
1761369881789664300,4.713664306640625,-0.8313631415367126,-0.3700970709323883,0.308401495218277
1761369881808275700,4.732275634765625,-0.6377245187759399,-0.21677441895008087,0.62543123960495
1761369881826885600,4.7508857421875,-0.2754921019077301,-0.05734328553080559,0.8471688032150269
1761369881845497000,4.7694970703125,0.17286977171897888,0.019623467698693275,0.9143620133399963
1761369881864107000,4.78810693359375,0.5638120174407959,-0.034131091088056564,0.8001335263252258
1761369881882718500,4.806718505859375,0.8393805027008057,-0.31328830122947693,0.5057051777839661
1761369881901328400,4.825328369140625,0.8998543620109558,-0.5460211038589478,0.0164165198802948
1761369881919939600,4.843939697265625,0.6274164915084839,-0.6193227767944336,-0.6885775923728943
1761369881938549500,4.862549560546875,0.10323318839073181,-0.6309288740158081,-1.3317997455596924
1761369881957161000,4.881160888671875,-0.4709632396697998,-0.7005654573440552,-1.533379316329956
1761369881975771000,4.89977099609375,-0.7617265582084656,-0.4507289230823517,-1.2627739906311035
1761369881994382300,4.91838232421875,-0.6737645268440247,-0.03290939703583717,-0.7117897868156433
1761369882012992300,4.9369921875,-0.3414636254310608,0.22303560376167297,-0.0856713280081749
1761369882031603700,4.955603759765625,-0.03298575058579445,0.2743467688560486,0.433625191450119
1761369882050213600,4.974213623046875,0.16431790590286255,0.17600037157535553,0.6865159869194031
1761369882068825000,4.9928251953125,0.24128466844558716,-0.04023956134915352,0.6620820760726929
1761369882087435000,5.01143505859375,0.18753011524677277,-0.17096087336540222,0.49409908056259155
1761369882106046500,5.03004638671875,0.05619794875383377,-0.19172967970371246,0.25953373312950134
1761369882124656400,5.048656494140625,-0.09529217332601547,-0.14041851460933685,0.05062396824359894
1761369882143267800,5.067267822265625,-0.17836740612983704,-0.05978667363524437,-0.05390727147459984
1761369882161877500,5.08587744140625,-0.20219044387340546,-0.0005344913806766272,-0.03436015918850899
1761369882180489000,5.104489013671875,-0.16431790590286255,0.045889899134635925,0.07750124484300613
1761369882199099000,5.123098876953125,-0.03542914241552353,0.09536852687597275,0.2796916961669922
1761369882217710300,5.14171044921875,0.23273280262947083,0.11247225105762482,0.5686224699020386
1761369882236320300,5.1603203125,0.5332696437835693,0.004963133949786425,0.8709918260574341
1761369882254931700,5.178931640625,0.6854469776153564,-0.120871402323246,1.087842583656311
1761369882273541600,5.197541748046875,0.5564818382263184,-0.23021306097507477,1.167252779006958
1761369882292153000,5.216153076171875,0.2779355049133301,-0.20700086653232574,1.1055572032928467
1761369882310763000,5.234762939453125,0.025655584409832954,-0.06345175951719284,0.8911498188972473
1761369882329374500,5.25337451171875,-0.0659715011715889,-0.09643751382827759,0.4226299524307251
1761369882347984400,5.271984375,-0.004275931045413017,-0.19661645591259003,-0.2701472043991089
1761369882366595800,5.290595947265625,-0.10628741979598999,-0.12820157408714294,-0.8125795722007751
1761369882385205500,5.30920556640625,-0.33596599102020264,0.08437328040599823,-0.9695672988891602
1761369882403817200,5.327817138671875,-0.5088357925415039,0.3372640311717987,-0.8089144825935364
1761369882422427000,5.346427001953125,-0.4300364851951599,0.5834354758262634,-0.6164975762367249
1761369882441038300,5.365038330078125,-0.07452336698770523,0.9810970425605774,-0.47233763337135315
1761369882459648300,5.383648193359375,0.32252734899520874,1.236507534980774,-0.2927485406398773
1761369882478259700,5.402259765625,0.724541187286377,1.2493354082107544,0.03290939703583717
1761369882496869600,5.42086962890625,1.1399173736572266,0.645741879940033,0.7530983090400696
1761369882515481000,5.439481201171875,1.174124836921692,-0.07261446863412857,1.2295591831207275
1761369882534091000,5.458091064453125,0.9896489381790161,-0.46905434131622314,1.3688323497772217
1761369882552702500,5.476702392578125,0.8015079498291016,-0.746379017829895,1.0548568964004517
1761369882571312400,5.4953125,0.6921663284301758,-0.7372162938117981,0.38964420557022095
1761369882589923800,5.513923828125,0.4056025743484497,-0.4098021686077118,-0.2163926362991333
1761369882608533800,5.53253369140625,0.015271181240677834,-0.31389912962913513,-0.35444411635398865
1761369882627145200,5.551145263671875,-0.40132665634155273,-0.47088688611984253,-0.20845162868499756
1761369882645755000,5.5697548828125,-0.7965448498725891,-0.4983749985694885,-0.17241163551807404
1761369882664366600,5.58836669921875,-1.1086877584457397,-0.2656421959400177,-0.11682453751564026
1761369882682976300,5.606976318359375,-1.3096565008163452,0.02695363573729992,0.1086544543504715
1761369882701587700,5.625587646484375,-1.368297815322876,0.26396235823631287,0.3413872718811035
1761369882720197600,5.64419775390625,-1.3310362100601196,0.30549997091293335,0.5319716334342957
1761369882748113700,5.67211376953125,-1.1453386545181274,-0.031076854094862938,0.7170583009719849
1761369882766725000,5.69072509765625,-0.9718579649925232,-0.43973368406295776,0.7732563018798828
1761369882785335000,5.7093349609375,-0.8087617754936218,-0.7048413753509521,0.703619658946991
1761369882803946500,5.727946533203125,-0.7653915882110596,-0.8092962503433228,0.5454102754592896
1761369882822556400,5.746556396484375,-0.8160919547080994,-0.8648833632469177,0.39330926537513733
1761369882841168000,5.76516796875,-0.9321529269218445,-0.8905389308929443,0.2131093442440033
1761369882859777800,5.78377783203125,-1.111131191253662,-0.9143620133399963,-0.02641914412379265
1761369882878389200,5.80238916015625,-1.3334795236587524,-0.8514447212219238,-0.2707580327987671
1761369882896999200,5.820999267578125,-1.6334055662155151,-0.6981220841407776,-0.35261157155036926
1761369882915610600,5.839610595703125,-1.9156169891357422,-0.7298861145973206,-0.2298312783241272
1761369882934220500,5.858220458984375,-2.0775678157806396,-0.8166264295578003,-0.06734590977430344
1761369882952832000,5.87683203125,-2.188742160797119,-0.8416711688041687,0.007253811229020357
1761369882971441700,5.895441650390625,-2.2993054389953613,-0.7763105034828186,0.030466007068753242
1761369882990053000,5.91405322265625,-2.4037604331970215,-0.666968822479248,0.027411770075559616
1761369883008663000,5.9326630859375,-2.4880571365356445,-0.49715331196784973,-0.00992626789957285
1761369883027274500,5.9512744140625,-2.5106585025787354,-0.32245099544525146,-0.04291202127933502
1761369883045884400,5.969884521484375,-2.4843921661376953,-0.3163425326347351,0.008475505746901035
1761369883064495900,5.988495849609375,-2.4068145751953125,-0.4513397812843323,0.1465269923210144
1761369883083105800,6.007105712890625,-2.307246446609497,-0.621155321598053,0.3187859058380127
1761369883101717200,6.02571728515625,-2.2278363704681396,-0.699954628944397,0.4745519757270813
1761369883120327200,6.0443271484375,-2.2125651836395264,-0.7341620326042175,0.5582380294799805
1761369883138938600,6.062938720703125,-2.203402519226074,-0.6474217176437378,0.4745519757270813
1761369883157548500,6.081548583984375,-2.086730480194092,-0.6742990016937256,0.15080291032791138
1761369883176160000,6.100159912109375,-1.8032211065292358,-0.7775322198867798,-0.34405970573425293
1761369883194770000,6.11877001953125,-1.6169127225875854,-0.8685484528541565,-0.5150969624519348
1761369883213381400,6.13738134765625,-1.6407357454299927,-0.8392277956008911,-0.16813570261001587
1761369883231991300,6.1559912109375,-1.687770962715149,-0.6278746128082275,0.3719296157360077
1761369883250602800,6.174602783203125,-1.808107852935791,-0.5747309327125549,0.5539621114730835
1761369883269212700,6.193212646484375,-1.925390601158142,-0.51914381980896,0.4348468780517578
1761369883287824100,6.21182421875,-2.0243477821350098,-0.44523128867149353,0.21738526225090027
1761369883306434000,6.23043408203125,-2.09039568901062,-0.4910448491573334,0.07383616268634796
1761369883325045500,6.24904541015625,-1.9907512664794922,-0.3591018319129944,0.08483141660690308
1761369883343655400,6.267655517578125,-1.828265905380249,-0.2149418741464615,0.16790664196014404
1761369883362267000,6.286266845703125,-1.6077499389648438,-0.12759071588516235,0.14225105941295624
1761369883380876800,6.304876708984375,-1.3939534425735474,-0.036574479192495346,0.020692450925707817
1761369883399488300,6.32348828125,-1.2937744855880737,-0.0952158197760582,-0.05329642444849014
1761369883418098000,6.342097900390625,-1.2284138202667236,-0.14164020121097565,-0.029473381116986275
1761369883436709400,6.36070947265625,-1.174659252166748,-0.1727934181690216,0.04023956134915352
1761369883455319300,6.3793193359375,-1.1691616773605347,-0.25953373312950134,0.09888090193271637
1761369883473930800,6.3979306640625,-1.2479609251022339,-0.2760266065597534,0.06772769242525101
1761369883492540700,6.416540771484375,-1.296217918395996,-0.1074327602982521,-0.019088976085186005
1761369883511152000,6.435152099609375,-1.225359559059143,-0.07444700598716736,-0.0856713280081749
1761369883529762000,6.453761962890625,-1.2137534618377686,-0.1483595222234726,-0.22066856920719147
1761369883548373500,6.47237353515625,-1.2937744855880737,-0.2399866133928299,-0.4521796703338623
1761369883566983400,6.4909833984375,-1.424495816230774,-0.4330143630504608,-0.7362236380577087
1761369883585595000,6.509594970703125,-1.5937005281448364,-0.40063944458961487,-0.8693883419036865
1761369883604204800,6.528204833984375,-1.696933627128601,-0.5674007534980774,-0.9469659924507141
1761369883622816300,6.546816162109375,-1.6529526710510254,-0.6480326056480408,-0.9347490072250366
1761369883641426200,6.56542626953125,-1.4703093767166138,-0.6834617257118225,-0.8235748410224915
1761369883660037600,6.58403759765625,-1.3151541948318481,-0.6987329125404358,-0.492495596408844
1761369883678647600,6.6026474609375,-1.2027583122253418,-0.7756996750831604,-0.12232216447591782
1761369883697259000,6.621259033203125,-1.0958600044250488,-0.7091172933578491,0.120871402323246
1761369883715869000,6.639868896484375,-0.9743013978004456,-0.5240305662155151,0.1990598440170288
1761369883734480400,6.65848046875,-0.869846522808075,-0.4458421468734741,0.1611873209476471
1761369883753090300,6.67709033203125,-0.7550072073936462,-0.4623350203037262,0.03229855000972748
1761369883771701800,6.69570166015625,-0.6365028619766235,-0.5619031190872192,-0.1766875684261322
1761369883790311700,6.714311767578125,-0.5656445622444153,-0.7402704954147339,-0.33917292952537537
1761369883808923100,6.732923095703125,-0.5357130169868469,-0.9100860357284546,-0.4277457892894745
1761369883827533000,6.751532958984375,-0.47768256068229675,-0.9039775729179382,-0.42224815487861633
1761369883846144500,6.77014453125,-0.4813476502895355,-0.7720345854759216,-0.279920756816864
1761369883864754400,6.78875439453125,-0.4819584786891937,-0.3988068997859955,0.0011453386396169662
1761369883883366000,6.807365966796875,-0.3701734244823456,-0.21921780705451965,0.2503710091114044
1761369883901975800,6.825975830078125,-0.2095206081867218,-0.24304085969924927,0.3413872718811035
1761369883920587300,6.844587158203125,-0.130721315741539,-0.30962321162223816,0.20700086653232574
1761369883939197200,6.863197265625,-0.13316470384597778,-0.42873841524124146,-0.0050394898280501366
1761369883957808600,6.88180859375,-0.19424942135810852,-0.5863370299339294,-0.20356485247612
1761369883976418600,6.90041845703125,-0.19058434665203094,-0.5570163726806641,-0.409420371055603
1761369883995030000,6.919030029296875,-0.2095206081867218,-0.45500484108924866,-0.5401417016983032
1761369884013639700,6.9376396484375,-0.26999449729919434,-0.32489439845085144,-0.5407525300979614
1761369884032251400,6.95625146484375,-0.3414636254310608,-0.13003410398960114,-0.47417017817497253
1761369884050861300,6.974861328125,-0.40071579813957214,-0.1330883502960205,-0.4014793634414673
1761369884069472800,6.99347265625,-0.4587462842464447,-0.32245099544525146,-0.37948885560035706
1761369884088082400,7.01208251953125,-0.5815265774726868,-0.278469979763031,-0.3758237659931183
1761369884106694100,7.030694091796875,-0.6902574300765991,-0.20211409032344818,-0.36971530318260193
1761369884125303800,7.0493037109375,-0.7641699314117432,-0.16485241055488586,-0.30191126465797424
1761369884143915500,7.06791552734375,-0.8130376935005188,-0.10498937219381332,-0.12171131372451782
1761369884162525200,7.086525146484375,-0.81425940990448,-0.021914144977927208,0.03718532621860504
1761369884181137000,7.105136962890625,-0.6902574300765991,0.035505495965480804,0.14041851460933685
1761369884199746600,7.12374658203125,-0.5393781065940857,0.16256172955036163,0.23693238198757172
1761369884218358000,7.14235791015625,-0.43797749280929565,0.14729054272174835,0.32672691345214844
1761369884236968000,7.160968017578125,-0.337798535823822,0.24136102199554443,0.4629458785057068
1761369884255579600,7.17957958984375,-0.24617144465446472,0.3629196286201477,0.6382590532302856
1761369884274189300,7.198189208984375,-0.14171656966209412,0.4398863911628723,0.8948148488998413
1761369884292800800,7.21680078125,-0.12888877093791962,0.4936409294605255,1.1446514129638672
1761369884311410700,7.23541064453125,-0.14660334587097168,0.7727981209754944,1.3370683193206787
1761369884330022100,7.254022216796875,-0.11972606182098389,0.9780428409576416,1.495888590812683
1761369884348632000,7.272632080078125,-0.22662433981895447,0.9175689220428467,1.5612492561340332
1761369884367243500,7.291243408203125,-0.37567105889320374,0.7178218960762024,1.5539190769195557
1761369884385853400,7.309853515625,-0.4831801950931549,0.5028036236763,1.4366364479064941
1761369884404465000,7.32846484375,-0.6474980711936951,0.31832778453826904,1.180080533027649
1761369884423074800,7.34707470703125,-0.7788302302360535,0.3873535096645355,0.7940250635147095
1761369884441686300,7.365686279296875,-0.818535327911377,0.6994964480400085,0.37437301874160767
1761369884460296200,7.384296142578125,-0.7256865501403809,1.0091960430145264,-0.0038177953101694584
1761369884478907600,7.40290771484375,-0.6346703171730042,1.2291773557662964,-0.30252209305763245
1761369884497517600,7.421517578125,-0.5656445622444153,1.3275238275527954,-0.5102101564407349
1761369884516129000,7.44012890625,-0.4691306948661804,1.251167893409729,-0.5621321797370911
1761369884534739000,7.458739013671875,-0.37689274549484253,1.021412968635559,-0.46073153614997864
1761369884553350400,7.477350341796875,-0.365286648273468,0.6066476702690125,-0.2573194205760956
1761369884571960300,7.495960205078125,-0.3830012381076813,0.15767495334148407,-0.008093725889921188
1761369884590571800,7.51457177734375,-0.4611896872520447,-0.37803810834884644,0.24976016581058502
1761369884609181700,7.533181640625,-0.555260181427002,-0.8068528771400452,0.51914381980896
1761369884627793200,7.551793212890625,-0.6297835111618042,-1.1782480478286743,0.7726454138755798
1761369884646403000,7.570403076171875,-0.6768187880516052,-1.4122024774551392,1.0316447019577026
1761369884665014500,7.5890146484375,-0.7012526392936707,-1.4892456531524658,1.3108018636703491
1761369884683624400,7.60762451171875,-0.7207997441291809,-1.4183109998703003,1.550864815711975
1761369884702236000,7.62623583984375,-0.7446228265762329,-1.2472738027572632,1.655930519104004
1761369884720845800,7.644845703125,-0.8050966858863831,-1.0438616275787354,1.5960675477981567
1761369884739457300,7.663457275390625,-0.8594620823860168,-0.8428928852081299,1.3615021705627441
1761369884758067200,7.682067138671875,-0.8643488883972168,-0.7121715545654297,0.9381850361824036
1761369884776678700,7.7006787109375,-0.8496885299682617,-0.8019660711288452,0.38781166076660156
1761369884795288600,7.71928857421875,-0.8038749694824219,-0.884430468082428,-0.05329642444849014
1761369884813900000,7.737900146484375,-0.8203678727149963,-0.8648833632469177,-0.28908345103263855
1761369884832510000,7.756510009765625,-0.8771766424179077,-0.9180271029472351,-0.31412819027900696
1761369884851121400,7.775121337890625,-0.9877400398254395,-1.01942777633667,-0.18462859094142914
1761369884869731300,7.7937314453125,-1.1013575792312622,-1.1611442565917969,0.022524992004036903
1761369884888342800,7.8123427734375,-1.1587772369384766,-1.319353699684143,0.22899135947227478
1761369884906952700,7.83095263671875,-1.2058124542236328,-1.3492852449417114,0.41835400462150574
1761369884925564200,7.849564208984375,-1.211920976638794,-1.1593117713928223,0.5826719403266907
1761369884944174000,7.868174072265625,-1.2192511558532715,-0.9143620133399963,0.6810183525085449
1761369884962785500,7.88678564453125,-1.2748382091522217,-0.6101600527763367,0.6516976952552795
1761369884981395500,7.9053955078125,-1.3139324188232422,-0.3719296157360077,0.3841465711593628
1761369885000007000,7.9240068359375,-1.3096565008163452,-0.2558686435222626,-0.05329642444849014
1761369885018616800,7.942616943359375,-1.2418525218963623,-0.21005509793758392,-0.4808894991874695
1761369885037228300,7.961228271484375,-1.0598199367523193,-0.3328354060649872,-0.8761076927185059
1761369885055838000,7.979837890625,-0.896723747253418,-0.5906129479408264,-1.4338111877441406
1761369885074449700,7.99844970703125,-0.8533536195755005,-0.8233457207679749,-1.9444795846939087
1761369885093059300,8.017059326171875,-1.0048437118530273,-0.8160156011581421,-2.036717414855957
1761369885111671000,8.035671142578124,-1.113574504852295,-0.33894386887550354,-1.714190125465393
1761369885130280700,8.05428076171875,-1.1373976469039917,-0.2149418741464615,-1.3238587379455566
1761369885148892400,8.072892333984376,-1.0805888175964355,-0.3810923397541046,-1.078908920288086
1761369885167502000,8.091502197265624,-0.9211576581001282,-0.3810923397541046,-0.8730534315109253
1761369885186113500,8.110113525390625,-0.7886037826538086,-0.4519506096839905,-0.6372663974761963
1761369885204723500,8.128723388671874,-0.8173136115074158,-0.5692332983016968,-0.411863774061203
1761369885223335200,8.147335205078125,-0.8289197087287903,-0.6284855008125305,-0.22372281551361084
1761369885241944800,8.16594482421875,-0.8319739699363708,-0.5258631110191345,-0.06917845457792282
1761369885260556300,8.184556396484375,-0.8429692387580872,-0.45744824409484863,0.0035887276753783226
1761369885279166200,8.203166259765625,-0.869846522808075,-0.40308284759521484,0.04879142343997955
1761369885297777700,8.221777587890625,-0.8686248064041138,-0.280913382768631,0.08422056585550308
1761369885316387600,8.2403876953125,-0.8087617754936218,-0.173404261469841,0.06772769242525101
1761369885334999000,8.2589990234375,-0.762948215007782,-0.18928629159927368,0.04879142343997955
1761369885353609000,8.27760888671875,-0.6896465420722961,-0.12392564117908478,0.09949174523353577
1761369885372220400,8.296220458984376,-0.5851916670799255,-0.24609509110450745,0.08788564801216125
1761369885390830300,8.314830322265625,-0.4734066128730774,-0.38781166076660156,-0.08872556686401367
1761369885409441800,8.33344189453125,-0.38849884271621704,-0.3456631898880005,-0.4149180054664612
1761369885428051700,8.3520517578125,-0.265718549489975,-0.24304085969924927,-0.7411104440689087
1761369885446663200,8.3706630859375,-0.12278030067682266,-0.09032903611660004,-1.0764656066894531
1761369885465273000,8.389273193359376,-0.07757759839296341,-0.06345175951719284,-1.3592878580093384
1761369885483884500,8.407884521484375,-0.1172826737165451,-0.07750124484300613,-1.3024790287017822
1761369885502494500,8.426494384765626,-0.3432961702346802,-0.23082390427589417,-1.0581401586532593
1761369885521106000,8.44510595703125,-0.6187883019447327,-0.21066594123840332,-0.7661551833152771
1761369885539715800,8.4637158203125,-0.8167027831077576,0.1020878478884697,-0.5383091568946838
1761369885558327300,8.482327392578124,-0.8521319031715393,0.4154524803161621,-0.4155288338661194
1761369885576937200,8.500937255859375,-0.7641699314117432,0.5785487294197083,-0.3495573401451111
1761369885595548700,8.519548583984376,-0.5845808386802673,0.6298598647117615,-0.333064466714859
1761369885614158600,8.53815869140625,-0.3830012381076813,0.6316924095153809,-0.27625566720962524
1761369885632770000,8.55677001953125,-0.2895416021347046,0.5217399001121521,-0.20845162868499756
1761369885651380000,8.5753798828125,-0.3005368411540985,0.3867426812648773,-0.15530791878700256
1761369885669991400,8.593991455078125,-0.26938363909721375,0.24746949970722198,-0.12110047042369843
1761369885688601300,8.612601318359374,-0.1698155403137207,0.13568444550037384,-0.08872556686401367
1761369885707212800,8.631212890625,-0.12644538283348083,0.07032378762960434,-0.0038177953101694584
1761369885725822700,8.64982275390625,-0.19913621246814728,-0.028633465990424156,0.07200361788272858
1761369885744434200,8.66843408203125,-0.13988402485847473,-0.1361425817012787,0.09032903611660004
1761369885763044000,8.687044189453125,0.008551862090826035,-0.07689040154218674,0.12270393967628479
1761369885781655600,8.705655517578125,0.12278030067682266,0.1149156391620636,0.20516832172870636
1761369885800265500,8.724265380859375,0.25533416867256165,0.3806341886520386,0.41407808661460876
1761369885818877000,8.742876953125,0.33291175961494446,0.5528931021690369,0.6712448000907898
1761369885837486800,8.76148681640625,0.2724378705024719,0.6316924095153809,0.8080745935440063
1761369885856098300,8.780098388671876,0.15026842057704926,0.6555154919624329,0.7372162938117981
1761369885874708000,8.7987080078125,0.024433890357613564,0.5791595578193665,0.5185329914093018
1761369885893319700,8.817319580078125,-0.05986303091049194,0.5730510950088501,0.31084489822387695
1761369885911929300,8.835929443359374,-0.03176405653357506,0.6023717522621155,0.21982865035533905
1761369885930541000,8.854541015625,0.03665083646774292,0.5315134525299072,0.2650313675403595
1761369885949150700,8.873150634765626,0.15332266688346863,0.3079433739185333,0.4085804522037506
1761369885967762200,8.89176220703125,0.16370706260204315,0.17783290147781372,0.6455891728401184
1761369885986372000,8.9103720703125,-0.006719320081174374,0.07276718318462372,0.7091172933578491
1761369886004983600,8.928983642578125,-0.25472331047058105,0.03733803704380989,0.5258631110191345
1761369886023593500,8.947593505859375,-0.5082249045372009,-0.06100837141275406,0.24120831489562988
1761369886042205000,8.966204833984374,-0.6536065936088562,-0.09888090193271637,0.04756972938776016
1761369886060814800,8.98481494140625,-0.6169557571411133,-0.01763821393251419,0.0426829531788826
1761369886079426300,9.00342626953125,-0.37261682748794556,0.26212984323501587,0.28702184557914734
1761369886098036200,9.0220361328125,-0.03665083646774292,0.4985277056694031,0.5160895586013794
1761369886116647700,9.040647705078126,0.22967857122421265,0.49974942207336426,0.6926244497299194
1761369886135257600,9.059257568359374,0.3176405727863312,0.43805384635925293,0.8734351992607117
1761369886153869000,9.077869140625,0.22784602642059326,0.44782739877700806,1.0395857095718384
1761369886172479000,9.09647900390625,0.03237490355968475,0.4007921516895294,1.0737931728363037
1761369886191090400,9.11509033203125,-0.12033691257238388,0.405678927898407,0.9430717825889587
1761369886209700400,9.133700439453126,-0.20280128717422485,0.40751147270202637,0.5802285671234131
1761369886228311800,9.152311767578125,-0.24556060135364532,0.3012240529060364,0.15446799993515015
1761369886246921700,9.170921630859375,-0.25289076566696167,0.2315874695777893,-0.19318044185638428
1761369886265533200,9.189533203125,-0.3390202224254608,0.07276718318462372,-0.5236487984657288
1761369886284143000,9.20814306640625,-0.4556920528411865,-0.36215606331825256,-0.8156337738037109
1761369886302754600,9.226754638671874,-0.44042086601257324,-0.7604284882545471,-0.9451334476470947
1761369886321364500,9.245364501953125,-0.2858765125274658,-0.8997016549110413,-0.9005415439605713
1761369886339976000,9.263975830078126,-0.16309621930122375,-0.7298861145973206,-0.7594358325004578
1761369886358585900,9.2825859375,-0.18630841374397278,-0.36582115292549133,-0.5780141949653625
1761369886377197300,9.301197265625,-0.3170297145843506,-0.0426829531788826,-0.36543938517570496
1761369886395807200,9.31980712890625,-0.35978904366493225,-0.0011453386396169662,-0.14736689627170563
1761369886414418700,9.338418701171875,-0.34818294644355774,-0.1349208950996399,0.0005344913806766272
1761369886433028600,9.357028564453126,-0.32130566239356995,-0.12942326068878174,0.0817771777510643
1761369886451640000,9.37564013671875,-0.28221142292022705,-0.0426829531788826,0.12514732778072357
1761369886470249700,9.394249755859375,-0.312142938375473,0.05810684710741043,0.13919681310653687
1761369886488861400,9.412861328125,-0.35795649886131287,0.1924932450056076,0.11048699915409088
1761369886507471000,9.43147119140625,-0.36223241686820984,0.1674485057592392,0.052456509321928024
1761369886526082800,9.450082763671874,-0.36039987206459045,0.03061871975660324,0.03596363216638565
1761369886544692500,9.4686923828125,-0.3903313875198364,-0.20577916502952576,0.10498937219381332
1761369886563304200,9.48730419921875,-0.4581354558467865,-0.44523128867149353,0.2546469569206238
1761369886581913900,9.505913818359375,-0.5277720093727112,-0.546631932258606,0.40430453419685364
1761369886600525300,9.524525390625,-0.5766398310661316,-0.6559736132621765,0.46783265471458435
1761369886619135200,9.54313525390625,-0.6273401379585266,-0.8367843627929688,0.46783265471458435
1761369886637746700,9.56174658203125,-0.656660795211792,-0.8966473937034607,0.4886014461517334
1761369886656356600,9.580356689453126,-0.5754181146621704,-0.7604284882545471,0.5606814026832581
1761369886674968000,9.598968017578125,-0.37139514088630676,-0.3798706531524658,0.718280017375946
1761369886693578000,9.617577880859375,-0.21929416060447693,-0.1611873209476471,0.9339091181755066
1761369886712189400,9.636189453125,-0.22601348161697388,-0.352993369102478,1.0799015760421753
1761369886730799400,9.65479931640625,-0.3023693859577179,-0.5722874999046326,1.068906307220459
1761369886749410800,9.673410888671874,-0.41293275356292725,-0.8911498188972473,0.7946359515190125
1761369886768020700,9.692020751953125,-0.5748072862625122,-1.0756256580352783,0.3029038906097412
1761369886786632200,9.710632080078126,-0.8148702383041382,-0.8636616468429565,-0.20234315097332
1761369886805242000,9.7292421875,-1.077534556388855,-0.3157316744327545,-0.5059342384338379
1761369886823853600,9.747853515625,-1.2180293798446655,0.3641413152217865,-0.5871769189834595
1761369886842463500,9.76646337890625,-1.1606098413467407,0.9090170860290527,-0.49493899941444397
1761369886861075000,9.785074951171875,-0.9492566585540771,1.1313655376434326,-0.3318427801132202
1761369886879684900,9.803684814453124,-0.6346703171730042,0.9365051984786987,-0.14064757525920868
1761369886898296300,9.82229638671875,-0.45141613483428955,0.2841203212738037,0.1355317384004593
1761369886916906200,9.84090625,-0.23090025782585144,-0.643756628036499,0.6926244497299194
1761369886935517700,9.859517578125,-0.3011476993560791,-1.0163735151290894,0.833730161190033
1761369886954127600,9.878127685546875,-0.47585001587867737,-1.037142276763916,0.5991647839546204
1761369886972739000,9.896739013671874,-0.6737645268440247,-0.9241355657577515,0.13003410398960114
1761369886991348700,9.9153486328125,-0.8466343283653259,-0.8862630128860474,-0.35261157155036926
1761369887009960200,9.933960205078124,-0.8955020904541016,-0.6987329125404358,-0.6745280623435974
1761369887028570000,9.952570068359375,-0.836860716342926,-0.280913382768631,-0.7637118101119995
1761369887047181600,9.971181640625,-0.7562289237976074,0.2957264184951782,-0.6513158679008484
1761369887065791500,9.98979150390625,-0.6810947060585022,0.8473215103149414,-0.41675055027008057
1761369887084403000,10.00840283203125,-0.5974085927009583,1.2242906093597412,-0.1754658818244934
1761369887103012900,10.027012939453124,-0.5002838969230652,1.423426866531372,-0.05329642444849014
1761369887121624300,10.045624267578125,-0.3500154912471771,1.4099881649017334,-0.13087402284145355
1761369887140234200,10.064234130859376,-0.14049486815929413,1.1252570152282715,-0.3306210935115814
1761369887158845700,10.082845703125,0.030542362481355667,0.7727981209754944,-0.46012070775032043
1761369887177455600,10.10145556640625,0.1301104724407196,0.47409382462501526,-0.4527905285358429
1761369887196067000,10.120067138671875,0.14965757727622986,0.1784437596797943,-0.36910444498062134
1761369887214677000,10.138677001953125,0.12461283802986145,-0.14164020121097565,-0.26037365198135376
1761369887233288400,10.157288330078124,0.09468132257461548,-0.46722179651260376,-0.15897299349308014
1761369887251898400,10.1758984375,0.05008947476744652,-0.7323294878005981,-0.06856760382652283
1761369887270509800,10.194509765625,-0.034818295389413834,-0.8117396235466003,0.02924431301653385
1761369887289119700,10.21311962890625,-0.08918370306491852,-0.6419241428375244,0.16363070905208588
1761369887307731200,10.231731201171876,-0.06841489672660828,-0.3047364354133606,0.3181750774383545
1761369887326341000,10.250341064453124,-0.0024433890357613564,0.13140851259231567,0.49470990896224976
1761369887344952600,10.26895263671875,0.09040539711713791,0.4264477491378784,0.6028298735618591
1761369887363562200,10.287562255859376,0.13866232335567474,0.3763582706451416,0.5680115818977356
1761369887382174000,10.306174072265625,0.056808795779943466,0.269459992647171,0.49470990896224976
1761369887400783600,10.32478369140625,-0.10934165865182877,0.30366745591163635,0.47882789373397827
1761369887419395000,10.34339501953125,-0.25289076566696167,0.21142950654029846,0.41896486282348633
1761369887438005000,10.3620048828125,-0.2632751762866974,0.045889899134635925,0.29862794280052185
1761369887456616400,10.380616455078124,-0.20524467527866364,-0.11293038725852966,0.15630054473876953
1761369887475226400,10.399226318359375,-0.1850867122411728,-0.2259371280670166,0.06039752438664436
1761369887493837800,10.417837890625,-0.21196399629116058,-0.0952158197760582,0.09765920788049698
1761369887512447700,10.43644775390625,-0.2638860046863556,0.19921256601810455,0.19661645591259003
1761369887531059200,10.45505908203125,-0.28037887811660767,0.31588438153266907,0.2143310308456421
1761369887549669000,10.473669189453124,-0.2730487287044525,0.18577392399311066,0.12881241738796234
1761369887568280600,10.492280517578125,-0.2761029601097107,-0.08727480471134186,-0.017867282032966614
1761369887586890500,10.510890380859376,-0.3042019307613373,-0.3053472638130188,-0.13331741094589233
1761369887605502000,10.529501953125,-0.33291175961494446,-0.3145099878311157,-0.14492350816726685
1761369887624111900,10.54811181640625,-0.3646758198738098,-0.21982865035533905,-0.09666658192873001
1761369887642723300,10.566723388671875,-0.3946073353290558,-0.10376767814159393,-0.03924693539738655
1761369887661333200,10.585333251953125,-0.40987852215766907,-0.0561215914785862,-0.03924693539738655
1761369887679944700,10.60394482421875,-0.416597843170166,-0.18867544829845428,-0.0844496339559555
1761369887698554400,10.622554443359375,-0.42637139558792114,-0.41591063141822815,-0.08872556686401367
1761369887717165800,10.641165771484374,-0.46668729186058044,-0.4226299524307251,-0.0587940476834774
1761369887735775700,10.659775634765625,-0.4172086715698242,-0.2803025245666504,-0.06612421572208405
1761369887754387200,10.67838720703125,-0.2852656841278076,-0.035352785140275955,-0.10216420143842697
1761369887772997000,10.6969970703125,-0.11483928561210632,0.17722205817699432,-0.1895153671503067
1761369887791608600,10.715608642578125,0.09345962852239609,0.24991288781166077,-0.386208176612854
1761369887810218500,10.734218505859374,0.10995250940322876,0.07704310864210129,-0.43324342370033264
1761369887828830000,10.752829833984375,-0.1704263836145401,-0.329781174659729,-0.3190149664878845
1761369887847440000,10.77143994140625,-0.34573954343795776,-0.41713231801986694,-0.3245126008987427
1761369887866051300,10.79005126953125,-0.3970507085323334,-0.18317782878875732,-0.31351736187934875
1761369887884661200,10.8086611328125,-0.4611896872520447,0.0025197449140250683,-0.3703261613845825
1761369887903272700,10.827272705078125,-0.5149442553520203,0.10636378079652786,-0.42957833409309387
1761369887921882600,10.845882568359375,-0.5265503525733948,0.08315158635377884,-0.4399627447128296
