time,seconds_elapsed,z,y,x
1761371079107582700,0.206582763671875,-0.20714950561523438,0.16948270797729492,-0.45551180839538574
1761371079126194000,0.22519384765625,-0.03322029113769531,0.5759885311126709,-0.6616230010986328
1761371079144806700,0.243806640625,0.3248414993286133,1.0196385383605957,-0.6913607120513916
1761371079163417900,0.26241796875,0.8290338516235352,1.016540288925171,-0.2065575122833252
1761371079182030600,0.281030517578125,0.74798583984375,0.5594995021820068,0.8596014976501465
1761371079200641800,0.299641845703125,0.2344226837158203,0.0805814266204834,1.3794395923614502
1761371079219254500,0.318254638671875,0.100677490234375,0.15001559257507324,0.8238747119903564
1761371079237865700,0.33686572265625,-0.06822872161865234,0.23120665550231934,0.1076042652130127
1761371079256478500,0.355478515625,-0.18207454681396484,0.28638625144958496,0.01230478286743164
1761371079275089700,0.374089599609375,-0.36743640899658203,0.22333621978759766,0.13440632820129395
1761371079293702400,0.392702392578125,-0.6402535438537598,0.1922776699066162,0.4445517063140869
1761371079312313600,0.411313720703125,-0.8351273536682129,0.06653451919555664,0.5760293006896973
1761371079330926300,0.42992626953125,-1.1756391525268555,0.10143589973449707,0.4770622253417969
1761371079349537500,0.44853759765625,-1.2621445655822754,0.3653383255004883,0.18784713745117188
1761371079368150000,0.46714990234375,-1.13206148147583,0.6167504787445068,-0.07071733474731445
1761371079386761500,0.485761474609375,-0.8351783752441406,0.4572570323944092,0.5495359897613525
1761371079405374000,0.5043740234375,-0.4672245979309082,0.38779640197753906,1.1060287952423096
1761371079423985200,0.522985107421875,-0.1940608024597168,0.3816361427307129,1.0979516506195068
1761371079442598000,0.541597900390625,-0.03979969024658203,0.40587282180786133,1.1626615524291992
1761371079461209000,0.560208984375,-0.4909372329711914,0.18981480598449707,1.1168718338012695
1761371079479821800,0.57882177734375,-1.0906744003295898,0.30440831184387207,0.7025880813598633
1761371079498433000,0.59743310546875,-1.3690872192382812,0.32751989364624023,0.5478558540344238
1761371079517045800,0.616045654296875,-0.9409289360046387,0.3996875286102295,0.6260788440704346
1761371079535657000,0.634656982421875,-0.18657922744750977,0.794734001159668,0.42208003997802734
1761371079554269700,0.653269775390625,0.8753528594970703,1.2002949714660645,0.6808042526245117
1761371079572881000,0.671880859375,1.7335166931152344,1.1349904537200928,0.9342410564422607
1761371079591493600,0.69049365234375,2.050783157348633,1.222726583480835,0.7774975299835205
1761371079610104800,0.709104736328125,2.098710060119629,1.207035779953003,0.6179308891296387
1761371079628717600,0.727717529296875,2.133655548095703,1.3946495056152344,0.25705552101135254
1761371079647328800,0.746328857421875,2.276473045349121,1.552184820175171,-0.01685643196105957
1761371079665941500,0.76494140625,2.389810562133789,1.3341121673583984,0.23486542701721191
1761371079684552700,0.783552734375,2.422056198120117,1.2841265201568604,0.24696779251098633
1761371079703165400,0.80216552734375,2.3484716415405273,1.13912034034729,0.22511863708496094
1761371079721776600,0.820776611328125,1.9264278411865234,0.9558200836181641,0.2402963638305664
1761371079740389400,0.839389404296875,1.1816139221191406,0.6898829936981201,0.1572866439819336
1761371079759000600,0.85800048828125,0.5198001861572266,0.5869531631469727,0.15189361572265625
1761371079777613300,0.87661328125,0.13815784454345703,0.4250948429107666,0.2741217613220215
1761371079796224500,0.895224609375,0.03442668914794922,0.2952907085418701,0.4350416660308838
1761371079814837200,0.913837158203125,-0.07059383392333984,0.13698196411132812,0.5571610927581787
1761371079833448400,0.932448486328125,-0.16400527954101562,0.048708200454711914,0.5344818830490112
1761371079852061200,0.951061279296875,-0.13057422637939453,-0.026242733001708984,0.5025417804718018
1761371079870672400,0.96967236328125,-0.19914531707763672,-0.16947245597839355,0.556424617767334
1761371079889285000,0.98828515625,-0.5707502365112305,-0.32659006118774414,0.5988696813583374
1761371079907896300,1.006896240234375,-1.084599494934082,-0.3519752025604248,0.41414642333984375
1761371079926509000,1.025509033203125,-1.518002986907959,-0.3386704921722412,0.12161731719970703
1761371079945120300,1.044120361328125,-1.6953125,-0.27405333518981934,-0.12706327438354492
1761371079963733000,1.06273291015625,-1.5726804733276367,-0.2392292022705078,-0.21449804306030273
1761371079982344200,1.08134423828125,-1.3999714851379395,-0.2258453369140625,-0.21125221252441406
1761371080000957000,1.09995703125,-1.268789291381836,-0.19947266578674316,-0.34383153915405273
1761371080019568000,1.118568115234375,-1.3722014427185059,-0.14351844787597656,-0.6568148136138916
1761371080038180900,1.137180908203125,-1.4579577445983887,-0.041069984436035156,-0.9898409843444824
1761371080056792000,1.1557919921875,-1.2212915420532227,0.09653902053833008,-1.2006731033325195
1761371080075404800,1.17440478515625,-0.6471195220947266,0.20163369178771973,-1.2318615913391113
1761371080094016000,1.19301611328125,0.16461753845214844,0.27245187759399414,-1.3307948112487793
1761371080112628700,1.211628662109375,0.9644718170166016,0.45073580741882324,-1.1737730503082275
1761371080131240000,1.230239990234375,1.45794677734375,0.7385087013244629,-0.8746705055236816
1761371080149852700,1.248852783203125,2.020054817199707,1.0115303993225098,-0.6313142776489258
1761371080168464000,1.2674638671875,2.5928640365600586,0.8735179901123047,-0.47192883491516113
1761371080187076600,1.28607666015625,2.7368831634521484,0.20308423042297363,-0.32273828983306885
1761371080205687800,1.304687744140625,2.299654960632324,-0.4298398494720459,-0.694998025894165
1761371080224300500,1.323300537109375,2.0512094497680664,-0.5433897972106934,-0.8675322532653809
1761371080242911700,1.341911865234375,1.5987834930419922,-0.7108607292175293,-0.6229062080383301
1761371080261524200,1.360524169921875,1.1505804061889648,-0.5969171524047852,-0.5182114839553833
1761371080280135700,1.3791357421875,1.0132112503051758,-0.8308539390563965,-0.32884883880615234
1761371080298748400,1.39774853515625,0.7828826904296875,-1.1753056049346924,-0.4356924295425415
1761371080317359600,1.416359619140625,0.4070558547973633,-1.5014619827270508,-0.6800023317337036
1761371080335972000,1.43497216796875,0.10255908966064453,-1.5085422992706299,-0.9529016017913818
1761371080354583300,1.453583251953125,-0.06199359893798828,-1.334610939025879,-1.0579147338867188
1761371080373196000,1.472196044921875,-0.007258415222167969,-1.2026989459991455,-0.9177887439727783
1761371080391807500,1.490807373046875,0.38364696502685547,-1.1120288372039795,-0.5663979053497314
1761371080410420000,1.509419921875,0.7162389755249023,-1.2037484645843506,-0.06967782974243164
1761371080429031200,1.52803125,0.5814743041992188,-1.3665623664855957,0.24117279052734375
1761371080447644000,1.546643798828125,0.12041091918945312,-1.454920768737793,0.1949784755706787
1761371080466255000,1.565255126953125,-0.3529543876647949,-1.4498710632324219,0.07134675979614258
1761371080484867800,1.583867919921875,-0.889244556427002,-1.358611822128296,-0.04430675506591797
1761371080503479000,1.60247900390625,-1.3346710205078125,-1.147028923034668,0.010562419891357422
1761371080522091800,1.621091796875,-1.816481113433838,-0.91693115234375,0.0934748649597168
1761371080540703000,1.639702880859375,-1.953068733215332,-0.6328520774841309,0.27259206771850586
1761371080559315700,1.658315673828125,-1.6926093101501465,-0.4275965690612793,0.6353456974029541
1761371080577927000,1.676927001953125,-1.2604413032531738,-0.3176579475402832,0.9232304096221924
1761371080596539600,1.69553955078125,-0.8964095115661621,-0.1336526870727539,0.8991312980651855
1761371080615150800,1.71415087890625,-0.6677227020263672,-0.06436538696289062,0.9001691341400146
1761371080633763600,1.732763671875,-0.27286338806152344,0.09053421020507812,0.899456262588501
1761371080652374800,1.751374755859375,0.5159158706665039,0.24021387100219727,0.9479656219482422
1761371080670987500,1.769987548828125,1.0562381744384766,0.1189126968383789,0.9841811656951904
1761371080689598700,1.7885986328125,1.2241268157958984,0.036536216735839844,0.7657608985900879
1761371080708211500,1.80721142578125,0.990910530090332,0.04339742660522461,0.41946935653686523
1761371080726822700,1.82582275390625,0.6386651992797852,0.12902212142944336,0.1775646209716797
1761371080745435400,1.844435302734375,0.32297801971435547,0.22650766372680664,0.0738520622253418
1761371080764046600,1.863046630859375,0.15437030792236328,0.3289666175842285,-0.003920078277587891
1761371080782659300,1.881659423828125,0.21513938903808594,0.3628358840942383,0.01262211799621582
1761371080801270500,1.9002705078125,0.4565010070800781,0.2858753204345703,0.10555219650268555
1761371080819883300,1.91888330078125,0.5730419158935547,0.17687439918518066,0.001936197280883789
1761371080838494500,1.937494384765625,0.49097347259521484,0.11836504936218262,-0.3039274215698242
1761371080857107200,1.956107177734375,0.39035987854003906,0.15253758430480957,-0.6615076065063477
1761371080875718400,1.974718505859375,0.3519763946533203,0.2772235870361328,-0.9969949722290039
1761371080894331000,1.993330810546875,0.6372127532958984,0.5160975456237793,-0.9080708026885986
1761371080912942000,2.011942138671875,1.3349332809448242,0.7744808197021484,-0.5183722972869873
1761371080931555000,2.03055517578125,2.1165761947631836,0.6518990993499756,0.04274725914001465
1761371080950166300,2.049166259765625,2.885012626647949,0.11544966697692871,0.5700993537902832
1761371080968778800,2.06777880859375,2.9968643188476562,-0.5170614719390869,0.638991117477417
1761371080987390000,2.086389892578125,2.3083648681640625,-0.7697052955627441,0.4638519287109375
1761371081006002700,2.105002685546875,0.9448623657226562,-0.5569417476654053,0.3076353073120117
1761371081024614000,2.12361376953125,-0.2753267288208008,-0.22498369216918945,0.20512700080871582
1761371081043226600,2.1422265625,-1.0270800590515137,-0.05657458305358887,0.4436759948730469
1761371081061837800,2.160837890625,-1.305830955505371,-0.06831908226013184,0.6885702610015869
1761371081080450600,2.179450439453125,-1.3399534225463867,-0.1994338035583496,0.8988652229309082
1761371081099061800,2.198061767578125,-1.4194107055664062,-0.32567715644836426,1.0222508907318115
1761371081117674500,2.216674560546875,-1.6597113609313965,-0.4753077030181885,1.0457696914672852
1761371081136285700,2.23528564453125,-1.8731746673583984,-0.48740410804748535,0.744969367980957
1761371081154898400,2.2538984375,-1.9669933319091797,-0.5100359916687012,0.311098575592041
1761371081173509600,2.272509521484375,-1.7166266441345215,-0.4807450771331787,0.0022077560424804688
1761371081192122400,2.291122314453125,-1.3683137893676758,-0.37567996978759766,-0.12960386276245117
1761371081210733600,2.309733642578125,-1.1832756996154785,-0.25821733474731445,-0.21671438217163086
1761371081229346300,2.32834619140625,-0.9324851036071777,-0.12169480323791504,-0.29293012619018555
1761371081247957500,2.34695751953125,-0.7661027908325195,-0.014935016632080078,-0.3394908905029297
1761371081266570200,2.3655703125,-0.633364200592041,-0.026953458786010742,-0.3301396369934082
1761371081285181400,2.384181396484375,-0.5485134124755859,-0.10856080055236816,-0.4311985969543457
1761371081303794200,2.402794189453125,-0.5086221694946289,-0.03968930244445801,-0.6535477638244629
1761371081322405400,2.4214052734375,-0.40090179443359375,0.25566649436950684,-0.9097690582275391
1761371081341018000,2.44001806640625,-0.12281465530395508,0.5579149723052979,-1.1531944274902344
1761371081359629000,2.458629150390625,0.28305530548095703,0.5699307918548584,-1.1438260078430176
1761371081378241800,2.47724169921875,0.9785909652709961,0.528933048248291,-1.0722880363464355
1761371081396853000,2.49585302734375,1.8775568008422852,0.43923401832580566,-0.8486809730529785
1761371081415465700,2.5144658203125,2.3839311599731445,0.2020881175994873,-0.4471578598022461
1761371081434077000,2.533076904296875,2.3765335083007812,0.08790707588195801,0.006447792053222656
1761371081452689700,2.551689697265625,1.934983253479004,0.03621935844421387,0.41887474060058594
1761371081471300900,2.57030078125,1.2242507934570312,-0.06104326248168945,0.5233542919158936
1761371081489913600,2.58891357421875,0.306154727935791,-0.2945542335510254,0.5049839019775391
1761371081508524800,2.60752490234375,-0.659782886505127,-0.4987192153930664,0.5472378730773926
1761371081527137500,2.626137451171875,-1.5697150230407715,-0.5999355316162109,0.4320106506347656
1761371081545748700,2.644748779296875,-2.237936496734619,-0.6359872817993164,0.04238748550415039
1761371081564361500,2.663361572265625,-2.505378246307373,-0.7460107803344727,-0.4012594223022461
1761371081582972700,2.68197265625,-2.215485095977783,-1.0061225891113281,-0.5457696914672852
1761371081601585200,2.700585205078125,-1.7760601043701172,-1.385504961013794,-0.610694408416748
1761371081620196400,2.7191962890625,-1.5968151092529297,-1.643254041671753,-0.9242353439331055
1761371081638809000,2.73780908203125,-1.683727741241455,-1.5877094268798828,-1.4349069595336914
1761371081657420300,2.756420166015625,-1.8293685913085938,-1.5483074188232422,-1.6014270782470703
1761371081676033000,2.775032958984375,-1.8030247688293457,-1.4172017574310303,-1.8923425674438477
1761371081694644200,2.793644287109375,-1.8230862617492676,-1.353759527206421,-2.2359938621520996
1761371081713257000,2.812257080078125,-1.7624664306640625,-1.578658103942871,-2.4219837188720703
1761371081731868200,2.8308681640625,-0.8689179420471191,-1.695009708404541,-2.4042091369628906
1761371081750481000,2.84948095703125,0.34076881408691406,-1.7099955081939697,-1.804037094116211
1761371081769092000,2.868092041015625,0.9485893249511719,-1.7110099792480469,-1.4810657501220703
1761371081787704800,2.886704833984375,1.2199459075927734,-1.5188194513320923,-1.4284429550170898
1761371081806316000,2.90531591796875,1.2147159576416016,-1.2517459392547607,-1.489610195159912
1761371081824928800,2.9239287109375,0.9216203689575195,-1.1280875205993652,-1.519038200378418
1761371081843540000,2.9425400390625,0.8158855438232422,-1.2306220531463623,-1.3574576377868652
1761371081862152400,2.96115234375,0.9404258728027344,-1.3478024005889893,-1.145747184753418
1761371081880763600,2.979763671875,0.8172540664672852,-1.4663909673690796,-0.9177007675170898
1761371081899376400,2.99837646484375,0.33873844146728516,-1.4437966346740723,-0.7494158744812012
1761371081917987600,3.016987548828125,0.020310401916503906,-1.228811264038086,-0.4983210563659668
1761371081936600300,3.035600341796875,-0.20164108276367188,-0.9448047876358032,-0.3442411422729492
1761371081955211500,3.05421142578125,-0.1561431884765625,-0.7569022178649902,-0.21728181838989258
1761371081973824300,3.07282421875,0.17780685424804688,-0.5735154151916504,-0.22124242782592773
1761371081992435500,3.091435546875,0.7665548324584961,-0.5167436599731445,-0.09926366806030273
1761371082011048200,3.110048095703125,1.3391742706298828,-0.5127973556518555,-0.027809619903564453
1761371082029659400,3.128659423828125,1.8433055877685547,-0.5462343692779541,0.026543617248535156
1761371082048272100,3.147272216796875,2.356433868408203,-0.7639307975769043,0.3532118797302246
1761371082066883300,3.16588330078125,2.590221405029297,-0.8903093338012695,0.506352424621582
1761371082085496000,3.18449609375,2.3098230361938477,-0.9840538501739502,0.6209700107574463
1761371082104107300,3.203107177734375,1.3922786712646484,-0.9851384162902832,0.6672203540802002
1761371082122719700,3.2217197265625,0.4076719284057617,-0.8332672119140625,0.6881475448608398
1761371082141331000,3.2403310546875,-0.19693660736083984,-0.5891921520233154,0.6131775379180908
1761371082159943700,3.258943603515625,-0.23689746856689453,-0.5248548984527588,0.681147575378418
1761371082178555000,3.277554931640625,0.011510848999023438,-0.4730408191680908,0.8859410285949707
1761371082197167600,3.296167724609375,0.007960319519042969,-0.3581883907318115,1.106659173965454
1761371082215778800,3.31477880859375,-0.3496699333190918,-0.08243441581726074,1.172194004058838
1761371082234391600,3.3333916015625,-0.6879181861877441,0.3078765869140625,1.0005629062652588
1761371082253002800,3.352002685546875,-0.7066140174865723,0.577096700668335,1.0718672275543213
1761371082271615500,3.370615478515625,-0.6029725074768066,0.7407867908477783,1.1088628768920898
1761371082290226700,3.389226806640625,-0.316800594329834,0.7750461101531982,1.0860438346862793
1761371082308839200,3.407839111328125,0.11785316467285156,0.7506430149078369,0.9762287139892578
1761371082327450400,3.426450439453125,0.47855186462402344,0.7638230323791504,0.8823285102844238
1761371082346063000,3.44506298828125,0.6329536437988281,0.85569167137146,0.6746573448181152
1761371082364674300,3.46367431640625,0.4849720001220703,0.8935604095458984,0.5072112083435059
1761371082383287000,3.482287109375,0.3252239227294922,0.8773901462554932,0.35047292709350586
1761371082401898200,3.500898193359375,0.41404247283935547,0.8584871292114258,0.2417006492614746
1761371082420511000,3.519510986328125,0.734776496887207,0.8736724853515625,0.2559523582458496
1761371082439122200,3.5381220703125,0.9962892532348633,0.8916505575180054,0.3281440734863281
1761371082457735000,3.55673486328125,1.1591119766235352,0.8997210264205933,0.45761823654174805
1761371082476346000,3.57534619140625,1.0148506164550781,0.790286660194397,0.5001387596130371
1761371082494958600,3.59395849609375,0.7090559005737305,0.7737575769424438,0.386476993560791
1761371082513569800,3.61256982421875,0.29313182830810547,0.7575714588165283,0.26497364044189453
1761371082532182500,3.6311826171875,0.04483509063720703,0.7387470006942749,0.2001662254333496
1761371082550793700,3.649793701171875,0.048241615295410156,0.6724238395690918,0.11134958267211914
1761371082569406500,3.668406494140625,0.10842037200927734,0.5862479209899902,-0.06315231323242188
1761371082588017700,3.687017578125,0.07308578491210938,0.579369306564331,-0.3315305709838867
1761371082606630400,3.70563037109375,-0.051033973693847656,0.7214322090148926,-0.6053624153137207
1761371082625241600,3.72424169921875,-0.21167612075805664,0.9860758781433105,-0.7890095710754395
1761371082643854300,3.742854248046875,-0.502161979675293,1.1205523014068604,-1.0636248588562012
1761371082662465500,3.761465576171875,-0.9418997764587402,0.9792935848236084,-1.153184413909912
1761371082681078000,3.780078125,-1.3870110511779785,0.590447187423706,-0.945612907409668
1761371082699689200,3.798689208984375,-1.4220490455627441,0.2466881275177002,-0.7487998008728027
1761371082718302000,3.817302001953125,-0.7604799270629883,-0.03620743751525879,-0.7160062789916992
1761371082736913200,3.8359130859375,0.29561901092529297,-0.541581392288208,-0.6838526725769043
1761371082755526000,3.85452587890625,1.0514287948608398,-1.1638376712799072,-0.6932244300842285
1761371082774137000,3.87313720703125,1.1206836700439453,-1.6728432178497314,-0.6869282722473145
1761371082792749800,3.891749755859375,0.5890645980834961,-1.7581758499145508,-0.8951625823974609
1761371082811361000,3.910361083984375,-0.3447718620300293,-1.5400789976119995,-0.7966709136962891
1761371082829973800,3.928973876953125,-0.7275633811950684,-1.0981444120407104,-0.5999722480773926
1761371082848585000,3.9475849609375,-0.6472296714782715,-0.7831833362579346,-0.2520780563354492
1761371082867197700,3.96619775390625,-0.29092931747436523,-0.6322317123413086,0.1638956069946289
1761371082885808600,3.98480859375,0.06529426574707031,-0.5307562351226807,0.4039735794067383
1761371082904421400,4.00342138671875,0.1379709243774414,-0.4974839687347412,0.5777750015258789
1761371082923032600,4.022032470703125,-0.10015869140625,-0.49228334426879883,0.5344769954681396
1761371082941645300,4.040645263671875,-0.43717288970947266,-0.575836181640625,0.3448069095611572
1761371082960256500,4.059256591796875,-0.7275161743164062,-0.6981849670410156,0.20085978507995605
1761371082978869200,4.077869140625,-0.8925542831420898,-0.7250008583068848,0.13956856727600098
1761371082997480400,4.09648046875,-0.8243250846862793,-0.6599891185760498,0.17864489555358887
1761371083016093200,4.11509326171875,-0.8369002342224121,-0.5038497447967529,0.27866506576538086
1761371083034704400,4.133704345703125,-1.0886287689208984,-0.17357635498046875,0.18582677841186523
1761371083053316900,4.15231689453125,-1.3820714950561523,0.25728368759155273,0.04721975326538086
1761371083071928000,4.170927978515625,-1.5052423477172852,0.5735456943511963,-0.0006515979766845703
1761371083090540800,4.189540771484375,-1.2397470474243164,0.7116949558258057,0.07861471176147461
1761371083109152000,4.208152099609375,-0.5478568077087402,0.6254637241363525,0.1775662899017334
1761371083127764700,4.2267646484375,0.26772022247314453,0.33182573318481445,0.36019420623779297
1761371083146376000,4.2453759765625,0.9061679840087891,0.037335872650146484,0.4590950012207031
1761371083164988700,4.26398876953125,1.188826560974121,-0.21201062202453613,0.35151100158691406
1761371083183599900,4.282599853515625,1.0326423645019531,-0.4274940490722656,0.07330822944641113
1761371083202212600,4.301212646484375,0.4543571472167969,-0.3434593677520752,-0.3710799217224121
1761371083220823600,4.319823486328125,-0.19852924346923828,0.02450704574584961,-0.5679101943969727
1761371083239436300,4.338436279296875,-0.4853239059448242,0.5136551856994629,-0.4111335277557373
1761371083258047500,4.357047607421875,-0.45020484924316406,0.8559772968292236,-0.03228473663330078
1761371083276660200,4.37566015625,-0.2534923553466797,1.1976675987243652,0.2653543949127197
1761371083295271400,4.394271484375,0.021732330322265625,1.5730464458465576,0.46359682083129883
1761371083313884200,4.41288427734375,0.21760940551757812,1.659541130065918,0.7071161270141602
1761371083332495400,4.431495361328125,0.4753150939941406,1.58980393409729,0.7714200019836426
1761371083351108000,4.450108154296875,0.8153858184814453,1.3047726154327393,0.6330981254577637
1761371083369719300,4.46871923828125,1.128580093383789,0.8324785232543945,0.43034887313842773
1761371083388331800,4.487331787109375,1.287917137145996,0.32936739921569824,-0.0816807746887207
1761371083406943000,4.50594287109375,1.3159151077270508,0.03029489517211914,-0.6199302673339844
1761371083425555700,4.5245556640625,1.165083885192871,0.04420185089111328,-0.8341374397277832
1761371083444167000,4.5431669921875,0.8260660171508789,0.20374786853790283,-0.7344875335693359
1761371083462779600,4.561779541015625,0.6016864776611328,0.49440932273864746,-0.4788651466369629
1761371083481390800,4.580390869140625,0.6727571487426758,0.6887004375457764,-0.055501461029052734
1761371083500003600,4.599003662109375,1.1145448684692383,0.7515175342559814,0.3580198287963867
1761371083518614800,4.61761474609375,1.5071077346801758,0.6902816295623779,0.6377124786376953
1761371083537227500,4.6362275390625,1.6459741592407227,0.5557084083557129,0.8508524894714355
1761371083555838700,4.654838623046875,1.573887825012207,0.4074680805206299,1.0887651443481445
1761371083574451200,4.673451171875,1.3275713920593262,0.3847768306732178,1.2802658081054688
1761371083593062400,4.6920625,0.8847746849060059,0.40401315689086914,1.34871244430542
1761371083611675100,4.710675048828125,0.5002899169921875,0.4063248634338379,1.4361910820007324
1761371083630286300,4.729286376953125,0.24719524383544922,0.339444637298584,1.6235103607177734
1761371083648899000,4.747899169921875,0.13746070861816406,0.24018120765686035,1.6927132606506348
1761371083667510300,4.76651025390625,0.09386587142944336,0.2028522491455078,1.4385128021240234
1761371083686123000,4.785123046875,0.1315765380859375,0.26441431045532227,1.1043500900268555
1761371083704734000,4.80373388671875,0.21985864639282227,0.32410097122192383,0.9612021446228027
1761371083723346700,4.8223466796875,0.28215980529785156,0.35876011848449707,0.9336404800415039
1761371083741958000,4.8409580078125,0.5311794281005859,0.42838406562805176,0.9330635070800781
1761371083760570600,4.859570556640625,0.8461179733276367,0.3525121212005615,0.8402070999145508
1761371083779181800,4.878181884765625,1.097275733947754,0.16555023193359375,0.6597447395324707
1761371083797794600,4.896794677734375,1.0633811950683594,-0.10044455528259277,0.5490751266479492
1761371083816405800,4.91540576171875,0.6715927124023438,-0.3260946273803711,0.4991593360900879
1761371083835018500,4.9340185546875,0.1197967529296875,-0.3268887996673584,0.520054817199707
1761371083853629700,4.952629638671875,-0.27658653259277344,-0.14980554580688477,0.8553342819213867
1761371083872242400,4.971242431640625,-0.49622678756713867,-0.01498270034790039,1.1515588760375977
1761371083890853400,4.989853271484375,-0.5088076591491699,0.02565312385559082,1.2610654830932617
1761371083909466000,5.008466064453125,-0.5147213935852051,-0.02962350845336914,1.3395929336547852
1761371083928077300,5.027077392578125,-0.5967426300048828,-0.06420445442199707,1.5545201301574707
1761371083946690000,5.04568994140625,-0.8297009468078613,-0.09142208099365234,1.6248483657836914
1761371083965301200,5.06430126953125,-1.1739859580993652,0.09728670120239258,1.2180864810943604
1761371083983914000,5.0829140625,-1.7849621772766113,0.5417828559875488,0.5117473602294922
1761371084002525200,5.101525146484375,-2.235663890838623,0.8867206573486328,0.45246028900146484
1761371084021137700,5.1201376953125,-2.2386255264282227,1.1245794296264648,0.2940101623535156
1761371084039748900,5.138748779296875,-1.798771858215332,1.08982515335083,0.21005487442016602
1761371084058361600,5.157361572265625,-0.9121870994567871,0.879117488861084,0.24680471420288086
1761371084076972800,5.175972900390625,-0.025085926055908203,0.6342282295227051,0.1004786491394043
1761371084095585500,5.19458544921875,0.7609152793884277,0.4082958698272705,-0.23169326782226562
1761371084114196700,5.21319677734375,1.1198768615722656,0.28907227516174316,-0.44136571884155273
1761371084132809500,5.2318095703125,0.9974865913391113,0.2611842155456543,-0.5945496559143066
1761371084151420400,5.25042041015625,0.84564208984375,0.11591029167175293,-0.7571263313293457
1761371084170033200,5.269033203125,0.9029288291931152,-0.22623848915100098,-0.8474831581115723
1761371084188644400,5.287644287109375,0.9680075645446777,-0.471729040145874,-0.9208130836486816
1761371084207257000,5.306257080078125,1.1064472198486328,-0.5060107707977295,-0.9062328338623047
1761371084225868300,5.324868408203125,1.0615086555480957,-0.37823987007141113,-0.5914740562438965
1761371084244481000,5.34348095703125,0.4500908851623535,-0.10123777389526367,-0.16535425186157227
1761371084263092200,5.36209228515625,-0.3465127944946289,0.31243133544921875,-0.07429027557373047
1761371084281705000,5.380705078125,-0.8776640892028809,0.6003966331481934,0.0422053337097168
1761371084300316000,5.39931591796875,-0.8085427284240723,0.668057918548584,0.1632370948791504
1761371084318928600,5.4179287109375,-0.23123598098754883,0.5403342247009277,0.30243873596191406
1761371084337539800,5.436539794921875,0.13468313217163086,0.1053457260131836,0.4758434295654297
1761371084356152600,5.455152587890625,-0.009536266326904297,-0.17240667343139648,0.3492879867553711
1761371084374763800,5.473763671875,-0.14043760299682617,-0.5136961936950684,0.3427867889404297
1761371084393376500,5.49237646484375,-0.5571498870849609,-0.42745161056518555,0.04916715621948242
1761371084411987700,5.51098779296875,-0.8775863647460938,-0.3856320381164551,-0.07058906555175781
1761371084430600200,5.52960009765625,-1.0633125305175781,-0.317690372467041,-0.20522594451904297
1761371084449211400,5.54821142578125,-1.0948705673217773,-0.24605894088745117,-0.3017559051513672
1761371084467824000,5.56682421875,-1.1259050369262695,-0.23468542098999023,-0.2838170528411865
1761371084486435300,5.585435302734375,-0.9848923683166504,-0.1386880874633789,-0.271822452545166
1761371084505048000,5.604048095703125,-0.45052623748779297,-0.07465982437133789,-0.12794709205627441
1761371084523659300,5.6226591796875,-0.006274223327636719,-0.09718513488769531,-0.19518232345581055
1761371084542271700,5.641271728515625,0.2984609603881836,-0.13177871704101562,-0.33394312858581543
1761371084560883000,5.659883056640625,0.4125661849975586,-0.14410877227783203,-0.3285713195800781
1761371084579495700,5.67849560546875,0.3966541290283203,-0.05651378631591797,-0.18645024299621582
1761371084598107000,5.69710693359375,0.2380218505859375,0.021436214447021484,0.01591944694519043
1761371084616719600,5.7157197265625,0.014243125915527344,0.1235651969909668,-0.010088920593261719
1761371084635330800,5.734330810546875,-0.04726886749267578,0.19468927383422852,-0.14554691314697266
1761371084653943600,5.752943603515625,0.3315753936767578,0.2490987777709961,0.011315107345581055
1761371084672554500,5.771554443359375,0.8835563659667969,0.16711187362670898,0.4015519618988037
1761371084691167200,5.790167236328125,1.263427734375,0.19334793090820312,0.5213152170181274
1761371084709778400,5.8087783203125,1.3357572555541992,0.30385351181030273,0.4538273811340332
1761371084728391200,5.82739111328125,1.4027070999145508,0.32061004638671875,0.41367125511169434
1761371084747002400,5.84600244140625,1.5850486755371094,0.3097076416015625,0.6436610221862793
1761371084765615000,5.864614990234375,1.7301692962646484,0.2082228660583496,0.9977505207061768
1761371084784226000,5.88322607421875,1.5905380249023438,-0.04763507843017578,1.2497788667678833
1761371084802838800,5.9018388671875,1.2345342636108398,-0.3500514030456543,1.4003958702087402
1761371084821450000,5.920449951171875,0.8357734680175781,-0.5788874626159668,1.5031235218048096
1761371084840062700,5.939062744140625,0.5220613479614258,-0.628962516784668,1.4433820247650146
1761371084858674000,5.957673828125,0.03566455841064453,-0.5903811454772949,1.2853882312774658
1761371084877286700,5.97628662109375,-0.5372347831726074,-0.36961841583251953,1.0311453342437744
1761371084895897600,5.994897705078125,-1.1028413772583008,-0.09563589096069336,0.849278450012207
1761371084933121500,6.03212158203125,-1.1899337768554688,0.30805397033691406,0.6345696449279785
1761371084951734300,6.050734375,-0.716437816619873,0.28446483612060547,0.6705996990203857
1761371084970345500,6.069345458984375,-0.326080322265625,0.1755223274230957,0.7206342220306396
1761371084988958200,6.087958251953125,0.11158370971679688,0.060739994049072266,0.7041465044021606
1761371085007569400,6.1065693359375,0.4388713836669922,-0.10105705261230469,0.5972422361373901
1761371085026182000,6.125181884765625,0.5871973037719727,-0.14516305923461914,0.248407244682312
1761371085044793000,6.14379296875,0.49710655212402344,-0.06099128723144531,-0.0652318000793457
1761371085063405800,6.16240576171875,0.3223733901977539,0.07454204559326172,-0.023148298263549805
1761371085082017000,6.18101708984375,0.18198204040527344,0.250244140625,0.23327398300170898
1761371085100629800,6.199629638671875,0.04115772247314453,0.4071683883666992,0.5196622610092163
1761371085119240700,6.21824072265625,-0.18738508224487305,0.4756789207458496,0.821815013885498
1761371085137853400,6.236853515625,-0.5654668807983398,0.4979825019836426,1.0593369007110596
1761371085156464600,6.255464599609375,-0.8416571617126465,0.6342110633850098,1.083080768585205
1761371085175077400,6.274077392578125,-0.8382596969604492,0.6101975440979004,0.9966471195220947
1761371085193688600,6.2926884765625,-0.6405715942382812,0.45142364501953125,0.7911913394927979
1761371085212301300,6.31130126953125,-0.6074619293212891,0.2658829689025879,0.5932624340057373
1761371085230912300,6.329912353515625,-0.7614841461181641,0.23235273361206055,0.3746105432510376
1761371085249525000,6.34852490234375,-0.8245086669921875,0.3167304992675781,0.13791728019714355
1761371085268136200,6.36713623046875,-0.5447893142700195,0.37947702407836914,0.014003992080688477
1761371085286749000,6.3857490234375,-0.28534650802612305,0.38133668899536133,-0.012166261672973633
1761371085305360100,6.404360107421875,-0.2936282157897949,0.43997621536254883,-0.13208317756652832
1761371085323972600,6.42297265625,-0.5986928939819336,0.5388040542602539,-0.29496335983276367
1761371085342583800,6.441583740234375,-0.8419222831726074,0.6074199676513672,-0.3316621780395508
1761371085361196500,6.460196533203125,-0.7173323631286621,0.6970129013061523,-0.18108105659484863
1761371085379807700,6.478807861328125,-0.20066356658935547,0.7431221008300781,0.11286711692810059
1761371085398420500,6.49742041015625,0.5252237319946289,0.5957727432250977,0.33849358558654785
1761371085417031700,6.51603173828125,1.200066089630127,0.31575584411621094,0.47279250621795654
1761371085435644200,6.53464404296875,1.5165019035339355,-0.002029895782470703,0.5093218088150024
1761371085454255400,6.55325537109375,1.391214370727539,-0.21582555770874023,0.39061474800109863
1761371085472868000,6.5718681640625,0.8797030448913574,-0.19785165786743164,0.06602001190185547
1761371085491479300,6.590479248046875,0.37755584716796875,-0.1360797882080078,-0.10131025314331055
1761371085510092000,6.609092041015625,0.10432052612304688,-0.1310114860534668,-0.09240174293518066
1761371085528703000,6.627702880859375,-0.08044719696044922,-0.27216243743896484,0.045595645904541016
1761371085547315700,6.646315673828125,-0.31320667266845703,-0.47494935989379883,0.054598331451416016
1761371085565927000,6.664927001953125,-0.5876865386962891,-0.604060173034668,-0.14664506912231445
1761371085584539600,6.68353955078125,-0.8073153495788574,-0.6271743774414062,-0.38124942779541016
1761371085603150800,6.70215087890625,-0.8603897094726562,-0.5583314895629883,-0.47109293937683105
1761371085621763300,6.720763427734375,-0.689582347869873,-0.47823429107666016,-0.45287466049194336
1761371085640374500,6.73937451171875,-0.40479230880737305,-0.4575815200805664,-0.3281078338623047
1761371085658987300,6.7579873046875,-0.13683080673217773,-0.4279356002807617,-0.1759350299835205
1761371085677598500,6.776598388671875,0.04375171661376953,-0.3588390350341797,-0.052620887756347656
1761371085696211200,6.795211181640625,0.14556121826171875,-0.3172731399536133,0.03854727745056152
1761371085714822100,6.813822265625,0.12051963806152344,-0.3456277847290039,0.11882209777832031
1761371085733435000,6.832434814453125,-0.11114788055419922,-0.3854994773864746,0.12384271621704102
1761371085752046000,6.851046142578125,-0.4237980842590332,-0.3646354675292969,-0.03344583511352539
1761371085770658800,6.869658935546875,-0.7342238426208496,-0.34032440185546875,-0.1828622817993164
1761371085789270000,6.88827001953125,-0.8894109725952148,-0.28313159942626953,-0.3675417900085449
1761371085807882500,6.906882568359375,-0.9043979644775391,-0.20832204818725586,-0.5132708549499512
1761371085826493700,6.92549365234375,-0.8841309547424316,-0.1759166717529297,-0.6045506000518799
1761371085845106400,6.9441064453125,-0.7837381362915039,-0.1222081184387207,-0.8205039501190186
1761371085863717600,6.962717529296875,-0.6312761306762695,-0.1353898048400879,-1.0196001529693604
1761371085882330400,6.981330322265625,-0.45490217208862305,-0.10237836837768555,-1.174393653869629
1761371085900941300,6.99994140625,-0.3654460906982422,0.004311084747314453,-1.3454670906066895
1761371085919554000,7.018553955078125,-0.2497711181640625,0.11616086959838867,-1.4717974662780762
1761371085938165200,7.037165283203125,0.06989860534667969,0.18950271606445312,-1.5345289707183838
1761371085956778000,7.055778076171875,0.5371694564819336,0.21599388122558594,-1.4792087078094482
1761371085975389200,7.07438916015625,1.0856218338012695,0.2532048225402832,-1.3129048347473145
1761371085994001700,7.093001708984375,1.5184869766235352,0.33110952377319336,-1.0760037899017334
1761371086012612900,7.11161279296875,1.8258447647094727,0.3290281295776367,-0.9549715518951416
1761371086031225600,7.1302255859375,2.0029611587524414,0.21807408332824707,-0.8812823295593262
1761371086049836800,7.1488369140625,1.9303913116455078,0.02252364158630371,-0.6630702018737793
1761371086068449500,7.167449462890625,1.6281700134277344,-0.07280945777893066,-0.43805909156799316
1761371086087060500,7.186060546875,1.3034963607788086,-0.11229181289672852,-0.1666724681854248
1761371086105673200,7.204673095703125,0.9305324554443359,-0.14594531059265137,-0.08353447914123535
1761371086124284400,7.223284423828125,0.5431432723999023,-0.24028801918029785,-0.1618337631225586
1761371086142897200,7.241897216796875,0.17075634002685547,-0.29846954345703125,-0.19007205963134766
1761371086161508400,7.26050830078125,0.09794235229492188,-0.30875134468078613,-0.13086867332458496
1761371086180120800,7.279120849609375,0.34491825103759766,-0.4185035228729248,0.08293747901916504
1761371086198732000,7.29773193359375,0.7833881378173828,-0.5875799655914307,0.33112025260925293
1761371086217344800,7.3163447265625,1.0067853927612305,-0.7815089225769043,0.5776553153991699
1761371086235956000,7.3349560546875,0.6794548034667969,-0.8541414737701416,0.7576758861541748
1761371086254568400,7.353568359375,-0.03311443328857422,-0.6498763561248779,0.6891720294952393
1761371086273179600,7.3721796875,-0.7530303001403809,-0.33583760261535645,0.5809414386749268
1761371086291792400,7.39079248046875,-1.1920194625854492,0.023890972137451172,0.4504885673522949
1761371086310403600,7.409403564453125,-1.2299771308898926,0.20074081420898438,0.46181726455688477
1761371086329016300,7.428016357421875,-0.9012069702148438,0.20922183990478516,0.61678147315979
1761371086347627300,7.446627197265625,-0.47405242919921875,-0.05518484115600586,0.6119906902313232
1761371086366240000,7.465239990234375,-0.061478614807128906,-0.37825918197631836,0.39715147018432617
1761371086384851200,7.483851318359375,0.32354259490966797,-0.7113487720489502,-0.003971099853515625
1761371086403464000,7.5024638671875,0.6508722305297852,-0.9685966968536377,-0.47803688049316406
1761371086422075100,7.5210751953125,0.691889762878418,-1.1826965808868408,-0.7500882148742676
1761371086440687600,7.5396875,0.34140491485595703,-1.1458189487457275,-0.7490317821502686
1761371086459298800,7.558298828125,-0.2543449401855469,-0.8847746849060059,-0.42618656158447266
1761371086477911600,7.57691162109375,-0.8063254356384277,-0.6583447456359863,-0.02457904815673828
1761371086496522500,7.5955224609375,-1.2656149864196777,-0.4659006595611572,0.3509202003479004
1761371086515135200,7.61413525390625,-1.51466703414917,-0.21172833442687988,0.5733537673950195
1761371086533746400,7.632746337890625,-1.6005325317382812,0.007408618927001953,0.7082959413528442
1761371086552359200,7.651359130859375,-1.4149484634399414,0.0908193588256836,0.7179461717605591
1761371086570970400,7.669970458984375,-1.1461286544799805,0.04022789001464844,0.606726884841919
1761371086589582800,7.688582763671875,-1.0370807647705078,-0.01854991912841797,0.34412312507629395
1761371086608194000,7.707194091796875,-0.9153623580932617,0.003368854522705078,-0.055511474609375
1761371086626806800,7.725806884765625,-0.6417932510375977,0.06424474716186523,-0.3491394519805908
1761371086645418000,7.74441796875,-0.2800922393798828,0.1748945713043213,-0.444591760635376
1761371086664030500,7.763030517578125,-0.07680892944335938,0.2939629554748535,-0.4785609245300293
1761371086682641700,7.7816416015625,-0.1206350326538086,0.5388565063476562,-0.5764451026916504
1761371086701254400,7.80025439453125,-0.1537628173828125,0.7831449508666992,-0.6268486976623535
1761371086719865600,7.818865478515625,0.17695999145507812,0.9275646209716797,-0.7769992351531982
1761371086738478000,7.83747802734375,0.9319934844970703,0.7345359325408936,-0.9929704666137695
1761371086757089300,7.85608935546875,1.7819223403930664,0.31746816635131836,-1.1164298057556152
1761371086775702000,7.874701904296875,2.353982925415039,-0.11929845809936523,-1.1630477905273438
1761371086794313200,7.893313232421875,2.4599828720092773,-0.4855198860168457,-1.1166141033172607
1761371086812925700,7.91192578125,2.253777503967285,-0.6135122776031494,-1.0508227348327637
1761371086831537000,7.930536865234375,1.8532695770263672,-0.6680376529693604,-0.7744989395141602
1761371086850149600,7.949149658203125,1.3443069458007812,-0.6560392379760742,-0.31253910064697266
1761371086868760800,7.9677607421875,0.7993021011352539,-0.5502169132232666,0.12134218215942383
1761371086887373600,7.98637353515625,0.3193473815917969,-0.5289788246154785,0.3914299011230469
1761371086905984500,8.004984619140625,-0.034659385681152344,-0.5849459171295166,0.5214141607284546
1761371086924597200,8.02359716796875,-0.2918205261230469,-0.6719198226928711,0.5598129034042358
1761371086943208400,8.04220849609375,-0.40156078338623047,-0.7228798866271973,0.5530915260314941
1761371086961821200,8.0608212890625,-0.3672981262207031,-0.6609597206115723,0.43283116817474365
1761371086980432100,8.07943212890625,-0.035945892333984375,-0.6474957466125488,0.33525538444519043
1761371086999044900,8.098044921875,0.5586824417114258,-0.7668824195861816,0.27263784408569336
1761371087017656000,8.116656005859374,1.136795997619629,-1.0498507022857666,0.2958641052246094
1761371087036268500,8.1352685546875,1.5403718948364258,-1.3629798889160156,0.28713881969451904
1761371087054879700,8.153879638671874,1.7783660888671875,-1.5780043601989746,0.17473292350769043
1761371087073492500,8.172492431640626,1.7075891494750977,-1.7766969203948975,0.009294748306274414
1761371087092103700,8.191103759765625,1.604182243347168,-1.8728652000427246,-0.25413262844085693
1761371087110716400,8.20971630859375,1.6040763854980469,-2.0004701614379883,-0.4150428771972656
1761371087129327400,8.228327392578125,1.5517005920410156,-2.1007792949676514,-0.4643566608428955
1761371087147940000,8.246940185546874,1.1409482955932617,-2.156575918197632,-0.4238992929458618
1761371087166551300,8.26555126953125,0.4335136413574219,-2.1269047260284424,-0.4559342861175537
1761371087185164000,8.2841640625,-0.1334676742553711,-2.0544369220733643,-0.6673200130462646
1761371087203775000,8.30277490234375,-0.315765380859375,-1.9395391941070557,-0.916892409324646
1761371087222387700,8.3213876953125,-0.3187589645385742,-1.8764913082122803,-1.044861912727356
1761371087240999000,8.3399990234375,-0.48186302185058594,-1.8957679271697998,-1.0753625631332397
1761371087259611600,8.358611572265625,-0.8701620101928711,-1.826850175857544,-1.1059962511062622
1761371087278222600,8.37722265625,-1.1430764198303223,-1.628584623336792,-1.2593739032745361
1761371087296835300,8.39583544921875,-0.9681611061096191,-1.4050989151000977,-1.411498785018921
1761371087315446500,8.414446533203124,-0.5646591186523438,-1.2772541046142578,-1.4956631660461426
1761371087334059000,8.43305908203125,-0.2978048324584961,-1.1946487426757812,-1.6117205619812012
1761371087352670200,8.451670166015624,-0.30834007263183594,-1.0185742378234863,-1.7803279161453247
1761371087371283000,8.470282958984376,-0.4045848846435547,-0.8092761039733887,-1.954782247543335
1761371087389894100,8.48889404296875,-0.2714385986328125,-0.6072940826416016,-1.9714241027832031
1761371087408506600,8.507506591796876,0.30618762969970703,-0.677497386932373,-1.6059222221374512
1761371087427117800,8.526117919921875,1.3528203964233398,-0.9334259033203125,-1.147589921951294
1761371087445730600,8.54473046875,2.3138999938964844,-1.353156328201294,-0.7219970226287842
1761371087464341800,8.563341796875,2.8432788848876953,-1.8709776401519775,-0.3072432279586792
1761371087482954200,8.581954345703124,2.643893241882324,-2.1641101837158203,-0.18466663360595703
1761371087501565400,8.6005654296875,1.7531461715698242,-2.114469289779663,0.09854698181152344
1761371087520178200,8.61917822265625,0.6596364974975586,-1.7647674083709717,0.6525141000747681
1761371087538789400,8.637789306640625,-0.13885021209716797,-1.1634612083435059,1.2943274974822998
1761371087557401900,8.65640185546875,-0.6245594024658203,-0.5209803581237793,1.941496729850769
1761371087576013000,8.675012939453126,-0.5807571411132812,0.10687112808227539,2.5514092445373535
1761371087594625800,8.693625732421875,-0.31647682189941406,0.4984149932861328,3.151928663253784
1761371087613236700,8.71223681640625,-0.10325431823730469,0.9495863914489746,3.6795878410339355
1761371087631849500,8.730849365234375,0.048689842224121094,0.8986015319824219,3.834426164627075
1761371087650460700,8.749460693359374,0.32184791564941406,1.1143758296966553,3.7759742736816406
1761371087669073400,8.768073486328126,0.7468852996826172,1.276982069015503,3.5646896362304688
1761371087687684400,8.786684326171875,1.5170927047729492,0.8620374202728271,3.2229199409484863
1761371087706297000,8.805297119140626,2.011672019958496,0.7519168853759766,2.6728343963623047
1761371087724908300,8.823908203125,2.0168304443359375,0.5624082088470459,2.4288783073425293
1761371087743521000,8.84252099609375,1.931777000427246,0.5596404075622559,2.228567123413086
1761371087762132000,8.861132080078125,1.783757209777832,0.6023952960968018,2.1293318271636963
1761371087780744700,8.87974462890625,1.3815994262695312,0.5151803493499756,2.2102460861206055
1761371087799356000,8.89835595703125,0.7890996932983398,0.3960306644439697,2.0921401977539062
1761371087817968400,8.916968505859375,0.18245792388916016,0.29592013359069824,1.7609400749206543
1761371087836579600,8.93557958984375,-0.2128429412841797,0.22463035583496094,1.3143625259399414
1761371087855192300,8.9541923828125,-0.39972496032714844,0.25649333000183105,0.9737961292266846
1761371087873803500,8.972803466796876,-0.45180511474609375,0.2723734378814697,0.8438606262207031
1761371087892416000,8.991416015625,-0.5243701934814453,0.13773846626281738,1.0067169666290283
1761371087911027200,9.010027099609376,-0.5880918502807617,0.009839534759521484,1.2608810663223267
1761371087929640000,9.028639892578125,-0.5598983764648438,-0.05111336708068848,1.3595476150512695
1761371087948251000,9.0472509765625,-0.5282754898071289,-0.18074655532836914,1.382885217666626
1761371087966863600,9.065863525390625,-0.46224403381347656,-0.20949959754943848,1.3402438163757324
1761371087985474800,9.084474853515625,-0.4030637741088867,0.007238149642944336,1.1072535514831543
1761371088004087300,9.10308740234375,-0.28501033782958984,0.21746301651000977,1.1707063913345337
1761371088022698500,9.121698486328125,-0.12918472290039062,0.3259925842285156,1.3716915845870972
1761371088041311200,9.140311279296874,-0.1331043243408203,0.46616697311401367,1.3049616813659668
1761371088059922400,9.15892236328125,-0.11781501770019531,0.4884064197540283,1.0753769874572754
1761371088078535000,9.177534912109374,0.04395008087158203,0.31544947624206543,1.1841760873794556
1761371088097146000,9.19614599609375,0.4068031311035156,0.014646053314208984,1.347845435142517
1761371088115758800,9.2147587890625,0.7341432571411133,-0.27962732315063477,1.041319727897644
1761371088134369800,9.233369873046875,0.8352470397949219,-0.5682473182678223,0.39952969551086426
1761371088152982500,9.251982421875,0.6251735687255859,-0.826815128326416,-0.22262072563171387
1761371088171593700,9.27059375,0.10835456848144531,-0.9112753868103027,-0.672457218170166
1761371088190206200,9.289206298828125,-0.5719289779663086,-0.841465950012207,-0.812995433807373
1761371088208817400,9.3078173828125,-1.2422552108764648,-0.5161757469177246,-0.8510327339172363
1761371088227430100,9.32643017578125,-1.6412353515625,-0.09882164001464844,-1.0038790702819824
1761371088246041300,9.345041259765624,-1.6977710723876953,0.33661651611328125,-1.1113309860229492
1761371088264653800,9.36365380859375,-1.3356690406799316,0.5157687664031982,-0.8308730125427246
1761371088283265000,9.38226513671875,-0.5516233444213867,0.41893792152404785,-0.44368839263916016
1761371088301877800,9.400877685546876,0.3183145523071289,0.23775792121887207,-0.2592031955718994
1761371088320488700,9.41948876953125,1.0206375122070312,0.07301712036132812,-0.34127163887023926
1761371088339101400,9.438101318359376,1.5721015930175781,0.005899667739868164,-0.6782678365707397
1761371088357712600,9.456712646484375,1.8078527450561523,-0.05012798309326172,-0.8932145833969116
1761371088376325400,9.475325439453124,1.7898569107055664,-0.1448976993560791,-0.9069415330886841
1761371088394936300,9.493936279296875,1.5510597229003906,-0.20183706283569336,-0.8340440988540649
1761371088413549000,9.512549072265625,1.067622184753418,-0.15970778465270996,-0.678390383720398
1761371088432160300,9.53116015625,0.35703468322753906,-0.046746253967285156,-0.49925732612609863
1761371088450772700,9.549772705078125,-0.25621795654296875,0.09064602851867676,-0.3953624963760376
1761371088469384000,9.568384033203126,-0.685359001159668,0.19016170501708984,-0.40062952041625977
1761371088487996700,9.58699658203125,-0.8586931228637695,0.29053258895874023,-0.5260225534439087
1761371088506607600,9.605607666015626,-0.8478002548217773,0.37953853607177734,-0.48464012145996094
1761371088525220400,9.624220458984375,-0.6829862594604492,0.45322704315185547,-0.3319075107574463
1761371088543831600,9.64283154296875,-0.35590457916259766,0.4675638675689697,-0.14260542392730713
1761371088562444300,9.6614443359375,0.07966327667236328,0.2870519161224365,0.04754066467285156
1761371088581055200,9.68005517578125,0.5506124496459961,0.10073161125183105,-0.06040036678314209
1761371088599668000,9.69866796875,0.9151782989501953,-0.06811976432800293,-0.16602647304534912
1761371088618279200,9.717279052734375,1.1106042861938477,-0.15357685089111328,-0.17450523376464844
1761371088636891600,9.7358916015625,1.1746110916137695,-0.09081435203552246,-0.07526552677154541
1761371088655502800,9.7545029296875,0.9505243301391602,0.016292095184326172,0.2565276622772217
1761371088674115600,9.773115478515624,0.5876541137695312,0.08787965774536133,0.5913701057434082
1761371088692726500,9.7917265625,0.21940994262695312,0.13352584838867188,0.9112139940261841
1761371088711339300,9.81033935546875,-0.043021202087402344,0.21476030349731445,1.1355897188186646
1761371088729950500,9.828950439453125,-0.16698932647705078,0.27692556381225586,1.2416603565216064
1761371088748563200,9.847563232421875,-0.29218387603759766,0.23955965042114258,1.382971167564392
1761371088767174100,9.866174072265625,-0.1884765625,0.03672075271606445,1.4311894178390503
1761371088785787000,9.884786865234375,0.014406204223632812,-0.2550373077392578,1.5121285915374756
1761371088804398000,9.903398193359376,0.05388832092285156,-0.3911609649658203,1.4808173179626465
1761371088823010600,9.922010498046875,0.043145179748535156,-0.36806726455688477,0.9646025896072388
1761371088841621800,9.940621826171874,-0.32297801971435547,-0.39700746536254883,0.6398113965988159
1761371088860234500,9.959234375,-0.950169563293457,-0.15040922164916992,0.347324013710022
1761371088878845400,9.977845458984374,-1.4112143516540527,0.4537010192871094,-0.031000375747680664
1761371088897458200,9.996458251953126,-1.503936767578125,0.840357780456543,0.051749348640441895
1761371088916069400,10.0150693359375,-1.0595464706420898,0.896458625793457,0.6406772136688232
1761371088934682000,10.03368212890625,-0.43179988861083984,0.8574519157409668,1.1584572792053223
1761371088953293000,10.05229296875,0.031164169311523438,0.7295694351196289,1.4340336322784424
1761371088971905800,10.07090576171875,0.2274341583251953,0.6457085609436035,1.2907739877700806
1761371088990517000,10.08951708984375,0.10182476043701172,0.6936707496643066,0.7968966364860535
1761371089009129500,10.10812939453125,-0.06737327575683594,0.7674217224121094,0.4743269681930542
1761371089027740700,10.12674072265625,-0.14751911163330078,0.9166693687438965,0.45538008213043213
1761371089046353400,10.145353515625,0.023609161376953125,1.0472142696380615,0.5027313232421875
1761371089064964400,10.16396435546875,0.3857765197753906,0.9856505393981934,0.6758643388748169
1761371089083577000,10.1825771484375,0.5327215194702148,0.907731294631958,0.7461203336715698
1761371089102188300,10.201188232421876,0.1833810806274414,0.8285117149353027,0.6179186105728149
1761371089120800800,10.21980078125,-0.3513612747192383,0.7913322448730469,0.3602614402770996
1761371089139412000,10.238411865234376,-0.7567768096923828,0.729924201965332,0.24309194087982178
1761371089158024700,10.257024658203125,-0.8802328109741211,0.7312898635864258,0.18424701690673828
1761371089176636000,10.275635986328124,-0.7623777389526367,0.6902689933776855,0.1919337511062622
1761371089195248400,10.294248291015625,-0.4970283508300781,0.6712450981140137,0.1723235845565796
1761371089213859600,10.312859619140625,-0.18578815460205078,0.6206846237182617,0.2073146104812622
1761371089232472300,10.331472412109376,0.11871051788330078,0.5241012573242188,0.16604936122894287
1761371089251083300,10.350083251953125,0.34107017517089844,0.46961355209350586,0.11231720447540283
1761371089269696000,10.368696044921874,0.46893882751464844,0.5595879554748535,0.0077817440032958984
1761371089288307200,10.38730712890625,0.4356546401977539,0.6694340705871582,0.018624424934387207
1761371089306919700,10.405919677734374,0.44813060760498047,0.6991486549377441,0.17775750160217285
1761371089325531000,10.42453076171875,0.46202564239501953,0.7002501487731934,0.381888747215271
1761371089344143600,10.4431435546875,0.41607189178466797,0.41624021530151367,0.6740577220916748
1761371089362754600,10.461754638671875,0.3442096710205078,0.04546403884887695,0.7105258703231812
1761371089381367300,10.4803671875,0.3764305114746094,-0.29258155822753906,0.3482632637023926
1761371089399978500,10.498978515625,0.16477012634277344,-0.48769474029541016,0.16048359870910645
1761371089418591200,10.51759130859375,-0.34801387786865234,-0.47673559188842773,-0.07567024230957031
1761371089437202200,10.5362021484375,-0.7314224243164062,-0.21498870849609375,-0.33759355545043945
1761371089455815000,10.55481494140625,-1.0380020141601562,-0.10435771942138672,-0.42783212661743164
1761371089474426000,10.573426025390624,-0.833406925201416,-0.214263916015625,-0.2559080123901367
1761371089493038600,10.59203857421875,0.018439292907714844,-0.416412353515625,-0.10690021514892578
1761371089511649800,10.61064990234375,0.7482891082763672,-0.6653013229370117,0.06075763702392578
1761371089530262500,10.629262451171876,0.8475236892700195,-0.8023748397827148,0.12963199615478516
1761371089548873500,10.64787353515625,0.4549541473388672,-0.6708176136016846,-0.05505657196044922
1761371089567486200,10.666486328125,0.022955894470214844,-0.4974827766418457,-0.23459315299987793
1761371089586097400,10.685097412109375,-0.09883499145507812,-0.40759992599487305,-0.26206398010253906
1761371089604710000,10.7037099609375,0.21066665649414062,-0.5084090232849121,0.03517866134643555
1761371089623321000,10.722321044921875,0.6162300109863281,-0.6817219257354736,0.42600786685943604
1761371089641933800,10.740933837890625,0.6245594024658203,-0.8148837089538574,0.5089502334594727
1761371089660544800,10.759544677734375,0.35134029388427734,-0.8636496067047119,0.36213231086730957
1761371089679157500,10.778157470703125,0.10138988494873047,-0.8446321487426758,0.2526094913482666
1761371089697768700,10.796768798828126,-0.05838203430175781,-0.8087968826293945,0.23807883262634277
1761371089716381400,10.81538134765625,-0.22804927825927734,-0.7654721736907959,0.23913884162902832
1761371089734992400,10.833992431640626,-0.22455215454101562,-0.644411563873291,0.07595181465148926
1761371089753605000,10.852605224609375,-0.10045146942138672,-0.5794577598571777,0.011650800704956055
1761371089772216300,10.87121630859375,-0.0002384185791015625,-0.5259528160095215,0.07193684577941895
1761371089790828800,10.889828857421875,-0.082427978515625,-0.5487127304077148,0.2406325340270996
1761371089809440000,10.90843994140625,-0.06244182586669922,-0.4299659729003906,0.2993800640106201
1761371089828052700,10.927052734375,-0.062155723571777344,-0.25522899627685547,0.28722667694091797
1761371089846663700,10.94566357421875,0.0758962631225586,-0.11125469207763672,0.11615467071533203
1761371089865276400,10.9642763671875,0.22745990753173828,-0.0667724609375,0.10433721542358398
1761371089883887600,10.9828876953125,0.2818889617919922,0.011653423309326172,0.15596675872802734
1761371089902500000,11.0015,0.27291297912597656,0.08510971069335938,0.15858173370361328
1761371089921111300,11.020111328125,0.2531700134277344,0.10531902313232422,0.10101461410522461
1761371089939724000,11.03872412109375,0.25216197967529297,0.14827251434326172,0.03622031211853027
1761371089958335000,11.0573349609375,0.41323280334472656,0.1816844940185547,0.007045745849609375
1761371089976947700,11.07594775390625,0.7131471633911133,0.029871463775634766,0.13328814506530762
1761371089995559000,11.094558837890625,0.7051143646240234,-0.1432485580444336,0.17826628684997559
1761371090014171400,11.11317138671875,0.3799104690551758,-0.2408294677734375,-0.028792858123779297
1761371090032782600,11.131782470703126,0.22759151458740234,-0.12294769287109375,-0.24606919288635254
1761371090051395300,11.150395263671875,-0.1069936752319336,-0.040452003479003906,-0.13686776161193848
1761371090070006300,11.16900634765625,-0.2871379852294922,-0.06439399719238281,0.32419610023498535
1761371090088619000,11.187618896484375,-0.5787172317504883,-0.04321479797363281,0.4745039939880371
1761371090107230200,11.206230224609374,-0.7600154876708984,-0.12315177917480469,0.2328023910522461
