time,seconds_elapsed,z,y,x
1761369791117292800,0.204292724609375,-0.2968740463256836,-0.11866617202758789,0.7996212244033813
1761369791126812000,0.21381201171875,-0.14553070068359375,-0.12240409851074219,0.50907301902771
1761369791136330000,0.223330078125,-0.49368858337402344,0.07993030548095703,0.4249493181705475
1761369791145846500,0.232846435546875,-0.5739307403564453,0.2178483009338379,0.36687713861465454
1761369791155361800,0.24236181640625,-0.5935306549072266,0.20277023315429688,0.43932417035102844
1761369791164876000,0.2518759765625,-0.6932611465454102,0.09855890274047852,0.5485215783119202
1761369791174389000,0.261388916015625,-0.551579475402832,-0.07534360885620117,0.4910031259059906
1761369791183901000,0.27090087890625,-0.2881460189819336,-0.3063468933105469,0.42368659377098083
1761369791193411800,0.280411865234375,-0.06210136413574219,-0.49063682556152344,0.3296392858028412
1761369791202922000,0.289921875,0.001461029052734375,-0.523597002029419,0.1698600947856903
1761369791212431000,0.29943115234375,-0.049060821533203125,-0.47785496711730957,0.005895167589187622
1761369791221939500,0.308939453125,-0.20490074157714844,-0.378587007522583,-0.1379145383834839
1761369791231446800,0.31844677734375,-0.5116643905639648,-0.16788244247436523,-0.252843976020813
1761369791240953300,0.327953369140625,-0.8180418014526367,0.08364534378051758,-0.35429686307907104
1761369791250459100,0.337459228515625,-0.9453668594360352,0.26325130462646484,-0.47865888476371765
1761369791259964400,0.34696435546875,-0.8469810485839844,0.3576502799987793,-0.6779481172561646
1761369791269469000,0.356468994140625,-0.5501575469970703,0.3864006996154785,-0.9283703565597534
1761369791278972700,0.36597265625,-0.2424478530883789,0.3862133026123047,-1.1176426410675049
1761369791288476000,0.375475830078125,-0.015798568725585938,0.33374500274658203,-1.1831355094909668
1761369791297978600,0.384978515625,0.11511993408203125,0.23066043853759766,-1.1033045053482056
1761369791307480800,0.394480712890625,0.01793384552001953,0.14718341827392578,-0.9587710499763489
1761369791316982500,0.403982421875,-0.28351402282714844,0.07135295867919922,-0.7689143419265747
1761369791326483700,0.413483642578125,-0.5428714752197266,-0.027903079986572266,-0.5997836589813232
1761369791335984000,0.422984130859375,-0.6995439529418945,-0.1232151985168457,-0.5678569078445435
1761369791345484500,0.432484619140625,-0.7589597702026367,-0.13779211044311523,-0.6345465183258057
1761369791364483800,0.45148388671875,-0.2406330108642578,-0.03332710266113281,-1.0325015783309937
1761369791383481300,0.4704814453125,-0.06430912017822266,0.1441206932067871,-0.6756215691566467
1761369791402477600,0.4894775390625,0.0054168701171875,0.21917104721069336,0.28127962350845337
1761369791421472500,0.508472412109375,0.1457500457763672,-0.015699386596679688,0.4328354299068451
1761369791440183000,0.52718310546875,0.19386959075927734,-0.052562713623046875,0.6434088349342346
1761369791458792700,0.545792724609375,0.1546773910522461,0.10654878616333008,0.3122558891773224
1761369791477404000,0.56440380859375,0.19842910766601562,0.17733335494995117,0.09608369320631027
1761369791496013300,0.583013427734375,0.15452289581298828,0.04707908630371094,0.2823295295238495
1761369791514624500,0.60162451171875,0.1107645034790039,-0.02765035629272461,0.2949559688568115
1761369791533234200,0.620234130859375,-0.19237613677978516,-0.031905174255371094,0.21967929601669312
1761369791551845000,0.63884521484375,-0.4353322982788086,0.007843494415283203,0.18448621034622192
1761369791570454800,0.657454833984375,-0.36490631103515625,0.07782173156738281,0.13067995011806488
1761369791589066000,0.67606591796875,-0.2682456970214844,0.11682701110839844,0.1301080286502838
1761369791607675400,0.69467529296875,-0.36323070526123047,0.1741170883178711,0.09203939139842987
1761369791626286600,0.71328662109375,-0.5874929428100586,0.19405841827392578,0.023068314418196678
1761369791644896000,0.73189599609375,-0.5233383178710938,0.15438127517700195,-0.08953520655632019
1761369791663507200,0.750507080078125,-0.4234180450439453,0.10143136978149414,-0.060610331594944
1761369791682116900,0.769116943359375,-0.3867635726928711,-0.021226882934570312,0.07874122262001038
1761369791700728000,0.78772802734375,-0.12254524230957031,-0.13141632080078125,0.30531448125839233
1761369791719337500,0.80633740234375,0.24187469482421875,-0.18184518814086914,0.34344643354415894
1761369791737948700,0.82494873046875,0.49004650115966797,-0.17447757720947266,0.5070152282714844
1761369791756558000,0.84355810546875,0.5899505615234375,-0.2110733985900879,0.6836567521095276
1761369791775169300,0.862169189453125,0.4899759292602539,-0.26414060592651367,0.7186366319656372
1761369791793779000,0.880779052734375,0.2664155960083008,-0.14490413665771484,0.5439500212669373
1761369791812390100,0.89939013671875,0.004223823547363281,0.03920602798461914,0.39679664373397827
1761369791830999600,0.91799951171875,-0.2639350891113281,0.1568007469177246,0.11729902029037476
1761369791849610800,0.93661083984375,-0.09606742858886719,0.25632429122924805,0.03224444389343262
1761369791868220400,0.955220458984375,-0.09464263916015625,0.23644113540649414,-0.15709368884563446
1761369791886831400,0.973831298828125,-0.11592578887939453,0.1347637176513672,-0.024478726089000702
1761369791905441000,0.99244091796875,-0.19524478912353516,-0.017107486724853516,-0.014719799160957336
1761369791924052200,1.01105224609375,-0.4371786117553711,-0.07035112380981445,-0.15772351622581482
1761369791942661600,1.02966162109375,-0.5665626525878906,-0.07630395889282227,-0.1952226758003235
1761369791961272800,1.04827294921875,-0.5692558288574219,-0.11849164962768555,-0.19643568992614746
1761369791979882500,1.066882568359375,-0.2854299545288086,-0.18777847290039062,0.011770695447921753
1761369791998493400,1.085493408203125,0.12969112396240234,-0.15380334854125977,0.1421959549188614
1761369792017103000,1.10410302734375,0.4555540084838867,-0.0014128684997558594,0.0730583667755127
1761369792035714300,1.12271435546875,0.5688257217407227,0.0959625244140625,0.06699210405349731
1761369792054323700,1.14132373046875,0.6181631088256836,0.09167289733886719,0.24552641808986664
1761369792072935000,1.159934814453125,0.5115261077880859,0.021960735321044922,0.28519052267074585
1761369792091544600,1.178544677734375,0.2381143569946289,0.004273414611816406,0.23232649266719818
1761369792110155500,1.197155517578125,0.07814884185791016,-0.029601573944091797,0.1954522579908371
1761369792128765200,1.21576513671875,-0.1593647003173828,-0.02284860610961914,0.1442713737487793
1761369792147376400,1.23437646484375,-0.3498802185058594,-0.03956031799316406,0.07866621017456055
1761369792165985800,1.25298583984375,-0.34668636322021484,-0.057558536529541016,0.03996959328651428
1761369792184597000,1.271596923828125,-0.28820037841796875,-0.04633140563964844,0.09502467513084412
1761369792203206700,1.29020654296875,-0.31526756286621094,-0.1068115234375,0.04054069519042969
1761369792221817900,1.30881787109375,-0.49970340728759766,-0.09893035888671875,-0.05178038775920868
1761369792240427300,1.32742724609375,-0.5414571762084961,-0.06934928894042969,-0.091777503490448
1761369792259038500,1.34603857421875,-0.37250614166259766,-0.04932355880737305,-0.058809295296669006
1761369792277648000,1.36464794921875,-0.06938457489013672,0.006949424743652344,0.014622867107391357
1761369792296259000,1.383259033203125,0.10970687866210938,0.03878450393676758,0.04500555992126465
1761369792314868700,1.40186865234375,0.1285076141357422,0.0706639289855957,-0.01786540448665619
1761369792333480000,1.42047998046875,0.17737960815429688,0.04144573211669922,0.009801223874092102
1761369792352089300,1.43908935546875,0.31658077239990234,0.0039196014404296875,0.11441180109977722
1761369792370700500,1.457700439453125,0.3077545166015625,0.020638465881347656,0.08595031499862671
1761369792389310200,1.476310302734375,0.18349838256835938,0.030219078063964844,0.035014986991882324
1761369792407921200,1.494921142578125,0.09052848815917969,-0.00940084457397461,0.04515857994556427
1761369792426530800,1.51353076171875,0.015146255493164062,-0.030018329620361328,0.05982811748981476
1761369792445142000,1.53214208984375,-0.1141958236694336,-0.07756233215332031,0.08295051753520966
1761369792463751700,1.550751708984375,-0.2877931594848633,-0.14264392852783203,0.0486471951007843
1761369792482362600,1.569362548828125,-0.3398590087890625,-0.07936429977416992,0.017173081636428833
1761369792500972300,1.58797216796875,-0.2602968215942383,-0.010251998901367188,0.0019877254962921143
1761369792519583500,1.60658349609375,-0.11734676361083984,-0.0015659332275390625,-0.006393104791641235
1761369792538193000,1.62519287109375,-0.0876312255859375,-0.005218505859375,0.04088418185710907
1761369792556804000,1.64380419921875,-0.10914325714111328,0.020155906677246094,0.021063759922981262
1761369792575413800,1.662413818359375,0.011321067810058594,0.06404399871826172,-0.004960939288139343
1761369792594024700,1.681024658203125,0.1324167251586914,0.07452726364135742,0.034516558051109314
1761369792612634400,1.69963427734375,0.1325225830078125,0.0038628578186035156,0.054042816162109375
1761369792631245600,1.71824560546875,0.012164115905761719,-0.035266876220703125,0.09075690805912018
1761369792649855200,1.736855224609375,-0.032591819763183594,-0.038779258728027344,0.06385140120983124
1761369792668466200,1.755466064453125,-0.023453712463378906,0.016294002532958984,0.031883180141448975
1761369792687075800,1.774075927734375,0.018093109130859375,0.013171672821044922,0.03907369077205658
1761369792705687000,1.79268701171875,0.012666702270507812,-0.06251907348632812,0.05804413557052612
1761369792724296700,1.811296630859375,0.04678058624267578,-0.016330718994140625,0.012561962008476257
1761369792742907600,1.82990771484375,0.16567325592041016,0.04578351974487305,0.053262531757354736
1761369792761517300,1.848517333984375,0.04006671905517578,-0.006091594696044922,0.149013951420784
1761369792780128500,1.86712841796875,0.03870677947998047,0.03557872772216797,0.061669930815696716
1761369792798738000,1.885738037109375,0.26600074768066406,0.04865837097167969,0.09190124273300171
1761369792817349000,1.90434912109375,0.2532310485839844,0.1143183708190918,-0.006563715636730194
1761369792835958800,1.922958740234375,0.23685550689697266,0.28995656967163086,-0.20547449588775635
1761369792854569700,1.94156982421875,-0.05233001708984375,0.28873205184936523,-0.15401329100131989
1761369792873179400,1.960179443359375,-0.4517087936401367,0.15415287017822266,-0.0011716904118657112
1761369792891790600,1.97879052734375,-0.8874521255493164,0.033397674560546875,0.30561167001724243
1761369792910400300,1.997400146484375,-1.2213010787963867,-0.03921079635620117,0.49133116006851196
1761369792929011200,2.01601123046875,-1.6330962181091309,-0.04992055892944336,0.6450237035751343
1761369792947620900,2.034620849609375,-1.518951416015625,-0.1765270233154297,0.5887956619262695
1761369792966232000,2.053232177734375,-0.8865528106689453,0.023396968841552734,0.5514630079269409
1761369792984841500,2.071841552734375,-0.4160184860229492,0.1446242332458496,0.5161786079406738
1761369793003452700,2.09045263671875,0.09556198120117188,0.015331745147705078,0.49713051319122314
1761369793022062300,2.109062255859375,0.7457857131958008,0.01600790023803711,0.4289492964744568
1761369793040673500,2.127673583984375,0.8232841491699219,0.19940567016601562,0.46985387802124023
1761369793059283000,2.146282958984375,0.7931680679321289,0.11766672134399414,0.6526462435722351
1761369793077894100,2.16489404296875,1.1821794509887695,-0.37693214416503906,1.137397289276123
1761369793096503800,2.18350390625,0.9872112274169922,-0.44440269470214844,0.9340466856956482
1761369793115115000,2.202114990234375,0.01190948486328125,-0.4432997703552246,0.7631264925003052
1761369793133724400,2.220724365234375,-0.8789057731628418,-0.7081570625305176,0.6592934131622314
1761369793152335600,2.239335693359375,-0.9653921127319336,-0.5909237861633301,0.29761940240859985
1761369793170945300,2.2579453125,-0.05501079559326172,-0.7199649810791016,0.0379335880279541
1761369793189556200,2.27655615234375,0.5259628295898438,-0.7583680152893066,-0.02809274196624756
1761369793208166000,2.295165771484375,0.3895683288574219,-0.8263473510742188,-0.09533373266458511
1761369793226777000,2.313777099609375,0.43096160888671875,-0.5016994476318359,-0.09111752361059189
1761369793245386800,2.33238671875,0.09995651245117188,-0.005714893341064453,-0.40778878331184387
1761369793263997700,2.350997802734375,0.1078939437866211,0.7199687957763672,-0.943927526473999
1761369793282607400,2.369607421875,1.2129526138305664,1.3126907348632812,-1.446115493774414
1761369793301218600,2.388218505859375,1.6262197494506836,0.8079695701599121,-1.3305755853652954
1761369793319828200,2.406828125,0.674717903137207,0.06544303894042969,-0.4211569130420685
1761369793338439200,2.425439208984375,-0.08257198333740234,-0.21701478958129883,-0.10092628002166748
1761369793357048800,2.444048828125,0.12474536895751953,-0.14296865463256836,-0.006911784410476685
1761369793375660000,2.462659912109375,0.6369266510009766,-0.12421989440917969,0.15050280094146729
1761369793394269700,2.481269775390625,1.3830680847167969,-0.269134521484375,0.3703640103340149
1761369793412880600,2.499880615234375,1.5844078063964844,-0.25930023193359375,-0.001685664989054203
1761369793431490300,2.518490234375,2.057352066040039,0.04020071029663086,-0.6210391521453857
1761369793450101500,2.5371015625,1.7770452499389648,-0.010784626007080078,-0.8819009065628052
1761369793468711200,2.555711181640625,0.7865638732910156,-0.13526248931884766,-0.9266946315765381
1761369793487322000,2.574322021484375,0.2115945816040039,-0.20366144180297852,-0.9598046541213989
1761369793505931800,2.592931884765625,0.08228778839111328,-0.15090274810791016,-0.9165703058242798
1761369793524543000,2.61154296875,0.14459896087646484,-0.1223759651184082,-0.8964587450027466
1761369793543152600,2.630152587890625,-0.07074928283691406,-0.14871740341186523,-0.7525928020477295
1761369793561763600,2.648763671875,-0.3762040138244629,-0.19271469116210938,-0.6875742673873901
1761369793580373200,2.667373291015625,-0.29352331161499023,-0.09387588500976562,-0.6073487401008606
1761369793598984400,2.685984375,-0.28493547439575195,-0.052249908447265625,-0.4177367687225342
1761369793617594000,2.704593994140625,-0.5915389060974121,-0.09494352340698242,-0.1625717431306839
1761369793636205000,2.723205078125,-0.6569437980651855,-0.11996603012084961,0.059220314025878906
1761369793654814700,2.741814697265625,-0.033850669860839844,-0.04059028625488281,-0.04010821878910065
1761369793673426000,2.760426025390625,0.09828853607177734,-0.02042102813720703,-0.07516205310821533
1761369793692035600,2.77903564453125,-0.2519245147705078,-0.07120561599731445,-0.11706778407096863
1761369793710646500,2.797646484375,-0.44394493103027344,0.000278472900390625,-0.15990203619003296
1761369793729256200,2.816256103515625,-0.4296145439147949,-0.08220863342285156,-0.05427291989326477
1761369793747867400,2.834867431640625,-0.07350349426269531,-0.08552932739257812,0.088410884141922
1761369793766477000,2.85347705078125,0.28765106201171875,-0.0829019546508789,0.2065671980381012
1761369793785088000,2.872087890625,0.31134605407714844,-0.00507354736328125,0.19266796112060547
1761369793803697700,2.89069775390625,0.035025596618652344,-0.06347227096557617,0.32013022899627686
1761369793822308900,2.909308837890625,0.005248069763183594,-0.05669736862182617,0.401603639125824
1761369793840918500,2.92791845703125,0.06208324432373047,-0.10389518737792969,0.3919300436973572
1761369793859529500,2.946529541015625,0.1822366714477539,-0.10150003433227539,0.3242577910423279
1761369793878139100,2.96513916015625,0.4192237854003906,-0.041451454162597656,0.20915818214416504
1761369793896750300,2.983750244140625,0.1732320785522461,-0.07120132446289062,0.19362890720367432
1761369793915360000,3.002360107421875,0.03562164306640625,-0.06985712051391602,0.004674971103668213
1761369793933971000,3.020970947265625,-0.0421142578125,-0.031432151794433594,-0.13943755626678467
1761369793952580600,3.03958056640625,0.273712158203125,-0.13988494873046875,-0.22171708941459656
1761369793971191800,3.05819189453125,0.13515186309814453,-0.08471298217773438,-0.21713513135910034
1761369793989801500,3.076801513671875,0.07181453704833984,-0.01636505126953125,-0.21745580434799194
1761369794008412400,3.095412353515625,0.03851890563964844,-0.07187461853027344,-0.21361570060253143
1761369794027022000,3.11402197265625,-0.004347801208496094,0.051143646240234375,-0.16533881425857544
1761369794045633300,3.13263330078125,0.15628814697265625,-0.04248666763305664,-0.0919831395149231
1761369794064243000,3.151242919921875,0.24878311157226562,-0.018201351165771484,-0.019517838954925537
1761369794082854100,3.169854248046875,0.5416898727416992,-0.03527545928955078,0.12085220217704773
1761369794101463600,3.188463623046875,0.4481182098388672,0.010373592376708984,0.05945861339569092
1761369794120074800,3.20707470703125,0.18623733520507812,-0.008075714111328125,0.17784470319747925
1761369794138684400,3.225684326171875,0.010043144226074219,-0.10689306259155273,0.20771753787994385
1761369794157295600,3.244295654296875,-0.2348918914794922,-0.05940818786621094,0.09663498401641846
1761369794175905000,3.262905029296875,-0.05468940734863281,-0.06065797805786133,0.03619277477264404
1761369794194516200,3.28151611328125,-0.07179832458496094,-0.08921003341674805,-0.116161048412323
1761369794213126000,3.3001259765625,-0.06998205184936523,-0.05535602569580078,-0.14351040124893188
1761369794231737000,3.318737060546875,0.04980182647705078,-0.05310201644897461,-0.14681261777877808
1761369794250346500,3.337346435546875,0.07560062408447266,-0.061496734619140625,-0.0761614441871643
1761369794268957700,3.355957763671875,0.08856821060180664,-0.054311275482177734,-0.017932236194610596
1761369794287567400,3.3745673828125,0.34787988662719727,-0.0007853507995605469,0.04820561408996582
1761369794306178600,3.393178466796875,0.6340594291687012,-0.033181190490722656,0.055914103984832764
1761369794324788200,3.411788330078125,0.3003420829772949,-0.019949913024902344,0.04416966438293457
1761369794343399200,3.430399169921875,-0.028328895568847656,-0.07741022109985352,0.06840622425079346
1761369794362008800,3.4490087890625,-0.2027277946472168,-0.023376941680908203,-0.04776144027709961
1761369794380620000,3.4676201171875,-0.3366127014160156,-0.05985260009765625,-0.038581669330596924
1761369794399229700,3.486229736328125,-0.17488765716552734,-0.0022077560424804688,-0.04023122787475586
1761369794417840600,3.504840576171875,0.12115478515625,-0.028899669647216797,0.04240676760673523
1761369794436450300,3.5234501953125,0.2890806198120117,-0.03877687454223633,0.0669594407081604
1761369794455061500,3.5420615234375,0.17239093780517578,-0.03305768966674805,0.02786862850189209
1761369794473671200,3.560671142578125,0.035961151123046875,-0.015284538269042969,0.0034863948822021484
1761369794492282000,3.5792822265625,-0.04931831359863281,-0.023113727569580078,0.011525571346282959
1761369794510891800,3.597891845703125,-0.14460992813110352,-0.0123443603515625,0.02951982617378235
1761369794529503000,3.6165029296875,-0.047960758209228516,-0.02629566192626953,0.0819234549999237
1761369794548112600,3.635112548828125,0.036333560943603516,-0.021823883056640625,0.1000102162361145
1761369794566723800,3.653723876953125,-0.1927804946899414,-0.07909488677978516,-0.00545915961265564
1761369794585333200,3.672333251953125,-0.19114160537719727,-0.026050567626953125,-0.046139463782310486
1761369794603944400,3.6909443359375,0.47447824478149414,-0.0427250862121582,-0.018847644329071045
1761369794622554000,3.70955419921875,0.689478874206543,-0.09726858139038086,0.12039428949356079
1761369794641165300,3.728165283203125,0.3068199157714844,-0.09998369216918945,0.17062638700008392
1761369794659774700,3.746774658203125,0.1820049285888672,-0.04462146759033203,0.19504931569099426
1761369794678386000,3.765385986328125,0.8477640151977539,-0.049129486083984375,0.16192515194416046
1761369794696995600,3.78399560546875,1.1355867385864258,-0.08199501037597656,0.20054706931114197
1761369794715606800,3.802606689453125,0.4283299446105957,-0.18023395538330078,0.15372338891029358
1761369794734216400,3.821216552734375,-0.28664445877075195,-0.1652517318725586,0.11656022071838379
1761369794752827400,3.839827392578125,-0.34308624267578125,-0.1361994743347168,-0.023015297949314117
1761369794771437000,3.85843701171875,-0.32613468170166016,-0.13196849822998047,-0.05937373638153076
1761369794790048300,3.87704833984375,-0.49672365188598633,-0.09344005584716797,-0.03329988196492195
1761369794808658000,3.895657958984375,-0.3093891143798828,-0.12035083770751953,0.06012358516454697
1761369794827268900,3.914268798828125,-0.17946863174438477,-0.13100910186767578,0.07685580849647522
1761369794845878500,3.93287841796875,-0.41048622131347656,-0.10337448120117188,0.16431881487369537
1761369794873794000,3.9607939453125,-0.0257110595703125,-0.0031142234802246094,0.1335570514202118
1761369794892405200,3.9794052734375,0.5854244232177734,-0.07235097885131836,0.20693182945251465
1761369794911015000,3.998014892578125,0.2358536720275879,-0.09304428100585938,0.22989989817142487
1761369794929626000,4.016626220703125,-0.36023426055908203,-0.07506513595581055,0.20773383975028992
1761369794948235800,4.03523583984375,-0.3923773765563965,-0.047786712646484375,-0.07738015055656433
1761369794966847000,4.053846923828125,-0.23990201950073242,0.00011110305786132812,-0.06274586170911789
1761369794985456400,4.072456298828125,-0.0577545166015625,0.02001667022705078,-0.07283555716276169
1761369795004067600,4.091067626953125,-0.2061176300048828,-0.10781240463256836,-0.08966255933046341
1761369795022677200,4.10967724609375,-0.41885900497436523,-0.0007948875427246094,-0.0233478881418705
1761369795041288400,4.128288330078125,-0.34830236434936523,0.03737640380859375,-0.04166552051901817
1761369795059897900,4.14689794921875,-0.17846918106079102,-0.0010619163513183594,-0.09190045297145844
1761369795078509000,4.165509033203125,-0.38743162155151367,-0.014882087707519531,-0.1681148260831833
1761369795097118700,4.18411865234375,0.022151470184326172,0.057552337646484375,-0.17304278910160065
1761369795115730000,4.20272998046875,0.7423510551452637,0.04391050338745117,-0.02860051952302456
1761369795134339600,4.221339599609375,0.6716265678405762,0.04871368408203125,0.28998324275016785
1761369795152950500,4.239950439453125,0.759979248046875,-0.1405172348022461,-0.24219992756843567
1761369795171560200,4.258560302734375,0.8696379661560059,0.12561511993408203,0.016009032726287842
1761369795190171400,4.27717138671875,0.8075194358825684,0.05999612808227539,0.1747661828994751
1761369795208781000,4.295781005859375,0.5154399871826172,-0.21755599975585938,0.46863991022109985
1761369795227392300,4.314392333984375,-0.003135204315185547,-0.27493715286254883,-0.026718251407146454
1761369795246001700,4.333001708984375,-0.3249368667602539,-0.22057485580444336,0.009852608665823936
1761369795264612900,4.35161279296875,-0.37045860290527344,-0.18912887573242188,-0.05410752072930336
1761369795283222500,4.370222412109375,-0.3285994529724121,-0.14589262008666992,-0.5818281769752502
1761369795301833700,4.388833740234375,-0.8134722709655762,-0.14987659454345703,-0.6964568495750427
1761369795320443100,4.407443115234375,-1.0225114822387695,-0.01371908187866211,-0.3481890559196472
1761369795339054300,4.426054443359375,-0.6235051155090332,-0.29694032669067383,-0.19935229420661926
1761369795357664000,4.4446640625,0.5410232543945312,0.18008804321289062,0.03772357106208801
1761369795376275200,4.463275146484375,0.39534854888916016,-0.017824172973632812,0.5155215859413147
1761369795394884900,4.481884765625,-0.33333444595336914,-0.09551715850830078,0.6716852784156799
1761369795413496000,4.50049609375,-0.4446086883544922,-0.005352020263671875,0.5384950637817383
1761369795432105500,4.51910546875,0.02492380142211914,-0.029710769653320312,0.6725146770477295
1761369795450716700,4.537716552734375,1.5568714141845703,-0.09719181060791016,0.8067216277122498
1761369795469326300,4.556326416015625,1.6044917106628418,-0.3155398368835449,0.9818097949028015
1761369795487937500,4.5749375,0.404512882232666,-0.2546072006225586,0.6010940074920654
1761369795506547000,4.593546875,-0.4988999366760254,-0.06489753723144531,0.5635776519775391
1761369795525158100,4.612158203125,-0.3009672164916992,-0.0423126220703125,-0.38264262676239014
1761369795543767800,4.630767822265625,-0.053101539611816406,-0.16252708435058594,0.17633652687072754
1761369795562379000,4.64937890625,0.042459964752197266,0.04607200622558594,0.05306481570005417
1761369795580988700,4.66798876953125,0.07892608642578125,0.05914306640625,0.5017516016960144
1761369795599599900,4.686599853515625,0.14036226272583008,-0.059990882873535156,-0.06660632789134979
1761369795618209300,4.705209228515625,-0.5116801261901855,-0.31070709228515625,-0.28760039806365967
1761369795636820500,4.723820556640625,-1.3776185512542725,0.017075538635253906,-0.379521906375885
1761369795655430100,4.74243017578125,-1.1759459972381592,0.0681753158569336,-0.47360092401504517
1761369795674041300,4.761041259765625,-0.5752172470092773,0.0650491714477539,-0.07494726777076721
1761369795692650800,4.779650634765625,-0.2933769226074219,-0.0065212249755859375,0.0967697724699974
1761369795711262000,4.798261962890625,0.10610580444335938,0.0135345458984375,0.1778053343296051
1761369795729871600,4.81687158203125,0.38330507278442383,-0.07863330841064453,0.10959608107805252
1761369795748482800,4.83548291015625,-0.047176361083984375,-0.16566753387451172,-0.10926464200019836
1761369795767092500,4.854092529296875,-0.45342397689819336,-0.09888744354248047,-0.2728162407875061
1761369795785703700,4.87270361328125,-0.23596954345703125,-0.1080923080444336,-0.0859365314245224
1761369795804313000,4.89131298828125,0.27991342544555664,0.009333610534667969,0.07451246678829193
1761369795822924300,4.90992431640625,0.14960289001464844,-0.03164196014404297,0.1127045601606369
1761369795841534000,4.928533935546875,-0.1430802345275879,-0.021536827087402344,0.09153881669044495
1761369795860145200,4.947145263671875,-0.13628244400024414,-0.012586593627929688,0.05890730023384094
1761369795878754800,4.9657548828125,0.1857624053955078,0.025948524475097656,0.18852388858795166
1761369795897366000,4.984365966796875,0.13120603561401367,-0.004878044128417969,0.17863471806049347
1761369795915975400,5.002975341796875,-0.24278831481933594,-0.05556297302246094,0.09084504842758179
1761369795934586600,5.021586669921875,-0.2424778938293457,-0.0727376937866211,0.04862235486507416
1761369795953196300,5.0401962890625,-0.1736125946044922,-0.048107147216796875,0.014231860637664795
1761369795971807500,5.058807373046875,-0.07682275772094727,0.002239227294921875,0.12133076041936874
1761369795990417200,5.077417236328125,-0.008816719055175781,-0.03754711151123047,0.14824798703193665
1761369796009028400,5.0960283203125,0.06119871139526367,-0.03246784210205078,0.18314968049526215
1761369796027638000,5.114637939453125,0.1719980239868164,-0.003597259521484375,0.123165063560009
1761369796046249200,5.133249267578125,0.06203460693359375,0.010897636413574219,0.1288091391324997
1761369796064858600,5.151858642578125,-0.09428691864013672,-0.023286819458007812,0.07668252289295197
1761369796083469800,5.1704697265625,-0.12145709991455078,-0.022086143493652344,0.05601593852043152
1761369796102079500,5.18907958984375,0.06919622421264648,0.011453628540039062,0.07609879970550537
1761369796120690700,5.207690673828125,0.2130584716796875,0.0370635986328125,0.12384043633937836
1761369796139300400,5.22630029296875,0.10761404037475586,0.0014028549194335938,0.08117067813873291
1761369796157911600,5.24491162109375,-0.1580815315246582,-0.03207111358642578,0.051802605390548706
1761369796176521000,5.26352099609375,-0.17027044296264648,-0.00457763671875,0.01696734130382538
1761369796195132200,5.282132080078125,0.04946279525756836,0.00060272216796875,0.07718977332115173
1761369796213741800,5.300741943359375,0.03279685974121094,-0.049653053283691406,0.1392548680305481
1761369796232353000,5.31935302734375,-0.17572593688964844,-0.02007007598876953,0.003686681389808655
1761369796250962700,5.337962646484375,-0.2269268035888672,-0.03412055969238281,-0.09915851056575775
1761369796269574000,5.356573974609375,-0.28859615325927734,-0.044838905334472656,-0.2501683235168457
1761369796288183300,5.375183349609375,-0.13225936889648438,0.05411052703857422,-0.22208711504936218
1761369796306794500,5.39379443359375,0.32075023651123047,0.051268577575683594,0.012054219841957092
1761369796325404200,5.412404052734375,0.25446176528930664,-0.008106231689453125,0.18612784147262573
1761369796344015400,5.431015380859375,0.06939411163330078,-0.03066539764404297,0.19474034011363983
1761369796362625000,5.449625,-0.005115985870361328,-0.06472206115722656,0.10905991494655609
1761369796381236200,5.468236328125,0.05989789962768555,-0.033331871032714844,0.03774428367614746
1761369796399846000,5.486845947265625,-0.11612653732299805,-0.03759574890136719,-0.02252712845802307
1761369796418457000,5.50545703125,-0.16624116897583008,0.037362098693847656,-0.055188462138175964
1761369796437066500,5.52406640625,-0.1347641944885254,-0.014603614807128906,0.004068270325660706
1761369796455678000,5.542677978515625,-0.04979276657104492,-0.05208587646484375,0.056330449879169464
1761369796474287400,5.561287353515625,-0.1399855613708496,-0.06605339050292969,0.059144049882888794
1761369796492898600,5.579898681640625,-0.1132349967956543,-0.010819435119628906,-0.01657719910144806
1761369796511508200,5.59850830078125,-0.03781938552856445,0.023085594177246094,0.014811769127845764
1761369796530119400,5.617119384765625,0.1938629150390625,0.007244110107421875,0.09298503398895264
1761369796548729000,5.63572900390625,0.14171552658081055,-0.028791427612304688,0.12613049149513245
1761369796567340300,5.65434033203125,-0.13512754440307617,-0.0002727508544921875,-0.026583120226860046
1761369796585949700,5.67294970703125,-0.2129683494567871,0.029694557189941406,-0.14206738770008087
1761369796604561200,5.69156103515625,-0.08431291580200195,0.008608818054199219,-0.22076007723808289
1761369796623170600,5.710170654296875,0.030990123748779297,0.00016689300537109375,-0.18882253766059875
1761369796641781800,5.72878173828125,0.16555452346801758,0.04424858093261719,-0.049139827489852905
1761369796660391400,5.747391357421875,0.23678922653198242,0.000438690185546875,0.0852874219417572
1761369796679002600,5.766002685546875,0.18476438522338867,-0.0091400146484375,0.20875263214111328
1761369796697612300,5.7846123046875,0.06394624710083008,-0.028484344482421875,0.2634948492050171
1761369796716223500,5.803223388671875,0.062056541442871094,0.010697364807128906,0.17911097407341003
1761369796734833200,5.821833251953125,0.08438539505004883,0.03201007843017578,0.10606279224157333
1761369796753444400,5.8404443359375,-0.025887012481689453,0.03669548034667969,0.09454704821109772
1761369796772054000,5.859053955078125,0.018670082092285156,0.00878143310546875,0.09131951630115509
1761369796790665200,5.877665283203125,-0.10287189483642578,-0.08302116394042969,0.16755425930023193
1761369796809274600,5.896274658203125,-0.22069692611694336,-0.1066293716430664,0.14829981327056885
1761369796827886000,5.914885986328125,-0.20766973495483398,-0.08853816986083984,0.11172555387020111
1761369796846495500,5.93349560546875,-0.07357406616210938,-0.03220176696777344,0.02629954367876053
1761369796865106700,5.952106689453125,-0.032190799713134766,0.038959503173828125,0.0022967904806137085
1761369796883716400,5.97071630859375,-0.08997058868408203,0.004238128662109375,0.03914815932512283
1761369796902327600,5.98932763671875,-0.09172868728637695,-0.023773193359375,0.08045687526464462
1761369796920937200,6.007937255859375,-0.021154403686523438,-0.036663055419921875,0.053652212023735046
1761369796939548400,6.02654833984375,-0.04956340789794922,0.0025625228881835938,0.007226631045341492
1761369796958158000,6.045157958984375,0.01925182342529297,0.021928787231445312,-0.07548769563436508
1761369796976769300,6.063769287109375,0.12214231491088867,0.022937774658203125,-0.0874376893043518
1761369796995379000,6.08237890625,-0.027401447296142578,0.02391338348388672,-0.1538582295179367
1761369797013990100,6.100990234375,-0.22441768646240234,-0.018083572387695312,-0.20929089188575745
1761369797032599800,6.119599853515625,-0.3440561294555664,-0.036293983459472656,-0.15494278073310852
1761369797051211000,6.1382109375,-0.21015596389770508,0.012177467346191406,-0.16650041937828064
1761369797069820700,6.156820556640625,0.05851888656616211,-0.0020208358764648438,-0.050112757831811905
1761369797088431900,6.175431884765625,0.1675124168395996,0.11548137664794922,0.08339454233646393
1761369797107041300,6.194041259765625,0.2432541847229004,-0.0021038055419921875,0.27501195669174194
1761369797125652500,6.212652587890625,0.2298412322998047,-0.03980064392089844,0.3175481855869293
1761369797144262100,6.23126220703125,0.19763898849487305,0.004464149475097656,0.2503892779350281
1761369797162873300,6.249873291015625,0.18463945388793945,0.014157295227050781,0.11209181696176529
1761369797181483000,6.26848291015625,0.06453895568847656,0.022638320922851562,-0.07045481353998184
1761369797200094200,6.28709423828125,-0.028898239135742188,0.05226707458496094,-0.14141187071800232
1761369797218704000,6.305703857421875,-0.1104421615600586,0.02854633331298828,-0.21531882882118225
1761369797237315000,6.324315185546875,-0.22614717483520508,0.0010061264038085938,-0.16106459498405457
1761369797255924700,6.3429248046875,-0.23827600479125977,-0.036464691162109375,-0.05083046481013298
1761369797274536000,6.361535888671875,-0.04214286804199219,0.0008726119995117188,0.05887610465288162
1761369797293145600,6.3801455078125,0.08099651336669922,0.03802967071533203,0.08823288977146149
1761369797311756800,6.3987568359375,0.014623641967773438,0.06662178039550781,0.08688278496265411
1761369797330366500,6.417366455078125,0.07834243774414062,0.044335365295410156,0.14147253334522247
1761369797348977700,6.435977783203125,0.17456340789794922,-0.016973495483398438,0.17584854364395142
1761369797367587300,6.45458740234375,0.1298227310180664,-0.01587963104248047,0.09117411077022552
1761369797386198500,6.473198486328125,-0.08745908737182617,-0.04063606262207031,0.015549859032034874
1761369797404808200,6.49180810546875,-0.1601543426513672,0.036581993103027344,-0.0878264456987381
1761369797423419400,6.51041943359375,-0.18303728103637695,-0.023830413818359375,-0.07677848637104034
1761369797442029000,6.529029052734375,-0.22795534133911133,0.001743316650390625,-0.09458059072494507
1761369797460640300,6.54764013671875,-0.15353918075561523,0.037616729736328125,-0.012327004224061966
1761369797479250000,6.56625,0.08881044387817383,0.014031410217285156,0.12865790724754333
1761369797497861000,6.584861083984375,0.17624235153198242,0.010519027709960938,0.1284010112285614
1761369797516470800,6.603470703125,0.10795164108276367,-0.04606819152832031,0.12961600720882416
1761369797535082000,6.62208203125,0.10529184341430664,0.03606891632080078,0.04622058570384979
1761369797553691600,6.640691650390625,0.09689617156982422,0.041556358337402344,-0.026417382061481476
1761369797572302800,6.659302734375,0.0047817230224609375,0.035752296447753906,0.006794323213398457
1761369797590912500,6.67791259765625,0.029881954193115234,0.022986412048339844,0.016296308487653732
1761369797609523700,6.696523681640625,-0.02061176300048828,-0.03357696533203125,0.038194168359041214
1761369797628133400,6.71513330078125,-0.10369014739990234,-0.04308795928955078,0.03167208656668663
1761369797646744600,6.73374462890625,-0.10683822631835938,-0.052939414978027344,0.054459601640701294
1761369797665354200,6.752354248046875,-0.00295257568359375,-0.053206443786621094,0.05742175877094269
1761369797683965400,6.77096533203125,-0.03146171569824219,-0.016051292419433594,0.016683069989085197
1761369797702575000,6.7895751953125,-0.03173971176147461,-0.005003929138183594,-0.030589161440730095
1761369797721186300,6.808186279296875,0.10857963562011719,0.023932456970214844,0.024456579238176346
1761369797739796000,6.8267958984375,0.13375186920166016,0.01573467254638672,0.08426038920879364
1761369797758407200,6.8454072265625,0.14944791793823242,-0.016834259033203125,0.1329934448003769
1761369797777016800,6.864016845703125,0.08727693557739258,-0.017015457153320312,0.07112728804349899
1761369797795628000,6.8826279296875,0.002288818359375,0.0011129379272460938,0.06370796263217926
1761369797814237700,6.90123779296875,-0.04780101776123047,-0.02060699462890625,0.009387604892253876
1761369797832849000,6.919848876953125,-0.09067583084106445,-0.010472297668457031,-0.0035240426659584045
1761369797851458600,6.93845849609375,-0.11632537841796875,0.014788627624511719,-0.0556478314101696
1761369797870069800,6.95706982421875,-0.25617361068725586,0.02593231201171875,-0.029204756021499634
1761369797888679400,6.975679443359375,-0.12829971313476562,0.0038175582885742188,-0.04611281305551529
1761369797907290600,6.99429052734375,0.16824674606323242,-0.021673202514648438,-0.03627784177660942
1761369797925900300,7.012900390625,0.17785358428955078,-0.0028543472290039062,-0.10963217914104462
1761369797944511500,7.031511474609375,0.011988162994384766,-0.007022857666015625,-0.07746869325637817
1761369797963121200,7.05012109375,-0.0980219841003418,-0.0053119659423828125,-0.062442924827337265
1761369797981732400,7.068732421875,-0.013231277465820312,0.05271434783935547,-0.09273838996887207
1761369798000342000,7.087342041015625,0.08598041534423828,0.07036495208740234,-0.020574644207954407
1761369798018953200,7.105953125,0.1331796646118164,0.0602569580078125,0.029728040099143982
1761369798037563000,7.12456298828125,0.06903314590454102,0.011959075927734375,0.029431872069835663
1761369798056174000,7.143174072265625,0.03675079345703125,-0.00032138824462890625,-0.014258146286010742
1761369798074783700,7.16178369140625,0.032425880432128906,0.005194664001464844,-0.07469100505113602
1761369798093395000,7.18039501953125,-0.08377742767333984,-0.02644824981689453,-0.0490882471203804
1761369798112004600,7.199004638671875,-0.1063070297241211,-0.021066665649414062,-0.01988476887345314
1761369798130615800,7.21761572265625,-0.012035846710205078,0.016983985900878906,-0.007376804947853088
1761369798149225500,7.2362255859375,0.09699392318725586,0.029260635375976562,0.04865376651287079
1761369798167836700,7.254836669921875,0.012034416198730469,0.00080108642578125,0.047799743711948395
1761369798186446300,7.2734462890625,-0.11860466003417969,-0.01831531524658203,0.043913327157497406
1761369798205057500,7.2920576171875,-0.08415746688842773,-0.014154434204101562,-0.012911967933177948
1761369798223667200,7.310667236328125,-0.07684469223022461,0.00014495849609375,-0.09129920601844788
1761369798242278400,7.3292783203125,-0.07629537582397461,-0.00090789794921875,-0.04810212552547455
1761369798260888000,7.34788818359375,-0.005892753601074219,-0.06978702545166016,0.04740571975708008
1761369798279499500,7.36649951171875,0.10100793838500977,-0.008946418762207031,0.09375936537981033
1761369798298109000,7.38510888671875,0.15091228485107422,0.009558677673339844,0.10014000535011292
1761369798316720400,7.403720458984375,0.1811814308166504,0.008284568786621094,0.12425816059112549
1761369798335330000,7.422330078125,0.11240053176879883,-0.028722763061523438,0.0336909145116806
1761369798353941200,7.440941162109375,0.020600318908691406,0.0217742919921875,0.0006491169333457947
1761369798372551000,7.459551025390625,-0.01179361343383789,0.029508590698242188,0.030013740062713623
1761369798391162000,7.478162109375,-0.05032157897949219,0.043091773986816406,0.0751362070441246
1761369798409771800,7.496771728515625,-0.09723663330078125,-0.0076999664306640625,0.09770756959915161
1761369798428383000,7.515383056640625,-0.08332252502441406,-0.053734779357910156,0.05131249874830246
1761369798446992600,7.53399267578125,-0.11841726303100586,-0.07356643676757812,0.047508757561445236
1761369798465603800,7.552603759765625,-0.08187389373779297,-0.07084083557128906,0.07072525471448898
1761369798484213500,7.571213623046875,-0.0007348060607910156,-0.014100074768066406,0.09243461489677429
1761369798502824700,7.58982470703125,0.09451866149902344,0.042992591857910156,0.013247396796941757
1761369798521434400,7.608434326171875,0.0767064094543457,0.051459312438964844,0.021157104521989822
1761369798540045600,7.627045654296875,0.07876443862915039,0.031156539916992188,0.055189501494169235
1761369798558655200,7.6456552734375,0.11353015899658203,-0.033667564392089844,0.04680923745036125
1761369798577266400,7.664266357421875,0.08218765258789062,-0.053696632385253906,0.02152588590979576
1761369798595876000,7.6828759765625,-0.0881948471069336,-0.026946067810058594,-0.059387851506471634
1761369798614487600,7.701487548828125,-0.08558797836303711,-0.05084419250488281,-0.12335747480392456
1761369798633097000,7.720096923828125,-0.10347604751586914,-0.03905200958251953,-0.061511170119047165
1761369798651708400,7.73870849609375,-0.061692237854003906,0.004189491271972656,-0.061577051877975464
1761369798670317800,7.75731787109375,-0.03620338439941406,0.08376598358154297,-0.07024779915809631
1761369798688929300,7.77592919921875,0.06348085403442383,0.029313087463378906,0.053804196417331696
1761369798707539000,7.7945390625,-0.01163625717163086,-0.025844573974609375,0.09318507462739944
1761369798726150100,7.813150146484375,0.024956703186035156,-0.04038429260253906,0.1317960023880005
1761369798744759800,7.831759765625,0.06013154983520508,-0.006953239440917969,0.06990271061658859
1761369798763371000,7.85037109375,0.025540828704833984,0.026930809020996094,0.018058069050312042
1761369798781980700,7.868980712890625,0.03257179260253906,0.024176597595214844,0.07339254766702652
1761369798800592000,7.887591796875,0.02031230926513672,0.024114608764648438,0.06385897099971771
1761369798819201500,7.906201416015625,0.005628108978271484,0.03122997283935547,0.009226962924003601
1761369798837812700,7.924812744140625,-0.013966083526611328,0.024580955505371094,-0.05860442668199539
1761369798856422400,7.94342236328125,0.020830631256103516,0.029880523681640625,-0.07336430996656418
1761369798875033600,7.96203369140625,0.04542970657348633,-0.004881858825683594,0.017409227788448334
1761369798893643300,7.980643310546875,0.05397367477416992,0.012254714965820312,-0.016033776104450226
1761369798912254700,7.999254638671875,0.037947654724121094,0.0021562576293945312,-0.006782233715057373
1761369798930864000,8.017864013671876,-0.052155494689941406,-0.009796142578125,-0.03355680778622627
1761369798949475600,8.0364755859375,-0.11048316955566406,-0.032073020935058594,-0.03842321038246155
1761369798968085200,8.055085205078125,-0.0977792739868164,-0.03890037536621094,-0.013119220733642578
1761369798986696400,8.073696533203124,-0.06524372100830078,-0.012827873229980469,-0.023664116859436035
1761369799005306000,8.09230615234375,-0.10734891891479492,-0.003204345703125,-0.011141635477542877
1761369799023917300,8.110917236328126,-0.051268577575683594,-0.014069557189941406,-0.021551262587308884
1761369799042527000,8.12952685546875,-0.08480119705200195,-0.0262451171875,-0.018672335892915726
1761369799061138200,8.14813818359375,-0.06491756439208984,-0.02094745635986328,-0.0630868524312973
1761369799079747800,8.166747802734376,0.014904499053955078,0.014950752258300781,0.0014323890209197998
1761369799098359000,8.185359130859375,0.1280040740966797,0.048827171325683594,0.08077210187911987
1761369799116968700,8.20396875,0.1361551284790039,0.036208152770996094,0.12204469740390778
1761369799135580000,8.222579833984375,0.08533191680908203,0.004492759704589844,0.12903249263763428
1761369799154189600,8.241189453125,0.09642362594604492,-0.02502155303955078,0.12013179808855057
1761369799172801000,8.259801025390624,0.054686546325683594,-0.004878044128417969,0.06620115786790848
1761369799191410400,8.278410400390625,0.0041046142578125,0.035599708557128906,0.05137486755847931
1761369799210022000,8.29702197265625,0.03907346725463867,0.03326988220214844,0.07170584797859192
1761369799228631600,8.315631591796874,0.03345823287963867,0.011776924133300781,0.07044027000665665
1761369799247242800,8.33424267578125,-0.030890464782714844,-0.017807960510253906,0.08563093841075897
1761369799265852400,8.352852294921876,-0.10874462127685547,-0.04315185546875,0.07232488691806793
1761369799284463600,8.371463623046875,-0.11406803131103516,-0.014916419982910156,0.03608931601047516
1761369799303073300,8.3900732421875,-0.04594564437866211,-0.007770538330078125,0.04747118800878525
1761369799321684500,8.4086845703125,0.06514358520507812,-0.008603096008300781,0.013273879885673523
1761369799340294100,8.427294189453125,0.05482006072998047,-0.017047882080078125,0.002533063292503357
1761369799358905300,8.4459052734375,-0.0018429756164550781,0.02629852294921875,-0.02502407133579254
1761369799377515000,8.464514892578125,0.04136228561401367,0.03296852111816406,-0.02046705037355423
1761369799396126200,8.483126220703125,-0.007877826690673828,-0.002391815185546875,0.04583063721656799
1761369799414736000,8.50173583984375,0.028861522674560547,0.0031194686889648438,0.1124330684542656
1761369799433347300,8.520347412109375,0.13639545440673828,0.002292633056640625,0.12002386897802353
1761369799451956700,8.538956787109376,0.04992389678955078,0.014719963073730469,0.010936737060546875
1761369799470568200,8.557568115234375,-0.05770730972290039,0.018393516540527344,-0.06344065815210342
1761369799489177900,8.576177734375,-0.04015350341796875,0.0157318115234375,-0.04231107234954834
1761369799507789000,8.5947890625,-0.031464576721191406,0.014072418212890625,0.001102551817893982
1761369799526398700,8.613398681640625,0.0617671012878418,0.002742767333984375,0.04619835317134857
1761369799545010000,8.632010009765626,0.11409807205200195,0.01853656768798828,0.0161135271191597
1761369799563619600,8.65061962890625,0.0684051513671875,0.023509979248046875,-0.017731472849845886
1761369799582230800,8.669230712890625,0.024806499481201172,-0.009196281433105469,-0.017622433602809906
1761369799600840400,8.68784033203125,0.017839908599853516,-0.02706146240234375,-0.037913575768470764
1761369799619451600,8.70645166015625,-0.01645946502685547,-0.025841712951660156,-0.07612316310405731
1761369799638061300,8.725061279296876,-0.09768915176391602,-0.02172565460205078,-0.130915105342865
1761369799656672500,8.743672607421875,-0.15520763397216797,-0.0277557373046875,-0.09328410029411316
1761369799675282400,8.762282470703125,-0.06511306762695312,-0.04228782653808594,-0.06889194250106812
1761369799693893600,8.7808935546875,-0.034406185150146484,-0.030533790588378906,-0.03322802484035492
1761369799712503300,8.79950341796875,-0.06396484375,-0.002285003662109375,-0.03277339041233063
1761369799731114500,8.818114501953126,-0.004940509796142578,0.020870208740234375,-0.033935874700546265
1761369799749724200,8.83672412109375,0.07380867004394531,0.02419567108154297,-0.017153680324554443
1761369799768335400,8.85533544921875,0.10241079330444336,0.017200469970703125,-0.003161124885082245
1761369799786945000,8.873945068359374,0.04996013641357422,0.014374732971191406,-0.0034894198179244995
1761369799805556200,8.89255615234375,0.04021501541137695,-0.0031671524047851562,0.0003958195447921753
1761369799824166000,8.911165771484375,0.022442340850830078,0.0028715133666992188,0.011215485632419586
1761369799842777000,8.929777099609375,0.005358219146728516,0.01771068572998047,0.002800092101097107
1761369799861386800,8.94838671875,-0.0157623291015625,0.018111228942871094,-0.027481622993946075
1761369799879998200,8.966998291015624,-0.03370380401611328,0.002307891845703125,-0.06130875274538994
1761369799898607600,8.985607666015625,-0.006886959075927734,-0.017816543579101562,-0.047493383288383484
1761369799917219000,9.004218994140626,0.0032944679260253906,-0.006941795349121094,0.0010466128587722778
1761369799935828700,9.022828857421874,0.02043008804321289,0.024392127990722656,0.011345446109771729
1761369799954440000,9.04143994140625,0.056394100189208984,0.014067649841308594,0.06929856538772583
1761369799973049600,9.060049560546876,-0.0014681816101074219,-0.01462554931640625,0.11132527887821198
1761369799991660800,9.078660888671875,-0.04128456115722656,-0.037384033203125,0.13965272903442383
1761369800010270500,9.0972705078125,-0.05034780502319336,-0.005515098571777344,0.08878466486930847
1761369800028881700,9.115881591796875,-0.010754108428955078,0.009281158447265625,0.06593377888202667
1761369800047491300,9.1344912109375,-0.08176612854003906,-0.015168190002441406,-0.004292279481887817
1761369800066102500,9.1531025390625,-0.1438460350036621,-0.03212451934814453,-0.009559869766235352
1761369800084712200,9.171712158203125,-0.03780555725097656,0.02489757537841797,-0.05894246697425842
1761369800103323400,9.190323486328126,0.029178619384765625,0.05195140838623047,-0.012758851051330566
1761369800121933300,9.208933349609374,0.02680063247680664,0.0030670166015625,0.07625117897987366
1761369800140544500,9.22754443359375,0.09210634231567383,-0.03549957275390625,0.14329855144023895
1761369800159154200,9.246154296875,0.14409208297729492,-0.032958030700683594,0.13832782208919525
1761369800177765400,9.264765380859375,0.09168434143066406,-0.008230209350585938,0.04122793674468994
1761369800196375000,9.283375,-0.00868368148803711,0.015741348266601562,-0.013456806540489197
1761369800214986200,9.301986328125,-0.04163026809692383,0.00039005279541015625,-0.03526659309864044
1761369800233596000,9.320595947265625,-0.006293773651123047,-0.023473739624023438,-0.019072264432907104
1761369800252207000,9.33920703125,0.05160665512084961,0.025488853454589844,-0.0029153972864151
1761369800270816800,9.357816650390625,0.0849308967590332,0.041861534118652344,0.05717252194881439
1761369800289428200,9.37642822265625,0.016800403594970703,0.011059761047363281,0.0986291915178299
1761369800308037600,9.39503759765625,0.0854330062866211,-0.028382301330566406,0.0969596654176712
1761369800326649000,9.413649169921875,0.11896038055419922,-0.0005674362182617188,0.032770171761512756
1761369800345258800,9.4322587890625,0.05231952667236328,-0.00250244140625,-0.02787049114704132
1761369800363870000,9.450869873046875,-0.07116937637329102,-0.005902290344238281,-0.06183411180973053
1761369800382479600,9.469479736328125,-0.09488773345947266,-0.017502784729003906,-0.012913212180137634
1761369800401090800,9.4880908203125,-0.06546783447265625,-0.025443077087402344,-0.014259323477745056
1761369800419700500,9.506700439453125,-0.07579326629638672,-0.01824188232421875,-0.05625233054161072
1761369800438311700,9.525311767578126,-0.014245033264160156,0.014757156372070312,0.009117603302001953
1761369800456921300,9.54392138671875,0.10485363006591797,0.015316009521484375,0.024790018796920776
1761369800475532500,9.562532470703125,0.11718511581420898,0.009980201721191406,0.033820584416389465
1761369800494142200,9.58114208984375,-0.062099456787109375,-0.002094268798828125,-0.02300591766834259
1761369800512753700,9.599753662109375,-0.08267831802368164,-0.034079551696777344,-0.012726455926895142
1761369800531363300,9.61836328125,-0.0544581413269043,-0.043315887451171875,-0.0044263750314712524
1761369800549974500,9.636974609375,-0.01599407196044922,0.0038175582885742188,-0.029789015650749207
1761369800568584200,9.655584228515625,-0.016458988189697266,0.0005598068237304688,-0.02994842827320099
1761369800587195400,9.6741953125,-0.03864574432373047,0.000347137451171875,0.021267130970954895
1761369800605805000,9.69280517578125,0.061937808990478516,0.020601272583007812,0.030600950121879578
1761369800624416300,9.711416259765626,0.1018524169921875,0.046578407287597656,0.044624269008636475
1761369800643026000,9.73002587890625,-0.015472412109375,0.012969970703125,0.040665403008461
1761369800661637000,9.74863720703125,0.00214385986328125,-0.0028448104858398438,0.018725916743278503
1761369800680246800,9.767246826171874,0.038603782653808594,-0.021411895751953125,-0.0022988319396972656
1761369800698858200,9.785858154296875,-0.009677410125732422,0.004967689514160156,-0.039275363087654114
1761369800717468000,9.804468017578126,-0.08077096939086914,-0.0042057037353515625,-0.051716819405555725
1761369800736079000,9.8230791015625,-0.05927848815917969,-0.026307106018066406,-0.02846832573413849
1761369800754688800,9.841688720703125,-0.02506542205810547,-0.02647876739501953,-0.02257731556892395
1761369800773300000,9.860300048828124,-0.07716798782348633,-0.009568214416503906,-0.027212806046009064
1761369800791909600,9.87890966796875,-0.07104730606079102,0.007691383361816406,-0.015640296041965485
1761369800810520800,9.897520751953126,-0.01958942413330078,0.008555412292480469,0.02144947648048401
1761369800829130500,9.916130615234374,0.0018687248229980469,-0.03950977325439453,0.05353314429521561
1761369800847741700,9.93474169921875,0.0400691032409668,-0.025542259216308594,0.008798941969871521
1761369800866351400,9.953351318359376,0.019170284271240234,0.010547637939453125,-0.06141787767410278
1761369800884962800,9.971962890625,-0.07685041427612305,0.027540206909179688,-0.03276633471250534
1761369800903572500,9.990572509765625,0.016870498657226562,0.016321182250976562,0.019744165241718292
1761369800922183700,10.00918359375,0.08301877975463867,-0.02602100372314453,0.09720581769943237
1761369800940793300,10.02779345703125,-0.039267539978027344,-0.02712726593017578,0.0659693256020546
1761369800959404500,10.046404541015624,-0.10108613967895508,-0.02012920379638672,0.000798247754573822
1761369800978014200,10.06501416015625,-0.005035400390625,-0.01300811767578125,0.007448017597198486
1761369800996625400,10.08362548828125,0.08901309967041016,0.023174285888671875,0.0037423446774482727
1761369801015235000,10.102235107421874,0.04357433319091797,0.053023338317871094,-0.04004337266087532
1761369801033846300,10.12084619140625,0.006320476531982422,0.0539093017578125,-0.05716807395219803
1761369801052456000,10.1394560546875,-0.046860694885253906,0.004039764404296875,-0.032195642590522766
1761369801071067400,10.1580673828125,-0.009606361389160156,-0.037067413330078125,0.0033198073506355286
1761369801089677000,10.176677001953125,0.06544828414916992,-0.028799057006835938,0.011806875467300415
1761369801108288300,10.195288330078125,-0.06267404556274414,-0.004759788513183594,-0.013071931898593903
1761369801126898000,10.21389794921875,-0.14677810668945312,0.0224151611328125,-0.023682773113250732
1761369801145509000,10.232509033203126,-0.0217132568359375,0.009874343872070312,0.018884986639022827
1761369801164118800,10.251118896484375,0.09563684463500977,0.010578155517578125,0.09719286113977432
1761369801182730000,10.26972998046875,0.030868053436279297,0.008298873901367188,0.1359720379114151
1761369801201339600,10.288339599609374,-0.01305246353149414,0.022624969482421875,0.08232869952917099
1761369801219950800,10.306950927734375,-0.0021915435791015625,0.010896682739257812,0.040240079164505005
1761369801238560800,10.325560791015626,-0.001056671142578125,0.0111846923828125,0.022788651287555695
1761369801257172000,10.344171875,0.033370018005371094,0.015798568725585938,-0.023563064634799957
1761369801275781600,10.36278173828125,0.029846668243408203,0.03165912628173828,-0.020534269511699677
1761369801294392800,10.381392822265624,-0.025188922882080078,0.009526252746582031,0.007426410913467407
1761369801313002500,10.40000244140625,-0.08835124969482422,-0.0017604827880859375,0.0069983601570129395
1761369801331613700,10.41861376953125,-0.06674385070800781,-0.009716987609863281,0.03131723403930664
1761369801350223400,10.437223388671875,0.0463709831237793,-0.008672714233398438,0.017748497426509857
1761369801368834600,10.45583447265625,0.04736328125,0.026332855224609375,0.00004310905933380127
1761369801387444200,10.4744443359375,0.004164695739746094,0.03450584411621094,0.009248882532119751
1761369801406055700,10.4930556640625,0.06627511978149414,0.01633167266845703,0.03965260833501816
1761369801424665300,10.511665283203126,0.13343000411987305,0.0321502685546875,0.005641870200634003
1761369801443276500,10.530276611328125,0.07848787307739258,0.030305862426757812,-0.007008902728557587
1761369801461886200,10.54888623046875,-0.059452056884765625,-0.01777362823486328,-0.019589394330978394
1761369801480497400,10.567497314453124,-0.14389753341674805,-0.06032371520996094,0.010265819728374481
1761369801499107000,10.586107177734375,-0.07054853439331055,-0.0843515396118164,0.045413002371788025
1761369801517718300,10.60471826171875,-0.03819847106933594,-0.023096084594726562,0.02847878634929657
1761369801536328000,10.623327880859375,-0.042994022369384766,0.0016698837280273438,0.07692305743694305
1761369801554939400,10.641939453125,0.059653282165527344,-0.0023670196533203125,0.0841706320643425
1761369801573549000,10.660549072265624,-0.044619083404541016,-0.046051979064941406,0.08234968036413193
1761369801592160300,10.67916015625,-0.06541919708251953,-0.09286880493164062,0.017812274396419525
1761369801610770000,10.69777001953125,-0.013738632202148438,0.13285160064697266,-0.2399674654006958
1761369801629381000,10.716381103515625,0.0626225471496582,0.11030769348144531,-0.06965108960866928
1761369801647990800,10.73499072265625,0.12329244613647461,0.008652687072753906,0.1702461540699005
1761369801666602000,10.75360205078125,0.11087465286254883,-0.03738975524902344,0.19552253186702728
1761369801685211600,10.772211669921875,0.06434202194213867,-0.07247447967529297,0.1388634592294693
1761369801703823000,10.790822998046876,-0.11646652221679688,-0.0726480484008789,-0.07969164103269577
