time,seconds_elapsed,z,y,x
1761370086420301300,0.20230126953125,0.09356689453125,0.132243812084198,-0.08735007047653198
1761370086438911700,0.220911865234375,0.015576362609863281,0.0645211935043335,-0.05735290050506592
1761370086457524000,0.23952392578125,-0.022531509399414062,0.06736302375793457,-0.06666785478591919
1761370086476134400,0.258134521484375,0.0000972747802734375,0.06977230310440063,-0.07718369364738464
1761370086494746400,0.276746337890625,0.050498008728027344,0.09764593839645386,-0.09226956963539124
1761370086513357000,0.295357177734375,0.0361175537109375,0.12706559896469116,-0.10855555534362793
1761370086531969000,0.313968994140625,0.052344322204589844,0.11304247379302979,-0.09046971797943115
1761370086550579500,0.332579345703125,0.05372047424316406,0.07361441850662231,-0.08298680186271667
1761370086569191700,0.351191650390625,-0.0008344650268554688,0.04695868492126465,-0.04558753967285156
1761370086587802000,0.369802001953125,-0.0261383056640625,0.015548169612884521,0.036048561334609985
1761370086606414000,0.3884140625,-0.0018768310546875,-0.003100454807281494,0.10588778555393219
1761370086625024800,0.407024658203125,0.025499343872070312,-0.005655348300933838,0.07733659446239471
1761370086643636700,0.42563671875,0.03551673889160156,0.017177999019622803,0.0024079978466033936
1761370086662247200,0.4442470703125,0.04255962371826172,0.040695369243621826,-0.07763606309890747
1761370086680859400,0.462859375,0.06278133392333984,0.15106815099716187,0.0023408830165863037
1761370086699469800,0.4814697265625,-0.000629425048828125,0.03802227973937988,-0.07919058203697205
1761370086718081800,0.500081787109375,-0.03305625915527344,-0.06854110956192017,-0.000949174165725708
1761370086736692500,0.5186923828125,-0.0040130615234375,-0.06070280075073242,0.11255361139774323
1761370086755304400,0.537304443359375,0.04709815979003906,-0.010912477970123291,0.07483142614364624
1761370086773915000,0.555914794921875,0.050072669982910156,0.03622251749038696,0.017452716827392578
1761370086792527000,0.574527099609375,0.009131431579589844,0.03605467081069946,0.045684099197387695
1761370086811137500,0.593137451171875,-0.034748077392578125,0.025498032569885254,0.09478497505187988
1761370086829749500,0.61174951171875,0.018515586853027344,0.002308487892150879,0.05853760242462158
1761370086848360200,0.630360107421875,0.060321807861328125,0.015971839427947998,-0.004473268985748291
1761370086866972200,0.64897216796875,0.042502403259277344,0.02973616123199463,-0.02896454930305481
1761370086885582600,0.66758251953125,-0.014344215393066406,0.027473866939544678,-0.011693626642227173
1761370086904194800,0.68619482421875,-0.004355430603027344,0.023090660572052002,-0.018554002046585083
1761370086922805200,0.70480517578125,0.040373802185058594,0.05522191524505615,-0.22742673754692078
1761370086941417200,0.723417236328125,0.17836761474609375,0.06988441944122314,-0.019744932651519775
1761370086960028000,0.74202783203125,-0.007788658142089844,-0.007403135299682617,-0.00975191593170166
1761370086978640000,0.760639892578125,-0.09155750274658203,-0.014321446418762207,0.047812193632125854
1761370086997250600,0.77925048828125,-0.037181854248046875,-0.004162013530731201,0.04186820983886719
1761370087015862500,0.797862548828125,0.05351734161376953,0.017477452754974365,0.013990581035614014
1761370087034473000,0.816472900390625,0.2239360809326172,0.061846137046813965,-0.09637883305549622
1761370087053085000,0.8350849609375,-0.026899337768554688,0.07787823677062988,-0.08258935809135437
1761370087071695600,0.853695556640625,-0.19164371490478516,0.01850026845932007,0.026992321014404297
1761370087090307600,0.8723076171875,-0.10128307342529297,-0.022803306579589844,0.04877370595932007
1761370087108918300,0.890918212890625,0.0279083251953125,-0.03991687297821045,0.047139495611190796
1761370087127530200,0.9095302734375,0.07645893096923828,-0.02149331569671631,-0.009872585535049438
1761370087146140700,0.928140625,0.0880270004272461,0.010276079177856445,-0.029484570026397705
1761370087164753000,0.9467529296875,0.06896018981933594,0.02566218376159668,-0.011746317148208618
1761370087183363300,0.96536328125,0.03789234161376953,0.005067944526672363,-0.03876972198486328
1761370087201975300,0.983975341796875,-0.03628253936767578,-0.015993177890777588,-0.003861844539642334
1761370087220586000,1.0025859375,-0.07271957397460938,0.004984617233276367,0.043391287326812744
1761370087239198000,1.021197998046875,-0.07712841033935547,0.07022559642791748,0.024047523736953735
1761370087257808400,1.039808349609375,-0.0062351226806640625,0.07835805416107178,0.028434038162231445
1761370087276420600,1.058420654296875,0.10879135131835938,0.0024204254150390625,0.028584390878677368
1761370087295031000,1.077031005859375,0.07945537567138672,-0.04286599159240723,0.0038986504077911377
1761370087313643000,1.09564306640625,-0.0072345733642578125,-0.023491322994232178,0.005974620580673218
1761370087332253700,1.114253662109375,-0.05103015899658203,0.007915496826171875,0.003919094800949097
1761370087350865700,1.13286572265625,-0.027892112731933594,0.017921924591064453,0.01626184582710266
1761370087369476000,1.15147607421875,0.0783233642578125,0.010048151016235352,0.0013723969459533691
1761370087388088300,1.17008837890625,0.14757633209228516,-0.024021029472351074,-0.02538144588470459
1761370087406698800,1.18869873046875,0.022983551025390625,-0.008253157138824463,0.007044702768325806
1761370087425311000,1.20731103515625,-0.05939960479736328,0.009556710720062256,0.057179033756256104
1761370087443921400,1.22592138671875,-0.02211761474609375,0.03363233804702759,0.03482845425605774
1761370087462533400,1.244533447265625,0.011269569396972656,0.038377225399017334,-0.017499923706054688
1761370087481144000,1.26314404296875,-0.016875267028808594,0.015005707740783691,-0.035437971353530884
1761370087499756000,1.281756103515625,-0.00225830078125,-0.0010428428649902344,-0.03676334023475647
1761370087518366500,1.300366455078125,0.020879745483398438,0.010112345218658447,-0.0174638032913208
1761370087536978700,1.318978759765625,0.038643836975097656,0.014893174171447754,0.01625153422355652
1761370087555589000,1.337589111328125,-0.009586334228515625,0.007011890411376953,0.03234019875526428
1761370087574201000,1.356201171875,-0.034755706787109375,0.0069771409034729,0.04679122567176819
1761370087592811800,1.374811767578125,-0.037962913513183594,-0.000961601734161377,0.0382712185382843
1761370087611423700,1.393423828125,0.061699867248535156,-0.009313464164733887,0.0083903968334198
1761370087630034200,1.4120341796875,0.09453201293945312,-0.007742047309875488,-0.01951688528060913
1761370087648646400,1.430646484375,0.026098251342773438,0.002532660961151123,-0.025901705026626587
1761370087667256800,1.4492568359375,-0.03289794921875,-0.004622101783752441,0.0008092224597930908
1761370087685868800,1.467868896484375,-0.003566741943359375,-0.010909080505371094,-0.007253170013427734
1761370087704479500,1.4864794921875,0.04548835754394531,0.007826626300811768,-0.029877275228500366
1761370087723091500,1.505091552734375,0.02971172332763672,0.0011290907859802246,-0.041274577379226685
1761370087741702000,1.523701904296875,-0.027383804321289062,0.025355041027069092,-0.04291766881942749
1761370087760314000,1.542314208984375,-0.031116485595703125,0.043003618717193604,-0.002566516399383545
1761370087778924500,1.560924560546875,0.01436614990234375,0.041424572467803955,0.0144156813621521
1761370087797536500,1.57953662109375,0.05127716064453125,0.027320384979248047,0.03687676787376404
1761370087816147200,1.598147216796875,0.0026721954345703125,-0.001945197582244873,0.04434356093406677
1761370087834759200,1.61675927734375,-0.037120819091796875,-0.021868348121643066,0.03139457106590271
1761370087853369600,1.63536962890625,-0.01717853546142578,-0.018472254276275635,0.01601770520210266
1761370087871981800,1.65398193359375,0.0138702392578125,-0.007588803768157959,0.014002323150634766
1761370087890592300,1.67259228515625,0.008866310119628906,-0.0021193623542785645,0.00559622049331665
1761370087909204200,1.691204345703125,-0.02868175506591797,-0.010879158973693848,0.010910242795944214
1761370087927815000,1.70981494140625,-0.008953094482421875,0.0055615901947021484,0.0018565952777862549
1761370087946427000,1.728427001953125,0.0659952163696289,0.021502554416656494,-0.016832679510116577
1761370087965037600,1.74703759765625,0.0636281967163086,-0.026884496212005615,0.011282354593276978
1761370087983649500,1.7656494140625,-0.013286590576171875,-0.053923189640045166,0.05786873400211334
1761370088002260000,1.784260009765625,-0.052337646484375,-0.004239082336425781,0.05238792300224304
1761370088020872200,1.8028720703125,0.02891063690185547,0.022825956344604492,0.012557148933410645
1761370088039482600,1.821482666015625,0.04635429382324219,0.016142666339874268,0.0015146434307098389
1761370088058094600,1.840094482421875,-0.006396293640136719,0.015568554401397705,-0.004932284355163574
1761370088076705300,1.858705322265625,0.04052162170410156,-0.006553947925567627,-0.03018730878829956
1761370088095317200,1.877317138671875,0.0036935806274414062,-0.03661233186721802,-0.0034700632095336914
1761370088113927700,1.895927734375,-0.01759815216064453,-0.006021022796630859,0.022454306483268738
1761370088132540000,1.914539794921875,-0.005352020263671875,0.025972425937652588,0.03742818534374237
1761370088151150300,1.933150390625,-0.02836322784423828,0.038653016090393066,0.03956198692321777
1761370088169762300,1.95176220703125,-0.020028114318847656,0.005510270595550537,0.03367672860622406
1761370088188373000,1.970373046875,0.034478187561035156,-0.012517273426055908,-0.011661022901535034
1761370088206985000,1.98898486328125,0.04708385467529297,0.0012229681015014648,-0.04685908555984497
1761370088225595400,2.007595458984375,-0.027024269104003906,0.00953209400177002,-0.021316051483154297
1761370088244207600,2.02620751953125,-0.07971572875976562,0.005735456943511963,0.018635213375091553
1761370088262818000,2.044818115234375,-0.023156166076660156,-0.0035712122917175293,0.008833527565002441
1761370088281430000,2.063429931640625,0.05491447448730469,0.014037549495697021,0.036221474409103394
1761370088300040700,2.082040771484375,0.085723876953125,-0.015486717224121094,-0.04937702417373657
1761370088318652700,2.100652587890625,0.024460792541503906,-0.0024895071983337402,-0.011651962995529175
1761370088337263000,2.11926318359375,-0.011290550231933594,0.013244390487670898,-0.025420725345611572
1761370088355875300,2.137875244140625,-0.03908252716064453,0.026496529579162598,0.010991543531417847
1761370088374485800,2.15648583984375,-0.040093421936035156,0.014876902103424072,0.02071097493171692
1761370088393097700,2.17509765625,0.010188102722167969,-0.0007161498069763184,0.022821366786956787
1761370088411708400,2.19370849609375,0.030874252319335938,-0.007358670234680176,0.01621866226196289
1761370088430320400,2.2123203125,0.03682518005371094,-0.016457438468933105,0.046635717153549194
1761370088448930800,2.230930908203125,-0.0064792633056640625,-0.02483201026916504,0.018783926963806152
1761370088467543000,2.24954296875,-0.031935691833496094,-0.003693521022796631,0.023138225078582764
1761370088486153500,2.268153564453125,-0.030710220336914062,0.002934753894805908,0.03717826306819916
1761370088504765400,2.286765380859375,0.0030679702758789062,-0.01723349094390869,0.00668373703956604
1761370088523376000,2.305376220703125,0.0009374618530273438,0.007404148578643799,-0.0047702789306640625
1761370088541988000,2.323988037109375,0.029020309448242188,0.02839714288711548,0.01126396656036377
1761370088560598500,2.3425986328125,0.08183956146240234,0.01724463701248169,-0.0023070871829986572
1761370088579210800,2.361210693359375,0.062713623046875,0.01693516969680786,-0.01816338300704956
1761370088597821200,2.3798212890625,-0.026044845581054688,0.029483318328857422,-0.0037557482719421387
1761370088616433200,2.39843310546875,-0.04416656494140625,0.0060999393463134766,-0.01153576374053955
1761370088635043800,2.4170439453125,-0.04764366149902344,-0.016486942768096924,-0.0010873079299926758
1761370088653655800,2.43565576171875,-0.027456283569335938,-0.036716997623443604,0.05338749289512634
1761370088672266200,2.454266357421875,0.011020660400390625,-0.04253143072128296,0.07210318744182587
1761370088690878200,2.472878173828125,0.015254974365234375,-0.022964179515838623,0.024831265211105347
1761370088709489000,2.491489013671875,-0.001392364501953125,-0.0015469193458557129,0.022511154413223267
1761370088728100900,2.510100830078125,-0.0035686492919921875,0.017001092433929443,0.03740115463733673
1761370088746711600,2.528711669921875,-0.012755393981933594,0.01630622148513794,0.007977932691574097
1761370088765323500,2.547323486328125,-0.009852409362792969,0.03000354766845703,-0.008629053831100464
1761370088783934000,2.565933837890625,0.0021657943725585938,0.015209376811981201,0.01267281174659729
1761370088802546000,2.5845458984375,0.013824462890625,-0.008197307586669922,0.013431042432785034
1761370088821156600,2.603156494140625,0.02032470703125,0.005767464637756348,-0.007965832948684692
1761370088839768600,2.6217685546875,0.0381622314453125,0.03365790843963623,-0.03255808353424072
1761370088858379000,2.64037890625,0.008663177490234375,0.02096015214920044,-0.050775229930877686
1761370088876991200,2.6589912109375,-0.04546070098876953,-0.01987367868423462,-0.00685235857963562
1761370088895601700,2.6776015625,-0.05092430114746094,0.0005607008934020996,0.04855617880821228
1761370088914213600,2.696213623046875,0.035088539123535156,-0.025597870349884033,0.03890632092952728
1761370088932824000,2.714823974609375,0.05016136169433594,-0.002985239028930664,-0.024459630250930786
1761370088951436300,2.733436279296875,-0.019113540649414062,0.017494559288024902,-0.01781412959098816
1761370088970046700,2.752046630859375,-0.039501190185546875,-0.0041432976722717285,0.029642432928085327
1761370088988659000,2.770658935546875,-0.00324249267578125,-0.03404855728149414,0.02976164221763611
1761370089007269400,2.789269287109375,0.008378982543945312,0.000815272331237793,-0.010638415813446045
1761370089025881300,2.80788134765625,-0.0011453628540039062,0.02408909797668457,0.0033809542655944824
1761370089044491800,2.82649169921875,0.0036954879760742188,0.0025324225425720215,0.03642651438713074
1761370089063104000,2.84510400390625,0.029287338256835938,-0.0017872452735900879,0.022121340036392212
1761370089081714400,2.86371435546875,0.021350860595703125,0.0005547404289245605,-0.0025970637798309326
1761370089100326400,2.882326416015625,-0.0050907135009765625,0.0047484636306762695,-0.015515804290771484
1761370089118937000,2.90093701171875,-0.02818775177001953,0.004312872886657715,-0.005359828472137451
1761370089137549000,2.919549072265625,-0.0015439987182617188,0.003651857376098633,-0.006589829921722412
1761370089156159500,2.938159423828125,0.024130821228027344,0.023532450199127197,0.003545314073562622
1761370089174771500,2.956771484375,0.02110004425048828,0.005766689777374268,0.013361871242523193
1761370089193382100,2.975382080078125,0.015733718872070312,0.0007565021514892578,-0.0008245110511779785
1761370089211994000,2.993994140625,0.01966381072998047,-0.0069963932037353516,0.00850290060043335
1761370089230604500,3.0126044921875,0.0026426315307617188,0.010243892669677734,0.007962346076965332
1761370089249216800,3.031216796875,-0.011576652526855469,-0.007860839366912842,0.01791280508041382
1761370089267827200,3.0498271484375,-0.013575553894042969,-0.02730792760848999,-0.01224951446056366
1761370089286439200,3.068439208984375,-0.010865211486816406,-0.015069663524627686,0.010153457522392273
1761370089305049900,3.0870498046875,-0.03390216827392578,0.004303097724914551,0.05736668407917023
1761370089323661800,3.105661865234375,-0.025655746459960938,0.005145609378814697,0.06558342278003693
1761370089342272300,3.124272216796875,0.014960289001464844,0.010317981243133545,0.05490763485431671
1761370089360884200,3.14288427734375,0.024042129516601562,0.012117743492126465,0.02143847942352295
1761370089379495000,3.161494873046875,0.018712997436523438,0.025244593620300293,-0.019159376621246338
1761370089398107000,3.18010693359375,0.0018606185913085938,0.03160750865936279,-0.024589836597442627
1761370089416717300,3.19871728515625,-0.010007858276367188,0.0287703275680542,-0.01545533537864685
1761370089435329500,3.21732958984375,-0.012042999267578125,0.021557986736297607,-0.01284325122833252
1761370089453940000,3.23593994140625,-0.009243965148925781,0.014600753784179688,-0.013972491025924683
1761370089472552000,3.254552001953125,0.01434326171875,-0.0019274353981018066,0.00021627545356750488
1761370089491162600,3.27316259765625,0.0231170654296875,-0.006776869297027588,0.027902141213417053
1761370089509774600,3.291774658203125,0.013013839721679688,-0.011626720428466797,0.006689965724945068
1761370089528385000,3.310385009765625,0.001018524169921875,-0.004339694976806641,-0.010535478591918945
1761370089546997000,3.3289970703125,-0.029425621032714844,-0.01592808961868286,0.007416754961013794
1761370089565607700,3.347607666015625,-0.05410480499267578,-0.033514320850372314,0.024116545915603638
1761370089584219600,3.3662197265625,-0.007900238037109375,-0.04139477014541626,0.02661845088005066
1761370089602830000,3.384830078125,0.0203857421875,-0.00783693790435791,0.01776832342147827
1761370089621442300,3.4034423828125,0.0034275054931640625,0.006167173385620117,0.01394587755203247
1761370089640052700,3.422052734375,-0.005863189697265625,0.023602187633514404,-0.0006080865859985352
1761370089658664700,3.440664794921875,-0.005639076232910156,0.017473936080932617,0.007460951805114746
1761370089677275100,3.459275146484375,0.011019706726074219,-0.01093059778213501,0.01999884843826294
1761370089695887400,3.477887451171875,0.027065277099609375,-0.016213178634643555,0.015141099691390991
1761370089714497800,3.496497802734375,0.021564483642578125,-0.0011966824531555176,-0.0020166337490081787
1761370089733109800,3.51510986328125,0.0019693374633789062,0.011271893978118896,-0.01218518614768982
1761370089751720400,3.533720458984375,-0.04017353057861328,0.0411992073059082,0.010408997535705566
1761370089770332400,3.55233251953125,-0.03418159484863281,0.02886223793029785,0.029273182153701782
1761370089788942800,3.57094287109375,-0.014433860778808594,0.013961315155029297,0.0184059739112854
1761370089807554800,3.589554931640625,-0.0022287368774414062,-0.005215883255004883,0.002728700637817383
1761370089826165500,3.60816552734375,0.044503211975097656,-0.011876046657562256,-0.01378372311592102
1761370089844777500,3.626777587890625,0.0008649826049804688,0.026781141757965088,-0.04021036624908447
1761370089863388000,3.645387939453125,-0.022505760192871094,0.04711461067199707,-0.02102351188659668
1761370089882000100,3.664000244140625,-0.019481658935546875,-0.08746927976608276,0.07374368607997894
1761370089900610600,3.682610595703125,-0.00022602081298828125,-0.10182517766952515,0.0604080855846405
1761370089919222500,3.701222412109375,-0.009502410888671875,0.025756418704986572,-0.013850003480911255
1761370089937833200,3.719833251953125,-0.009031295776367188,0.028499126434326172,0.03627669811248779
1761370089956445200,3.738445068359375,-0.02724742889404297,0.012321889400482178,0.06432653963565826
1761370089975055600,3.7570556640625,0.008859634399414062,0.008825838565826416,0.04706992208957672
1761370089993667600,3.77566748046875,0.01557159423828125,0.01818227767944336,-0.001132965087890625
1761370090012278300,3.7942783203125,0.0010576248168945312,0.01010805368423462,-0.03920865058898926
1761370090030890200,3.81289013671875,-0.00130462646484375,0.021006762981414795,-0.01234486699104309
1761370090049500700,3.831500732421875,-0.008116722106933594,0.017799854278564453,0.004159152507781982
1761370090068112600,3.850112548828125,-0.012552261352539062,0.026739001274108887,-0.006024181842803955
1761370090086723300,3.868723388671875,-0.019304275512695312,0.015027880668640137,-0.024122774600982666
1761370090105335300,3.887335205078125,0.00008678436279296875,-0.002884089946746826,-0.020699769258499146
1761370090123945700,3.90594580078125,-0.007122039794921875,-0.00853121280670166,0.01322910189628601
1761370090142558000,3.924557861328125,-0.02564525604248047,0.0027101635932922363,0.030148625373840332
1761370090161168400,3.94316845703125,-0.03178215026855469,-0.0072133541107177734,0.060973092913627625
1761370090179780400,3.9617802734375,-0.011859893798828125,-0.005545973777770996,0.07662403583526611
1761370090198390800,3.980390869140625,0.014384269714355469,-0.0323672890663147,0.051364243030548096
1761370090217003000,3.9990029296875,0.04001045227050781,-0.06300503015518188,-0.00836879014968872
1761370090235613400,4.017613525390625,0.041253089904785156,-0.024081408977508545,-0.010428696870803833
1761370090254225400,4.036225341796875,0.01903533935546875,0.02258199453353882,-0.05734831094741821
1761370090272835800,4.0548359375,-0.026079177856445312,0.040943026542663574,-0.0558849573135376
1761370090291448000,4.073447998046875,-0.036978721618652344,0.038778603076934814,-0.02388361096382141
1761370090310058500,4.09205859375,-0.017118453979492188,0.036128222942352295,0.03880539536476135
1761370090328670500,4.11067041015625,0.027670860290527344,0.0569949746131897,-0.011780411005020142
1761370090347281200,4.12928125,-0.0037784576416015625,-0.011756718158721924,0.024513840675354004
1761370090365893000,4.14789306640625,-0.010645866394042969,-0.051222145557403564,0.037704676389694214
1761370090384503600,4.166503662109375,-0.010277748107910156,-0.06055337190628052,0.061877623200416565
1761370090403115500,4.185115478515625,-0.01912403106689453,-0.02124762535095215,0.017940610647201538
1761370090421726200,4.203726318359375,-0.0298309326171875,-0.0005224943161010742,-0.012731492519378662
1761370090440338200,4.222338134765625,-0.021767616271972656,0.000606834888458252,-0.006890714168548584
1761370090458948600,4.240948486328125,0.014056205749511719,-0.024271726608276367,0.011935770511627197
1761370090477560800,4.259560791015625,0.04383659362792969,-0.00874030590057373,0.01934736967086792
1761370090496171300,4.278171142578125,0.018964767456054688,0.01664102077484131,0.018544942140579224
1761370090514783200,4.296783203125,-0.016755104064941406,0.005435764789581299,0.01814723014831543
1761370090533394000,4.315393798828125,-0.02310657501220703,0.0018830299377441406,0.012867659330368042
1761370090552006000,4.334005859375,-0.0012531280517578125,0.01565420627593994,-0.00367853045463562
1761370090570616300,4.3526162109375,0.005703926086425781,0.009082198143005371,-0.025988876819610596
1761370090589228300,4.371228271484375,-0.006188392639160156,0.01472538709640503,-0.019178569316864014
1761370090607839000,4.3898388671875,-0.0341339111328125,0.019295990467071533,0.0176449716091156
1761370090626451000,4.408450927734375,-0.025989532470703125,0.024162232875823975,0.055627331137657166
1761370090645061400,4.427061279296875,-0.00391387939453125,0.011986315250396729,0.051081568002700806
1761370090663673600,4.445673583984375,0.012575149536132812,0.006221890449523926,0.014866024255752563
1761370090682284000,4.464283935546875,0.0052356719970703125,0.00004029273986816406,-0.012939155101776123
1761370090700896000,4.48289599609375,-0.01822185516357422,0.004377543926239014,-0.016030699014663696
1761370090719506700,4.501506591796875,-0.022276878356933594,0.01479196548461914,0.0128726065158844
1761370090738118700,4.52011865234375,-0.012055397033691406,0.0015085935592651367,-0.020343244075775146
1761370090756729000,4.53872900390625,0.0304718017578125,-0.02359592914581299,-0.0006552934646606445
1761370090775341000,4.557341064453125,0.0386962890625,-0.029613971710205078,-0.02678963541984558
1761370090793951700,4.57595166015625,0.009281158447265625,-0.0215795636177063,-0.014259546995162964
1761370090812563700,4.594563720703125,-0.0050830841064453125,0.0020426511764526367,-0.0003262758255004883
1761370090831174400,4.61317431640625,-0.030681610107421875,0.0037213563919067383,0.005447953939437866
1761370090849786400,4.631786376953125,-0.024994850158691406,0.0016611218452453613,0.011061310768127441
1761370090868396800,4.650396728515625,0.008606910705566406,-0.002620100975036621,0.01577860116958618
1761370090887008800,4.6690087890625,0.02701568603515625,0.015996873378753662,0.024789959192276
1761370090905619500,4.687619384765625,0.007518768310546875,0.017322242259979248,0.020411014556884766
1761370090924231400,4.7062314453125,-0.006726264953613281,0.005333423614501953,0.005657941102981567
1761370090942841900,4.724841796875,0.007517814636230469,-0.00864267349243164,-0.026236295700073242
1761370090961454000,4.7434541015625,0.023296356201171875,-0.008701622486114502,-0.0321047306060791
1761370090980064500,4.762064453125,-0.012586593627929688,0.014787018299102783,-0.01496151089668274
1761370090998676500,4.780676513671875,-0.030999183654785156,0.017930269241333008,0.02483224868774414
1761370091017287200,4.799287109375,-0.023056983947753906,0.013726115226745605,0.0364038348197937
1761370091035899100,4.817899169921875,-0.022406578063964844,-0.003178834915161133,0.030296653509140015
1761370091054509600,4.836509521484375,-0.012239456176757812,-0.02751368284225464,0.03355923295021057
1761370091073121800,4.855121826171875,0.03956127166748047,-0.02739018201828003,0.006376147270202637
1761370091091732200,4.873732177734375,0.04527568817138672,-0.0033995509147644043,-0.01376265287399292
1761370091110344200,4.89234423828125,-0.016826629638671875,0.009567618370056152,0.009522289037704468
1761370091128955000,4.910954833984375,-0.037235260009765625,-0.00027638673782348633,0.03367578983306885
1761370091147566800,4.92956689453125,0.013068199157714844,-0.011265575885772705,0.012836068868637085
1761370091166177300,4.94817724609375,0.04498577117919922,-0.012389183044433594,-0.05598807334899902
1761370091184789200,4.966789306640625,0.02471923828125,0.007454931735992432,-0.042276531457901
1761370091203400000,4.98539990234375,-0.027579307556152344,0.024232327938079834,0.02615797519683838
1761370091222012000,5.004011962890625,-0.026732444763183594,0.016149520874023438,0.06355306506156921
1761370091240622300,5.022622314453125,0.004515647888183594,-0.0028080344200134277,0.05374547839164734
1761370091259234600,5.041234619140625,0.009087562561035156,-0.008810341358184814,0.017418354749679565
1761370091277845000,5.059844970703125,-0.02598285675048828,-0.022953391075134277,0.004530161619186401
1761370091296457000,5.07845703125,-0.013467788696289062,-0.013955414295196533,-0.0011488497257232666
1761370091315067600,5.097067626953125,0.007898330688476562,-0.00793999433517456,-0.019462525844573975
1761370091333679600,5.1156796875,0.026160240173339844,-0.008450984954833984,-0.008837729692459106
1761370091352290000,5.1342900390625,0.01591777801513672,0.002142965793609619,0.004401862621307373
1761370091370902300,5.15290234375,-0.005717277526855469,0.016318142414093018,0.034049808979034424
1761370091389512700,5.1715126953125,-0.021755218505859375,0.03645390272140503,0.0206412672996521
1761370091408124700,5.190124755859375,0.009244918823242188,0.00643157958984375,-0.00609898567199707
1761370091426735000,5.208735107421875,0.008880615234375,-0.01458972692489624,0.017418712377548218
1761370091445347300,5.227347412109375,0.02022838592529297,0.0009723305702209473,0.017218977212905884
1761370091463957800,5.245957763671875,0.0030059814453125,0.01578354835510254,0.00967329740524292
1761370091482570000,5.264570068359375,-0.020303726196289062,0.020234644412994385,0.02457377314567566
1761370091501180400,5.283180419921875,-0.021965980529785156,0.02107638120651245,-0.0015126168727874756
1761370091519792400,5.30179248046875,-0.007260322570800781,0.0005517005920410156,0.02622959017753601
1761370091538402800,5.32040283203125,0.0070438385009765625,-0.0012424588203430176,0.030938029289245605
1761370091557015000,5.33901513671875,0.023209571838378906,0.003296077251434326,0.029764294624328613
1761370091575625500,5.35762548828125,0.008379936218261719,0.007794320583343506,0.01783531904220581
1761370091594237400,5.376237548828125,0.0011615753173828125,-0.010810494422912598,-0.010950803756713867
1761370091612848000,5.39484814453125,0.0058078765869140625,-0.021766722202301025,-0.018799394369125366
1761370091631460000,5.413460205078125,0.007823944091796875,-0.0072067975997924805,-0.004639863967895508
1761370091650070500,5.432070556640625,0.0028390884399414062,0.004745364189147949,0.008975297212600708
1761370091668682500,5.4506826171875,-0.01822376251220703,0.004903435707092285,0.030636906623840332
1761370091687293200,5.469293212890625,-0.012798309326171875,-0.013076841831207275,0.05096399784088135
1761370091705905200,5.4879052734375,0.03446483612060547,-0.038158535957336426,0.0056220293045043945
1761370091724515800,5.506515869140625,0.0496673583984375,-0.021875441074371338,-0.011720985174179077
1761370091743127800,5.5251279296875,0.010629653930664062,-0.008466541767120361,-0.005691558122634888
1761370091761738200,5.54373828125,-0.012975692749023438,-0.005790054798126221,-0.003528386354446411
1761370091780350200,5.56235009765625,-0.012464523315429688,0.013988077640533447,-0.008656114339828491
1761370091798961000,5.5809609375,-0.00035190582275390625,0.0023680925369262695,-0.032240062952041626
1761370091817572900,5.59957275390625,0.0065860748291015625,-0.0001671314239501953,0.006509453058242798
1761370091836183300,5.618183349609375,-0.000820159912109375,0.0020217299461364746,0.028408914804458618
1761370091854795500,5.63679541015625,0.011000633239746094,0.00404435396194458,0.021233856678009033
1761370091873406000,5.655406005859375,0.0036487579345703125,0.015377700328826904,0.006145983934402466
1761370091892018000,5.674017822265625,-0.015109062194824219,0.006211042404174805,0.013250499963760376
1761370091910628600,5.692628662109375,-0.007575035095214844,0.00016099214553833008,0.017698615789413452
1761370091929240600,5.711240478515625,0.02081775665283203,0.01937335729598999,0.01523473858833313
1761370091947851000,5.72985107421875,0.03859519958496094,0.033717334270477295,-0.018857359886169434
1761370091966463200,5.748463134765625,0.02311229705810547,0.016739487648010254,-0.018222570419311523
1761370091985073700,5.76707373046875,-0.03602790832519531,-0.002302885055541992,0.01905900239944458
1761370092003685600,5.785685546875,-0.006775856018066406,-0.019223034381866455,0.0427960604429245
1761370092022296300,5.80429638671875,0.0026559829711914062,-0.015447020530700684,0.030374377965927124
1761370092040908300,5.822908203125,0.009525299072265625,-0.024754822254180908,0.017068982124328613
1761370092059518700,5.841518798828125,-0.006985664367675781,-0.035863399505615234,0.009144097566604614
1761370092078130700,5.860130615234375,0.012044906616210938,-0.04163902997970581,-0.008841216564178467
1761370092096741400,5.878741455078125,0.014080047607421875,-0.02866262197494507,0.005706697702407837
1761370092115353300,5.897353271484375,-0.0028867721557617188,0.009462118148803711,0.017536312341690063
1761370092133963800,5.9159638671875,-0.0029115676879882812,0.011089444160461426,0.031490862369537354
1761370092152576000,5.934575927734375,0.011142730712890625,0.003630995750427246,0.03546474874019623
1761370092171186400,5.9531865234375,0.022504806518554688,0.022045373916625977,0.010756999254226685
1761370092189798400,5.97179833984375,0.0007619857788085938,0.030796468257904053,0.026272892951965332
1761370092208409000,5.9904091796875,0.005438804626464844,0.013849496841430664,0.01802411675453186
1761370092227021000,6.00902099609375,-0.0018491744995117188,0.004517734050750732,0.004626572132110596
1761370092245631500,6.027631591796875,0.010164260864257812,0.004594027996063232,-0.012182086706161499
1761370092264243700,6.04624365234375,0.012049674987792969,-0.007809758186340332,-0.017834097146987915
1761370092282854100,6.064854248046875,-0.02790355682373047,-0.012318730354309082,0.005401492118835449
1761370092301466000,6.083466064453125,0.007979393005371094,0.0017039179801940918,-0.0022127628326416016
1761370092320076800,6.102076904296875,0.014459609985351562,0.010124266147613525,-0.00312158465385437
1761370092338688800,6.120688720703125,-0.016393661499023438,0.005213379859924316,0.012190133333206177
1761370092357299200,6.13929931640625,-0.008798599243164062,-0.009936392307281494,0.03784777224063873
1761370092375911200,6.1579111328125,-0.006072998046875,-0.010628044605255127,0.04552075266838074
1761370092394521900,6.17652197265625,0.010598182678222656,-0.0032114386558532715,0.013796418905258179
1761370092413133800,6.1951337890625,0.012362480163574219,0.02202296257019043,-0.006203144788742065
1761370092431744300,6.213744140625,-0.0183563232421875,0.016308128833770752,-0.010905146598815918
1761370092450356500,6.2323564453125,-0.019964218139648438,-0.002190709114074707,-0.010023742914199829
1761370092468967000,6.250966796875,0.013586044311523438,-0.015726685523986816,0.007474780082702637
1761370092487579000,6.269578857421875,0.048186302185058594,-0.022721827030181885,0.010062724351882935
1761370092506189600,6.288189453125,0.027921676635742188,-0.011325061321258545,-0.015280157327651978
1761370092524801500,6.306801513671875,-0.00811767578125,-0.006716310977935791,-0.02433064579963684
1761370092543412000,6.325411865234375,-0.01949596405029297,0.0077596306800842285,0.008677810430526733
1761370092562024000,6.34402392578125,-0.009441375732421875,0.014713644981384277,0.018968522548675537
1761370092580634600,6.362634521484375,0.02332019805908203,-0.007349967956542969,-0.011624962091445923
1761370092599246600,6.38124658203125,0.00397491455078125,0.011468231678009033,0.01490822434425354
1761370092617857000,6.39985693359375,-0.0008649826049804688,0.0025781989097595215,0.038319557905197144
1761370092636469200,6.41846923828125,-0.03808879852294922,-0.01965045928955078,0.055455952882766724
1761370092655079700,6.43707958984375,-0.0063610076904296875,-0.004777133464813232,0.033928751945495605
1761370092673691600,6.455691650390625,0.03135967254638672,-0.001393735408782959,0.005442976951599121
1761370092692302000,6.474302001953125,0.03968620300292969,0.02247011661529541,-0.009156554937362671
1761370092710914300,6.492914306640625,-0.008289337158203125,0.030879855155944824,0.014870911836624146
1761370092729524700,6.511524658203125,-0.02193737030029297,0.03806644678115845,0.04034009575843811
1761370092748136700,6.53013671875,-0.014086723327636719,0.023617148399353027,0.019227147102355957
1761370092766747400,6.548747314453125,0.02147388458251953,-0.010578691959381104,-0.017719954252243042
1761370092785359400,6.567359375,0.023095130920410156,-0.034964144229888916,-0.022091835737228394
1761370092803969800,6.5859697265625,-0.005869865417480469,-0.027608096599578857,0.008059412240982056
1761370092822582000,6.60458203125,-0.029013633728027344,-0.01682668924331665,0.0045435428619384766
1761370092841192400,6.6231923828125,-0.030374526977539062,-0.017401039600372314,0.0043655335903167725
1761370092859804400,6.641804443359375,-0.0082855224609375,-0.01646709442138672,0.032598674297332764
1761370092878414800,6.660414794921875,0.02242755889892578,-0.009897291660308838,0.029667556285858154
1761370092897027000,6.679027099609375,0.0004711151123046875,0.022509455680847168,0.03357049822807312
1761370092915637500,6.697637451171875,0.0007476806640625,0.011350929737091064,0.04876911640167236
1761370092934249500,6.71624951171875,0.005417823791503906,0.005679666996002197,0.03657832741737366
1761370092952860200,6.734860107421875,0.010125160217285156,0.005532741546630859,-0.005571603775024414
1761370092971472100,6.75347216796875,0.026190757751464844,0.01512455940246582,-0.018587380647659302
1761370092990082600,6.77208251953125,-0.01929950714111328,0.005998075008392334,-0.01645621657371521
1761370093008694500,6.790694580078125,-0.06042289733886719,0.023399949073791504,0.03539559245109558
1761370093027305200,6.80930517578125,0.0022230148315429688,0.008060634136199951,0.031707435846328735
1761370093045917200,6.827917236328125,0.051570892333984375,-0.006737232208251953,0.01412135362625122
1761370093064527600,6.846527587890625,0.04284477233886719,0.007510542869567871,0.015848904848098755
1761370093083139600,6.8651396484375,-0.007271766662597656,-0.009931325912475586,-0.0019828379154205322
1761370093101750300,6.883750244140625,-0.011548042297363281,-0.010427713394165039,-0.00548166036605835
1761370093120362200,6.9023623046875,0.037741661071777344,0.00927203893661499,-0.05643260478973389
1761370093138972700,6.92097265625,0.013057708740234375,0.0035706162452697754,-0.07897192239761353
1761370093157585000,6.9395849609375,-0.03180980682373047,-0.006108641624450684,-0.04950031638145447
1761370093176195300,6.9581953125,-0.02167034149169922,-0.005520224571228027,-0.016025781631469727
1761370093194807300,6.976807373046875,-0.0047969818115234375,-0.024366140365600586,0.033225804567337036
1761370093213418000,6.99541796875,0.016263961791992188,-0.010196149349212646,0.037855833768844604
1761370093232030000,7.014030029296875,0.011156082153320312,-0.019884586334228516,0.04952973127365112
1761370093250640400,7.032640380859375,0.003945350646972656,-0.014546573162078857,0.031042277812957764
1761370093269252400,7.05125244140625,0.0016565322875976562,-0.0024788975715637207,-0.0025178492069244385
1761370093287863000,7.069863037109375,0.003925323486328125,0.009380221366882324,0.004292845726013184
1761370093306475000,7.08847509765625,-0.017238616943359375,0.00936901569366455,0.02937498688697815
1761370093325085400,7.10708544921875,-0.00026988983154296875,0.011156022548675537,0.007495671510696411
1761370093343697400,7.125697509765625,0.025480270385742188,0.007229924201965332,-0.009903967380523682
1761370093362308000,7.14430810546875,0.0362701416015625,0.003383636474609375,-0.010325014591217041
1761370093380920000,7.162920166015625,-0.0048198699951171875,0.012900590896606445,0.0026070475578308105
1761370093399530500,7.181530517578125,-0.037273406982421875,0.011870145797729492,0.041028350591659546
1761370093418142700,7.200142822265625,-0.0033178329467773438,-0.015507400035858154,0.039084285497665405
1761370093436753200,7.218753173828125,-0.0009326934814453125,-0.017935872077941895,0.0033647119998931885
1761370093455365000,7.237365234375,-0.03113269805908203,-0.003889024257659912,0.02473294734954834
1761370093473975600,7.2559755859375,-0.006683349609375,0.012892425060272217,0.03999766707420349
1761370093492587800,7.274587890625,0.005238533020019531,0.03167170286178589,0.03460085391998291
1761370093511198200,7.2931982421875,0.030857086181640625,0.023388564586639404,0.005619436502456665
1761370093529810200,7.31181005859375,0.008831024169921875,0.0036142468452453613,-0.006212085485458374
1761370093548420900,7.3304208984375,-0.024181365966796875,0.01785379648208618,0.014988452196121216
1761370093567032800,7.34903271484375,-0.030391693115234375,0.011461079120635986,0.054219454526901245
1761370093585643300,7.367643310546875,0.0032176971435546875,-0.007433176040649414,0.03965386748313904
1761370093604255200,7.386255126953125,0.04518890380859375,-0.022939324378967285,0.02116990089416504
1761370093622866000,7.404865966796875,0.025193214416503906,-0.014239609241485596,-0.0129738450050354
1761370093641478000,7.423477783203125,0.008374214172363281,-0.017619788646697998,-0.0124301016330719
1761370093660088300,7.44208837890625,-0.008046150207519531,-0.024113893508911133,-0.018080472946166992
1761370093678700300,7.4607001953125,-0.010315895080566406,-0.02702850103378296,-0.03776600956916809
1761370093697311000,7.47931103515625,0.0015344619750976562,-0.015275418758392334,-0.0430474579334259
1761370093715923000,7.4979228515625,0.006056785583496094,0.00011783838272094727,-0.026349276304244995
1761370093734533400,7.516533447265625,0.010427474975585938,0.027715325355529785,0.008991479873657227
1761370093753145300,7.535145263671875,-0.011086463928222656,0.02977687120437622,0.054137974977493286
1761370093771756000,7.553756103515625,-0.015305519104003906,0.02011209726333618,0.06608055531978607
1761370093790368000,7.572367919921875,-0.0006246566772460938,-0.008383214473724365,0.021738946437835693
1761370093808978400,7.590978515625,0.029964447021484375,-0.020447254180908203,-0.023779630661010742
1761370093827590700,7.609590576171875,0.0338134765625,-0.02279222011566162,-0.037073731422424316
1761370093846201000,7.628201171875,0.011623382568359375,0.006047666072845459,-0.022996485233306885
1761370093864813000,7.64681298828125,-0.03811931610107422,0.029591262340545654,0.01143297553062439
1761370093883423500,7.665423583984375,-0.043880462646484375,0.022019028663635254,0.0015619993209838867
1761370093902035700,7.68403564453125,0.009004592895507812,-0.00005519390106201172,-0.011169880628585815
1761370093920646100,7.702646240234375,0.027337074279785156,-0.0007412433624267578,0.005782365798950195
1761370093939258000,7.721258056640625,0.012401580810546875,0.004131197929382324,0.04392451047897339
1761370093957868500,7.73986865234375,-0.009034156799316406,0.00781017541885376,0.03579708933830261
1761370093976480800,7.758480712890625,-0.00635528564453125,0.0016396045684814453,0.015356093645095825
1761370093995091200,7.77709130859375,-0.027189254760742188,-0.014914333820343018,0.026018232107162476
1761370094013703200,7.795703125,-0.021471023559570312,-0.008109688758850098,0.032302260398864746
1761370094032313600,7.814313720703125,0.011957168579101562,-0.006226897239685059,0.018482089042663574
1761370094050925800,7.83292578125,0.023097991943359375,0.005383312702178955,0.007852792739868164
1761370094069536300,7.851536376953125,0.010637283325195312,0.005693495273590088,0.023113936185836792
1761370094088148200,7.870148193359375,-0.010579109191894531,-0.002935469150543213,0.049659669399261475
1761370094106758700,7.888758544921875,-0.01242828369140625,-0.00907200574874878,0.016018271446228027
1761370094125371000,7.907370849609375,0.013754844665527344,-0.015681028366088867,-0.019400745630264282
1761370094143981300,7.925981201171875,0.010930061340332031,0.0053154826164245605,-0.033627837896347046
1761370094162593300,7.94459326171875,0.008211135864257812,0.025447368621826172,-0.008633673191070557
1761370094181203700,7.96320361328125,0.003276824951171875,0.0034362077713012695,0.03466391563415527
1761370094199816000,7.98181591796875,-0.0038852691650390625,0.0011131763458251953,0.04104587435722351
1761370094218426400,8.00042626953125,-0.00600433349609375,-0.0011049509048461914,0.00692981481552124
1761370094237038300,8.019038330078125,-0.012631416320800781,-0.012736380100250244,-0.004912078380584717
1761370094255648800,8.037648681640626,-0.007622718811035156,-0.007492780685424805,-0.010147929191589355
1761370094274261000,8.056260986328125,-0.02135944366455078,0.009857594966888428,0.0022322535514831543
1761370094292871400,8.074871337890626,0.0025806427001953125,0.0008346438407897949,0.01811566948890686
1761370094311483400,8.0934833984375,0.011888504028320312,0.002848207950592041,0.016067951917648315
1761370094330093800,8.11209375,0.00002384185791015625,0.0019240379333496094,-0.0035093724727630615
1761370094348706000,8.1307060546875,-0.0044651031494140625,0.004263162612915039,-0.0004925131797790527
1761370094367316500,8.14931640625,-0.004258155822753906,0.009888172149658203,-0.013325631618499756
1761370094385928400,8.167928466796875,0.012213706970214844,0.010597407817840576,0.000617295503616333
1761370094404539000,8.186538818359375,0.037567138671875,0.012196123600006104,-0.008153676986694336
1761370094423151000,8.205151123046875,0.06194877624511719,0.007712244987487793,-0.028441518545150757
1761370094441761500,8.223761474609375,-0.00092315673828125,-0.0075797438621521,0.0023328065872192383
1761370094460373500,8.24237353515625,-0.04516124725341797,-0.0015311241149902344,0.04699411988258362
1761370094478984000,8.26098388671875,-0.0062274932861328125,-0.007100462913513184,0.04090830683708191
1761370094497596200,8.27959619140625,-0.0037555694580078125,-0.025869309902191162,0.011622965335845947
1761370094516206600,8.29820654296875,-0.012973785400390625,-0.014485180377960205,0.008128732442855835
1761370094534818600,8.316818603515625,-0.010129928588867188,-0.01910346746444702,0.000574946403503418
1761370094553429000,8.335428955078125,0.016008377075195312,-0.013550877571105957,0.009803473949432373
1761370094572041200,8.354041259765625,0.02031230926513672,-0.010937511920928955,0.021770626306533813
1761370094590651600,8.372651611328125,-0.00600433349609375,0.007499277591705322,0.0010080933570861816
1761370094609263600,8.391263671875,-0.008156776428222656,0.022592663764953613,0.011619478464126587
1761370094627874000,8.4098740234375,0.010706901550292969,0.002205371856689453,-0.004474550485610962
1761370094646486300,8.428486328125,0.024382591247558594,0.013167798519134521,-0.03427007794380188
1761370094665096700,8.4470966796875,-0.018584251403808594,0.01829230785369873,0.006221979856491089
1761370094683708700,8.465708740234374,-0.03421592712402344,0.010202109813690186,0.039768069982528687
1761370094702319000,8.484319091796875,-0.012047767639160156,0.01306694746017456,0.02234676480293274
1761370094720931300,8.502931396484374,0.042044639587402344,0.004298567771911621,-0.005857229232788086
1761370094739541800,8.521541748046875,0.04521369934082031,-0.012139856815338135,-0.029141515493392944
1761370094758153700,8.54015380859375,-0.0054073333740234375,0.0017575621604919434,0.0053282082080841064
1761370094776764200,8.55876416015625,-0.035401344299316406,0.021848857402801514,0.058315664529800415
1761370094795376400,8.57737646484375,-0.03202629089355469,0.026827692985534668,0.05569803714752197
1761370094813986800,8.59598681640625,-0.014446258544921875,0.013830065727233887,0.02007874846458435
1761370094832598800,8.614598876953124,0.014234542846679688,-0.020776033401489258,-0.01270952820777893
1761370094851209200,8.633209228515625,0.021004676818847656,-0.00919640064239502,-0.007022768259048462
1761370094869821200,8.6518212890625,0.010939598083496094,-0.00371551513671875,0.0075081586837768555
1761370094888431900,8.670431884765625,0.005831718444824219,-0.000276029109954834,0.010051995515823364
1761370094907043800,8.6890439453125,0.007852554321289062,-0.011838793754577637,-0.014977574348449707
1761370094925654300,8.707654296875,0.007480621337890625,-0.019226372241973877,-0.028107047080993652
1761370094944266200,8.726266357421874,-0.02071380615234375,-0.00958472490310669,-0.024812698364257812
1761370094962877000,8.744876953125,-0.027109146118164062,-0.0020322203636169434,0.02045053243637085
1761370094981489000,8.763489013671874,0.011126518249511719,0.021245121955871582,0.03542757034301758
1761370095000099300,8.782099365234375,0.029367446899414062,0.010046601295471191,0.01864844560623169
1761370095018711300,8.800711181640626,0.04481697082519531,0.010496437549591064,-0.014813810586929321
1761370095037321700,8.81932177734375,0.01974964141845703,-0.009719669818878174,-0.0012697279453277588
1761370095055934000,8.837933837890626,-0.050846099853515625,-0.004397332668304443,0.04193422198295593
1761370095074544400,8.85654443359375,-0.023508071899414062,0.012597382068634033,0.018093854188919067
1761370095093156400,8.87515625,0.04013633728027344,0.015106678009033203,-0.04233461618423462
1761370095111766800,8.893766845703125,0.05493736267089844,0.006495952606201172,-0.03554642200469971
1761370095130379000,8.91237890625,-0.014901161193847656,0.002050459384918213,0.04910111427307129
1761370095148989400,8.930989501953125,-0.06348609924316406,-0.0020059943199157715,0.06683437526226044
1761370095167601400,8.949601318359376,-0.028789520263671875,-0.005309045314788818,0.04766605794429779
1761370095186211800,8.9682119140625,0.0026311874389648438,-0.0005905628204345703,0.03134532272815704
1761370095204823800,8.98682373046875,-0.004239082336425781,-0.0029956698417663574,0.03409218788146973
1761370095223434500,9.0054345703125,-0.03423786163330078,0.007750272750854492,0.029593229293823242
1761370095242046500,9.02404638671875,0.008990287780761719,0.01387089490890503,-0.00623708963394165
1761370095260657000,9.042656982421875,0.03660774230957031,0.02311772108078003,-0.023205339908599854
1761370095279268900,9.061268798828126,0.0026378631591796875,0.012251615524291992,-0.03125086426734924
1761370095297879600,9.079879638671875,0.0003948211669921875,0.004274964332580566,-0.021140336990356445
1761370095316491500,9.098491455078126,0.0028600692749023438,0.007073044776916504,0.001691579818725586
1761370095335102000,9.11710205078125,0.016798973083496094,0.006220400333404541,-0.0008649826049804688
1761370095353714000,9.1357138671875,0.03717327117919922,0.004488587379455566,0.010249048471450806
1761370095372324600,9.15432470703125,0.021645545959472656,-0.005441129207611084,-0.0029393136501312256
1761370095390936600,9.1729365234375,-0.016582489013671875,-0.015604019165039062,-0.008491218090057373
1761370095409547000,9.191547119140624,-0.04879474639892578,-0.017738163471221924,0.02313855290412903
1761370095428159000,9.210158935546875,-0.033046722412109375,-0.028129279613494873,0.047622740268707275
1761370095446769400,9.228769287109374,0.007863044738769531,-0.019807279109954834,0.024084538221359253
1761370095465381600,9.247381591796875,0.026434898376464844,-0.014586091041564941,0.005604416131973267
1761370095483992000,9.265991943359374,-0.006877899169921875,-0.008563339710235596,-0.004202455282211304
1761370095502604000,9.28460400390625,-0.0205078125,-0.006101846694946289,-0.017738431692123413
1761370095521214500,9.30321435546875,-0.008062362670898438,-0.0035182833671569824,-0.004938751459121704
1761370095539826400,9.321826416015625,0.04575634002685547,0.01077800989151001,-0.006851226091384888
1761370095558437000,9.34043701171875,0.05334949493408203,0.0157470703125,-0.0017610490322113037
1761370095577049000,9.359049072265625,-0.009249687194824219,0.014542162418365479,0.0213128924369812
1761370095595659500,9.377659423828124,-0.01819610595703125,0.010564684867858887,0.02277722954750061
1761370095614271500,9.396271484375,0.0056018829345703125,0.011033117771148682,0.0188615620136261
1761370095632882200,9.414882080078126,-0.013283729553222656,0.005694270133972168,0.01878872513771057
1761370095651494100,9.433494140625,-0.036095619201660156,0.0028746724128723145,0.027272701263427734
1761370095670104600,9.4521044921875,-0.013883590698242188,0.007857322692871094,0.032912373542785645
1761370095688716500,9.470716552734375,0.014536857604980469,-0.0012866854667663574,0.014883249998092651
1761370095707327000,9.489326904296876,-0.009351730346679688,-0.012440681457519531,0.01281633973121643
1761370095725939200,9.507939208984375,-0.02532672882080078,-0.005983948707580566,0.017375797033309937
1761370095744549600,9.526549560546876,-0.02210235595703125,-0.010406136512756348,0.03836128115653992
1761370095763161600,9.54516162109375,0.025754928588867188,-0.012758255004882812,0.03676867485046387
1761370095781772000,9.56377197265625,0.05754280090332031,-0.007551848888397217,-0.006737262010574341
1761370095800384000,9.582384033203125,0.03932380676269531,0.007673084735870361,-0.03446921706199646
1761370095818994700,9.60099462890625,-0.015993118286132812,-0.0024170279502868652,-0.03395184874534607
1761370095837606700,9.619606689453125,-0.06460094451904297,0.010640084743499756,-0.009713023900985718
1761370095856217000,9.638217041015626,-0.025125503540039062,0.028189480304718018,0.03174954652786255
1761370095874829000,9.6568291015625,0.04101753234863281,-0.0012461543083190918,0.05102056264877319
1761370095893439500,9.675439453125,0.03716564178466797,-0.009916424751281738,0.029919832944869995
1761370095912051700,9.6940517578125,-0.01280975341796875,0.0019035935401916504,0.018449097871780396
1761370095930662100,9.712662109375,-0.037921905517578125,0.03395414352416992,-0.005505800247192383
1761370095949274000,9.731274169921875,-0.043328285217285156,0.042425453662872314,-0.00814548134803772
1761370095967884500,9.749884521484375,-0.0183258056640625,-0.04065746068954468,0.017695963382720947
1761370095986496500,9.76849658203125,0.09684467315673828,-0.20303010940551758,0.16926366090774536
1761370096005107200,9.787107177734375,0.11214923858642578,-0.061815738677978516,-0.03776514530181885
1761370096023719200,9.80571923828125,-0.001476287841796875,0.15537559986114502,-0.1825096607208252
1761370096042329600,9.82432958984375,-0.07862186431884766,0.08596038818359375,0.04077911376953125
1761370096060941600,9.842941650390625,-0.07767486572265625,0.005610287189483643,0.026947081089019775
1761370096079552000,9.861552001953125,0.09056949615478516,-0.04636180400848389,0.05899396538734436
1761370096098164200,9.880164306640625,0.1082315444946289,-0.04960799217224121,-0.005463391542434692
1761370096116774700,9.898774658203125,-0.07521820068359375,-0.011460721492767334,0.0056035518646240234
1761370096135386600,9.91738671875,-0.14954280853271484,0.017212331295013428,0.04379454255104065
1761370096153997000,9.9359970703125,-0.04852485656738281,0.023012995719909668,0.0540350079536438
1761370096172609000,9.954609130859374,0.037346839904785156,0.03746229410171509,0.022676974534988403
1761370096191219700,9.9732197265625,0.02254962921142578,0.050937533378601074,-0.022698402404785156
1761370096209831700,9.991831787109374,-0.00119781494140625,0.04825383424758911,-0.02061295509338379
1761370096228442000,10.010442138671875,0.05006694793701172,-0.00014764070510864258,-0.03552207350730896
1761370096247054000,10.02905419921875,0.03161907196044922,-0.0326075553894043,-0.06162607669830322
1761370096265664800,10.047664794921875,-0.03724193572998047,-0.05380690097808838,-0.038659512996673584
1761370096284276700,10.06627685546875,-0.07576370239257812,-0.04274851083755493,0.006087362766265869
1761370096302887200,10.08488720703125,-0.031110763549804688,-0.007089972496032715,0.009135931730270386
1761370096321499100,10.1034990234375,0.04478645324707031,-0.026910603046417236,0.032992422580718994
1761370096340109600,10.122109619140625,0.045433998107910156,-0.06646323204040527,0.020106643438339233
1761370096358721500,10.140721435546874,0.004286766052246094,-0.009835302829742432,0.01780983805656433
1761370096377332200,10.159332275390625,-0.004998207092285156,0.027928709983825684,0.03128546476364136
1761370096395944200,10.177944091796874,-0.039684295654296875,0.03613966703414917,0.07948100566864014
1761370096414554600,10.1965546875,-0.035683631896972656,0.06118077039718628,-0.022673696279525757
1761370096433166600,10.21516650390625,0.023855209350585938,0.10530930757522583,-0.0768781304359436
1761370096451777000,10.233777099609375,0.06005859375,0.0928841233253479,-0.04060426354408264
1761370096470389200,10.25238916015625,-0.0026979446411132812,0.04124969244003296,-0.00753408670425415
1761370096488999700,10.270999755859375,-0.0795583724975586,-0.05316382646560669,0.03456234931945801
1761370096507611600,10.289611572265626,-0.044277191162109375,-0.14330631494522095,0.0875934362411499
1761370096526222000,10.30822216796875,0.10383415222167969,-0.01089775562286377,-0.036359429359436035
1761370096544834000,10.326833984375,-0.00069427490234375,0.10517138242721558,-0.11551889777183533
1761370096563444700,10.34544482421875,-0.10523128509521484,-0.001954317092895508,-0.004493087530136108
1761370096582056700,10.364056640625,-0.034150123596191406,-0.09786868095397949,0.10614898800849915
1761370096600667100,10.382667236328125,0.0017757415771484375,-0.06038987636566162,0.09453782439231873
1761370096619279000,10.401279052734376,0.027421951293945312,-0.019109070301055908,0.02637195587158203
1761370096637889500,10.4198896484375,0.02664947509765625,0.012881875038146973,-0.01813220977783203
1761370096656501800,10.438501708984376,-0.004679679870605469,0.00090789794921875,-0.005386233329772949
1761370096675112200,10.4571123046875,-0.04229545593261719,-0.001981019973754883,0.036997199058532715
1761370096693724200,10.47572412109375,-0.0152587890625,-0.010489165782928467,0.07288303971290588
1761370096712334600,10.49433447265625,0.029595375061035156,-0.0020714402198791504,0.019086331129074097
1761370096740251600,10.522251708984374,-0.018442153930664062,0.021812140941619873,-0.004490017890930176
1761370096758863600,10.540863525390625,-0.02956104278564453,-0.009811878204345703,0.04492884874343872
1761370096777474000,10.55947412109375,-0.019499778747558594,-0.015053331851959229,0.062392547726631165
1761370096796086000,10.5780859375,0.004549980163574219,0.01921290159225464,0.0347801148891449
1761370096814696400,10.596696533203126,0.02083587646484375,0.0066228508949279785,-0.0106315016746521
1761370096833308700,10.61530859375,-0.028717041015625,0.003373861312866211,-0.007399469614028931
1761370096851919000,10.633919189453126,-0.05321693420410156,0.009875893592834473,0.0412883460521698
1761370096870531000,10.652531005859375,-0.013915061950683594,0.021004438400268555,0.04020640254020691
1761370096889141500,10.6711416015625,0.045185089111328125,0.013389408588409424,-0.012355268001556396
1761370096907753700,10.689753662109375,0.041298866271972656,-0.009401559829711914,-0.040113210678100586
1761370096926364000,10.708364013671876,0.009449005126953125,0.0008791685104370117,-0.023708581924438477
1761370096944976100,10.72697607421875,-0.03540611267089844,0.014080822467803955,-0.02586647868156433
1761370096963586600,10.745586669921876,-0.04060077667236328,0.04795867204666138,0.009567707777023315
1761370096982198500,10.764198486328125,-0.0330657958984375,0.059927284717559814,0.042338043451309204
1761370097000809000,10.78280908203125,-0.1711874008178711,-0.08850264549255371,0.05246022343635559
1761370097019421200,10.801421142578125,0.08248233795166016,-0.20794153213500977,-0.04227501153945923
1761370097038031600,10.820031494140625,0.2235860824584961,-0.05419653654098511,-0.04734429717063904
1761370097056643600,10.8386435546875,0.14925289154052734,0.09630030393600464,-0.1729356348514557
1761370097075254000,10.85725390625,-0.09171867370605469,0.15462344884872437,-0.07956495881080627
1761370097093866200,10.8758662109375,-0.20233440399169922,0.1209527850151062,0.07578366994857788
