time,seconds_elapsed,z,y,x
1761371264798460000,0.2184599609375,0.007941014133393764,-0.08483141660690308,0.021303297951817513
1761371264807979300,0.227979248046875,0.006108472589403391,-0.1477486789226532,0.0023670331574976444
1761371264817497300,0.237497314453125,0.0036650835536420345,-0.16301986575126648,-0.012369656935334206
1761371264827014100,0.24701416015625,0.012216945178806782,-0.11537377536296844,-0.00992626789957285
1761371264836529700,0.25652978515625,0.02076880633831024,-0.03779617324471474,0.004199574701488018
1761371264846044200,0.266044189453125,0.02748812735080719,0.03367295488715172,0.029855160042643547
1761371264855557400,0.275557373046875,0.02993151545524597,0.0758214145898819,0.044515494257211685
1761371264865069600,0.285069580078125,0.034818295389413834,0.07398887723684311,0.022524992004036903
1761371264874580700,0.294580810546875,0.04153761267662048,0.028786176815629005,-0.024586603045463562
1761371264884091100,0.304091064453125,0.04214845970273018,-0.03962871432304382,-0.06368082761764526
1761371264893600500,0.3136005859375,0.03787253051996231,-0.09765920788049698,-0.07956285774707794
1761371264903109000,0.323109130859375,0.03298575058579445,-0.12026055157184601,-0.06978929787874222
1761371264912616700,0.33261669921875,0.02870982140302658,-0.10498937219381332,-0.0459662564098835
1761371264922123800,0.342123779296875,0.023823043331503868,-0.06467345356941223,-0.01725643500685692
1761371264931629800,0.3516298828125,0.01832541823387146,-0.013362283818423748,0.00786465872079134
1761371264941135400,0.36113525390625,0.010995250195264816,0.03978142887353897,0.024968381971120834
1761371264950640000,0.37064013671875,0.0024433890357613564,0.08376242965459824,0.03290939703583717
1761371264960144400,0.380144287109375,-0.004886778071522713,0.10941801220178604,0.031076854094862938
1761371264969648000,0.389648193359375,-0.004886778071522713,0.10880716890096664,0.021303297951817513
1761371264979151000,0.399151123046875,-0.0018325417768210173,0.08376242965459824,0.009697199799120426
1761371264988653800,0.40865380859375,0.0024433890357613564,0.03978142887353897,-0.0050394898280501366
1761371264998155800,0.41815576171875,0.0006108472589403391,-0.015194825828075409,-0.020310672000050545
1761371265007657500,0.427657470703125,-0.006719320081174374,-0.07139277458190918,-0.03374931216239929
1761371265017158700,0.43715869140625,-0.01954711228609085,-0.10315682739019394,-0.04046862944960594
1761371265026659300,0.446659423828125,-0.036039989441633224,-0.09704835712909698,-0.04169032722711563
1761371265036159500,0.456159423828125,-0.05008947476744652,-0.05734328553080559,-0.037414394319057465
1761371265055159000,0.475158935546875,-0.046424392610788345,0.06665870547294617,-0.017867282032966614
1761371265074157000,0.494156982421875,-0.031153209507465363,0.14790138602256775,-0.00015271181473508477
1761371265093153800,0.51315380859375,-0.045202698558568954,0.14729054272174835,0.017027366906404495
1761371265112083200,0.532083251953125,-0.006108472589403391,0.07643226534128189,0.052456509321928024
1761371265130694100,0.550694091796875,0.034818295389413834,-0.03901786729693413,0.05306735634803772
1761371265149306600,0.569306640625,0.04092676565051079,-0.10926530510187149,-0.008704573847353458
1761371265167917800,0.587917724609375,0.005497625097632408,-0.07627955079078674,-0.055739812552928925
1761371265186530300,0.6065302734375,-0.007941014133393764,0.03855973482131958,-0.027029991149902344
1761371265205141200,0.625141357421875,-0.03237490355968475,0.13446275889873505,-0.013591351918876171
1761371265223753700,0.643753662109375,-0.06047387793660164,0.14545799791812897,-0.0325276181101799
1761371265242365000,0.662364990234375,-0.07574506103992462,0.09659022092819214,-0.04413371533155441
1761371265260977400,0.680977294921875,-0.05803048983216286,0.04161396995186806,-0.03008422814309597
1761371265279588400,0.69958837890625,-0.016492875292897224,0.011071606539189816,-0.005650337319821119
1761371265298200800,0.718200927734375,0.012216945178806782,0.005573981441557407,0.0017561858985573053
1761371265316812000,0.73681201171875,0.02504473738372326,0.0031305921729654074,-0.009315420873463154
1761371265335424500,0.755424560546875,0.0006108472589403391,0.011071606539189816,-0.021532366052269936
1761371265354035500,0.774035400390625,-0.03237490355968475,0.02023431472480297,-0.025808297097682953
1761371265372648200,0.792648193359375,-0.038483377546072006,0.01046075951308012,-0.023364907130599022
1761371265391259100,0.811259033203125,-0.004886778071522713,-0.013973130844533443,0.0005344913806766272
1761371265409871600,0.82987158203125,0.023212196305394173,-0.043293800204992294,0.022524992004036903
1761371265428482800,0.84848291015625,0.025655584409832954,-0.07689040154218674,0.011529741808772087
1761371265447095300,0.86709521484375,0.012216945178806782,-0.10010259598493576,-0.027029991149902344
1761371265465706200,0.885706298828125,-0.011606098152697086,-0.08605311065912247,-0.04474456235766411
1761371265484318700,0.904318603515625,-0.04031591862440109,-0.03779617324471474,-0.019088976085186005
1761371265502930000,0.922929931640625,-0.0659715011715889,0.023899398744106293,0.022524992004036903
1761371265521542400,0.94154248046875,-0.08612946420907974,0.07032378762960434,0.03779617324471474
1761371265540153300,0.9601533203125,-0.08246438205242157,0.07826480269432068,0.015805672854185104
1761371265558766000,0.97876611328125,-0.054365407675504684,0.03061871975660324,-0.014813045971095562
1761371265577377000,0.997376953125,-0.023823043331503868,-0.04634803533554077,-0.020310672000050545
1761371265595989500,1.015989501953125,-0.0018325417768210173,-0.10132429003715515,-0.00015271181473508477
1761371265614600400,1.034600341796875,0.0018325417768210173,-0.09643751382827759,0.017027366906404495
1761371265633213200,1.053213134765625,-0.0018325417768210173,-0.036574479192495346,0.0164165198802948
1761371265651824000,1.07182421875,0.0018325417768210173,0.0293970238417387,0.0029778804164379835
1761371265670436900,1.090436767578125,0.012216945178806782,0.055052608251571655,-0.008093725889921188
1761371265689047800,1.1090478515625,0.02504473738372326,0.03306210786104202,-0.006261184345930815
1761371265707660300,1.127660400390625,0.029320668429136276,-0.006642963737249374,-0.00015271181473508477
1761371265726271200,1.146271240234375,0.023823043331503868,-0.03718532621860504,-0.004428642801940441
1761371265744884000,1.164884033203125,0.018936265259981155,-0.044515494257211685,-0.014813045971095562
1761371265763495000,1.183494873046875,0.00916270911693573,-0.027411770075559616,-0.01725643500685692
1761371265782107400,1.202107421875,-0.006108472589403391,0.0037414394319057465,-0.0050394898280501366
1761371265800718600,1.220718505859375,-0.017714571207761765,0.03489464893937111,0.008475505746901035
1761371265819331000,1.2393310546875,-0.014660334214568138,0.04161396995186806,0.006642963737249374
1761371265837942000,1.25794189453125,-0.012216945178806782,0.015958385542035103,-0.0038177953101694584
1761371265856554800,1.2765546875,-0.01954711228609085,-0.031076854094862938,-0.012980503961443901
1761371265875165700,1.295165771484375,-0.02748812735080719,-0.061619218438863754,-0.008704573847353458
1761371265893778200,1.313778076171875,-0.036039989441633224,-0.04756972938776016,0.005421269219368696
1761371265912389000,1.33238916015625,-0.04031591862440109,0.0019088976550847292,0.01763821393251419
1761371265931001900,1.351001953125,-0.03665083646774292,0.04650074616074562,0.014583977870643139
1761371265949612800,1.36961279296875,-0.026877280324697495,0.048333290964365005,-0.001985253533348441
1761371265968225500,1.3882255859375,-0.012827792204916477,0.000687203137204051,-0.012980503961443901
1761371265986836500,1.40683642578125,-0.0006108472589403391,-0.05306735634803772,-0.008704573847353458
1761371266005449000,1.425448974609375,0.00916270911693573,-0.06406260281801224,-0.0007635590736754239
1761371266024060000,1.444059814453125,0.015271181240677834,-0.029855160042643547,0.004810422193259001
1761371266042672600,1.462672607421875,0.013438640162348747,0.015347537584602833,0.0035887276753783226
1761371266061283600,1.48128369140625,0.007941014133393764,0.0361163429915905,-0.001985253533348441
1761371266079896000,1.49989599609375,0.0024433890357613564,0.025121092796325684,-0.0050394898280501366
1761371266098507300,1.51850732421875,0,-0.0035887276753783226,-0.0038177953101694584
1761371266117119700,1.53711962890625,0.0006108472589403391,-0.024968381971120834,0.0005344913806766272
1761371266135730700,1.555730712890625,-0.0030542362947016954,-0.024968381971120834,0.006032116711139679
1761371266154343400,1.574343505859375,-0.009773556143045425,-0.008475505746901035,0.00786465872079134
1761371266172954400,1.592954345703125,-0.015271181240677834,0.007406522985547781,0.0029778804164379835
1761371266191566800,1.61156689453125,-0.022601349279284477,0.009239064529538155,-0.008704573847353458
1761371266210177800,1.630177734375,-0.028098974376916885,-0.004810422193259001,-0.012980503961443901
1761371266228790500,1.64879052734375,-0.026877280324697495,-0.020692450925707817,-0.0050394898280501366
1761371266247401500,1.6674013671875,-0.023212196305394173,-0.02435753494501114,0.004199574701488018
1761371266266014000,1.686013916015625,-0.017714571207761765,-0.013362283818423748,0.004199574701488018
1761371266284625200,1.704625244140625,-0.012827792204916477,0.00007635590736754239,0.0017561858985573053
1761371266303237600,1.723237548828125,-0.007941014133393764,0.0025197449140250683,-0.001374406274408102
1761371266321848600,1.7418486328125,0.0006108472589403391,-0.006642963737249374,-0.0050394898280501366
1761371266340461300,1.76046142578125,0.010995250195264816,-0.022524992004036903,-0.001985253533348441
1761371266359072300,1.779072265625,0.01588202826678753,-0.036574479192495346,-0.0007635590736754239
1761371266377684700,1.797684814453125,0.018936265259981155,-0.0426829531788826,-0.004428642801940441
1761371266396296000,1.8162958984375,0.014049487188458443,-0.03718532621860504,-0.008704573847353458
1761371266414908400,1.834908447265625,0.006719320081174374,-0.019470756873488426,-0.010537114925682545
1761371266433519400,1.853519287109375,-0.0006108472589403391,0.0031305921729654074,-0.00015271181473508477
1761371266452132000,1.872132080078125,-0.006719320081174374,0.019623467698693275,0.014583977870643139
1761371266470743000,1.890742919921875,-0.012216945178806782,0.022066857665777206,0.01763821393251419
1761371266489355500,1.90935546875,-0.012216945178806782,0.0165692325681448,0.007253811229020357
1761371266507966500,1.927966552734375,-0.009773556143045425,0.000687203137204051,-0.006261184345930815
1761371266526579200,1.9465791015625,-0.006108472589403391,-0.011529741808772087,-0.006261184345930815
1761371266545190100,1.965190185546875,-0.006108472589403391,-0.015194825828075409,0.0029778804164379835
1761371266563803000,1.983802978515625,-0.006108472589403391,-0.007253811229020357,0.009697199799120426
1761371266582413800,2.002413818359375,-0.0036650835536420345,0.0031305921729654074,0.012751436792314053
1761371266601026300,2.0210263671875,-0.0030542362947016954,0.0037414394319057465,0.00908635277301073
1761371266619637200,2.03963720703125,-0.0012216945178806782,-0.006642963737249374,0.0029778804164379835
1761371266638250000,2.05825,-0.0036650835536420345,-0.019470756873488426,-0.0038177953101694584
1761371266656861000,2.07686083984375,-0.008551862090826035,-0.02008160389959812,-0.00259610079228878
1761371266675473700,2.0954736328125,-0.014660334214568138,-0.0023670331574976444,0.0005344913806766272
1761371266694084600,2.114084716796875,-0.01588202826678753,0.019623467698693275,0.0035887276753783226
1761371266712697000,2.132697021484375,-0.014660334214568138,0.031229566782712936,0.004199574701488018
1761371266731308000,2.15130810546875,-0.010995250195264816,0.027564482763409615,0.0023670331574976444
1761371266749920800,2.169920654296875,-0.006108472589403391,0.014736690558493137,-0.00259610079228878
1761371266768531700,2.18853173828125,-0.0012216945178806782,-0.0005344913806766272,-0.0068720318377017975
1761371266787144200,2.207144287109375,0.0006108472589403391,-0.005421269219368696,-0.0068720318377017975
1761371266805755100,2.225755126953125,-0.0036650835536420345,-0.0011453386396169662,-0.001985253533348441
1761371266824367900,2.244367919921875,-0.006719320081174374,0.004963133949786425,0.0017561858985573053
1761371266842978800,2.262978759765625,-0.004275931045413017,0.00862821750342846,-0.0007635590736754239
1761371266861591600,2.281591552734375,-0.0024433890357613564,0.007406522985547781,-0.004428642801940441
1761371266880202500,2.300202392578125,-0.0036650835536420345,0.00129805039614439,-0.006261184345930815
1761371266898815000,2.31881494140625,-0.006719320081174374,-0.007253811229020357,-0.00259610079228878
1761371266917426000,2.337426025390625,-0.004275931045413017,-0.006642963737249374,0.0035887276753783226
1761371266936038700,2.35603857421875,-0.0036650835536420345,-0.0005344913806766272,0.008475505746901035
1761371266954649600,2.374649658203125,-0.007941014133393764,-0.0011453386396169662,0.006642963737249374
1761371266973262000,2.393261962890625,-0.007330167107284069,-0.007253811229020357,-0.0050394898280501366
1761371266991873300,2.411873291015625,-0.0018325417768210173,-0.014583977870643139,-0.011147962883114815
1761371267010485800,2.43048583984375,-0.0012216945178806782,-0.018249060958623886,-0.001374406274408102
1761371267029096700,2.4490966796875,-0.0018325417768210173,-0.010308047756552696,0.011529741808772087
1761371267047709400,2.46770947265625,0.0018325417768210173,0.007406522985547781,0.021303297951817513
1761371267066320400,2.4863203125,0.013438640162348747,0.009849912486970425,0.01763821393251419
1761371267084932900,2.504932861328125,0.01588202826678753,-0.02008160389959812,-0.004428642801940441
1761371267103544000,2.5235439453125,0.010995250195264816,-0.04818057641386986,-0.013591351918876171
1761371267122156500,2.542156494140625,0.00916270911693573,-0.03901786729693413,0.0011453386396169662
1761371267140767500,2.560767578125,0.010995250195264816,-0.006032116711139679,0.021303297951817513
1761371267159380200,2.579380126953125,0.012827792204916477,0.022677704691886902,0.03290939703583717
1761371267177991200,2.5979912109375,0.023212196305394173,0.030007870867848396,0.021914144977927208
1761371267196603600,2.616603759765625,0.02870982140302658,0.009849912486970425,-0.0068720318377017975
1761371267215214600,2.635214599609375,0.014660334214568138,-0.0023670331574976444,-0.009315420873463154
1761371267233827300,2.653827392578125,0.0024433890357613564,0.009239064529538155,0.010918894782662392
1761371267252438300,2.672438232421875,-0.0036650835536420345,0.025731941685080528,0.0164165198802948
1761371267271051000,2.691051025390625,-0.0018325417768210173,0.018401773646473885,0.009697199799120426
1761371267289662000,2.709661865234375,-0.0006108472589403391,-0.015194825828075409,0.0011453386396169662
1761371267308274400,2.7282744140625,0.0024433890357613564,-0.03474193811416626,0.0011453386396169662
1761371267326885400,2.746885498046875,0.005497625097632408,-0.018249060958623886,-0.0007635590736754239
1761371267345498000,2.765498046875,0.007941014133393764,0.012904148548841476,-0.007482878863811493
1761371267364109000,2.784109130859375,0.01038440316915512,0.03245126083493233,-0.007482878863811493
1761371267382721800,2.8027216796875,0.013438640162348747,0.0165692325681448,0.0011453386396169662
1761371267401332700,2.821332763671875,0.01954711228609085,-0.013973130844533443,0.0017561858985573053
1761371267419945200,2.8399453125,0.023212196305394173,-0.024968381971120834,-0.0032069480512291193
1761371267438556200,2.85855615234375,0.021379653364419937,-0.013973130844533443,-0.00259610079228878
1761371267457169000,2.8771689453125,0.009773556143045425,0.00007635590736754239,0.0011453386396169662
1761371267475779800,2.89577978515625,-0.007941014133393764,0.0019088976550847292,0.0023670331574976444
1761371267494392300,2.914392333984375,-0.01588202826678753,-0.0017561858985573053,-0.001985253533348441
1761371267513003300,2.933003173828125,-0.021990500390529633,-0.0017561858985573053,-0.0068720318377017975
1761371267531616000,2.951615966796875,-0.023823043331503868,0.009239064529538155,-0.001374406274408102
1761371267550227000,2.97022705078125,-0.022601349279284477,0.004963133949786425,-0.001985253533348441
1761371267568839700,2.988839599609375,-0.021990500390529633,-0.0011453386396169662,0.0005344913806766272
1761371267587450600,3.00745068359375,-0.018936265259981155,0.01046075951308012,0.007253811229020357
1761371267606063000,3.02606298828125,-0.009773556143045425,0.02023431472480297,0.005421269219368696
1761371267624674000,3.044674072265625,0,0.00862821750342846,-0.00259610079228878
1761371267643286800,3.063286865234375,0.004886778071522713,-0.014583977870643139,-0.008093725889921188
1761371267661897700,3.081897705078125,0.00916270911693573,-0.023746687918901443,-0.010537114925682545
1761371267680510200,3.10051025390625,0.006108472589403391,-0.009697199799120426,-0.005650337319821119
1761371267699121400,3.119121337890625,-0.0030542362947016954,0.017180079594254494,0.0017561858985573053
1761371267717734000,3.13773388671875,-0.007330167107284069,0.037948887795209885,0.008475505746901035
1761371267736344800,3.1563447265625,-0.009773556143045425,0.040392275899648666,0.00908635277301073
1761371267754957600,3.17495751953125,-0.0030542362947016954,0.025121092796325684,0.0029778804164379835
1761371267773568500,3.193568603515625,0,0.0025197449140250683,0.0035887276753783226
1761371267792181000,3.212180908203125,-0.0018325417768210173,-0.013362283818423748,0.007253811229020357
1761371267810792000,3.2307919921875,-0.0024433890357613564,-0.00908635277301073,0.010308047756552696
1761371267829404700,3.24940478515625,-0.0018325417768210173,0.009239064529538155,0.008475505746901035
1761371267848015600,3.268015625,0.0024433890357613564,0.018401773646473885,-0.0050394898280501366
1761371267866628400,3.28662841796875,0.004275931045413017,0.02145601063966751,-0.005650337319821119
1761371267885239300,3.3052392578125,0.024433890357613564,0.01046075951308012,0.012751436792314053
1761371267903851800,3.323851806640625,0.015271181240677834,-0.04085041210055351,-0.0068720318377017975
1761371267922462700,3.342462646484375,0.009773556143045425,-0.06223006546497345,-0.016034740954637527
1761371267941075500,3.361075439453125,0.008551862090826035,-0.03596363216638565,-0.0038177953101694584
1761371267959686400,3.379686279296875,0.006108472589403391,0.009239064529538155,0.00786465872079134
1761371267978299100,3.398299072265625,0.007330167107284069,0.03978142887353897,0.00908635277301073
1761371267996910000,3.41691015625,0.009773556143045425,0.030007870867848396,-0.001374406274408102
1761371268015522600,3.4355224609375,0.01038440316915512,-0.009697199799120426,-0.00992626789957285
1761371268034133500,3.454133544921875,0.0024433890357613564,-0.044515494257211685,-0.01175880990922451
1761371268052746200,3.472746337890625,-0.007330167107284069,-0.03779617324471474,-0.008093725889921188
1761371268071357200,3.491357177734375,-0.011606098152697086,0.004963133949786425,-0.0007635590736754239
1761371268089969700,3.5099697265625,-0.008551862090826035,0.049554985016584396,0.00786465872079134
1761371268108580600,3.52858056640625,-0.007330167107284069,0.05810684710741043,0.009697199799120426
1761371268127193300,3.547193359375,-0.00916270911693573,0.023288551717996597,0.004810422193259001
1761371268145804300,3.56580419921875,-0.012216945178806782,-0.026190076023340225,-0.0050394898280501366
1761371268164417000,3.5844169921875,-0.009773556143045425,-0.04756972938776016,-0.009315420873463154
1761371268183028000,3.603028076171875,-0.008551862090826035,-0.031076854094862938,-0.0038177953101694584
1761371268201640400,3.621640380859375,-0.007941014133393764,0.011071606539189816,0.0029778804164379835
1761371268220251400,3.64025146484375,-0.004886778071522713,0.04527905210852623,0.004810422193259001
1761371268238864100,3.658864013671875,-0.0006108472589403391,0.047111593186855316,0.00786465872079134
1761371268257475000,3.67747509765625,0.0036650835536420345,0.008017370477318764,0.006642963737249374
1761371268276087600,3.696087646484375,0.004275931045413017,-0.03901786729693413,-0.001374406274408102
1761371268294698800,3.71469873046875,0.007330167107284069,-0.05123481526970863,-0.010537114925682545
1761371268313311200,3.733311279296875,0.00916270911693573,-0.019470756873488426,-0.0068720318377017975
1761371268331922200,3.751922119140625,0.007941014133393764,0.02695363573729992,0.0017561858985573053
1761371268350535000,3.770534912109375,0.007330167107284069,0.048333290964365005,0.00786465872079134
1761371268369145900,3.789145751953125,0.008551862090826035,0.023899398744106293,0.005421269219368696
1761371268387758300,3.80775830078125,0.006719320081174374,-0.022524992004036903,-0.0007635590736754239
1761371268406369300,3.826369384765625,0.007941014133393764,-0.05062396824359894,-0.007482878863811493
1761371268424982000,3.84498193359375,0.006108472589403391,-0.03718532621860504,-0.004428642801940441
1761371268443593000,3.863593017578125,0.004886778071522713,0.0025197449140250683,0.0029778804164379835
1761371268462205700,3.882205810546875,0.0024433890357613564,0.0361163429915905,0.006642963737249374
1761371268480816600,3.900816650390625,-0.0018325417768210173,0.036727190017700195,0.004810422193259001
1761371268499429000,3.91942919921875,-0.0036650835536420345,0.01046075951308012,0.006032116711139679
1761371268518040000,3.9380400390625,-0.006108472589403391,-0.017027366906404495,0.007253811229020357
1761371268536652800,3.95665283203125,-0.006108472589403391,-0.01885990984737873,0.004199574701488018
1761371268555263700,3.975263671875,-0.0024433890357613564,0.0019088976550847292,-0.001374406274408102
1761371268573876500,3.99387646484375,0.0030542362947016954,0.023899398744106293,-0.001985253533348441
1761371268592487400,4.0124873046875,0.007941014133393764,0.024510245770215988,0.0011453386396169662
1761371268611100000,4.031099853515625,0.004886778071522713,0.0037414394319057465,0.006032116711139679
1761371268629710800,4.0497109375,-0.0024433890357613564,-0.013973130844533443,0.005421269219368696
1761371268648323600,4.068323486328125,-0.006719320081174374,-0.013362283818423748,0.0005344913806766272
1761371268666934500,4.0869345703125,-0.0024433890357613564,0.0025197449140250683,-0.0050394898280501366
1761371268685547000,4.105547119140625,0.004886778071522713,0.018401773646473885,-0.0038177953101694584
1761371268704158000,4.124157958984375,0.007330167107284069,0.013514995574951172,0.0017561858985573053
1761371268722770700,4.142770751953125,0.010995250195264816,-0.0023670331574976444,0.005421269219368696
1761371268741381600,4.161381591796875,0.012827792204916477,-0.013362283818423748,0.0023670331574976444
1761371268759994400,4.179994384765625,0.009773556143045425,-0.015194825828075409,-0.004428642801940441
1761371268778605300,4.198605224609375,0.004886778071522713,-0.010308047756552696,-0.0068720318377017975
1761371268797217800,4.2172177734375,0.0030542362947016954,-0.0011453386396169662,-0.007482878863811493
1761371268815828700,4.235828857421875,0.006719320081174374,0.009239064529538155,-0.004428642801940441
1761371268834441500,4.25444140625,0.006719320081174374,0.014125842601060867,0.0017561858985573053
1761371268853052400,4.273052490234375,0.0030542362947016954,0.01046075951308012,0.00786465872079134
1761371268871665200,4.2916650390625,-0.0006108472589403391,-0.0029778804164379835,0.005421269219368696
1761371268890276000,4.310276123046875,-0.004275931045413017,-0.010918894782662392,-0.00259610079228878
1761371268908888600,4.328888671875,-0.006108472589403391,-0.006642963737249374,-0.005650337319821119
1761371268927499500,4.34749951171875,-0.009773556143045425,0.006184828467667103,-0.0032069480512291193
1761371268946112300,4.3661123046875,-0.014049487188458443,0.013514995574951172,0.0005344913806766272
1761371268964723200,4.38472314453125,-0.016492875292897224,0.007406522985547781,-0.00259610079228878
1761371268983335700,4.403335693359375,-0.015271181240677834,0.00007635590736754239,-0.0032069480512291193
1761371269001947000,4.42194677734375,-0.011606098152697086,-0.005421269219368696,-0.001985253533348441
1761371269020559400,4.440559326171875,-0.007941014133393764,-0.008475505746901035,-0.00259610079228878
1761371269039170300,4.45917041015625,-0.005497625097632408,-0.00908635277301073,-0.0050394898280501366
1761371269057783000,4.477782958984375,-0.0024433890357613564,-0.007253811229020357,-0.007482878863811493
1761371269076394000,4.49639404296875,-0.0006108472589403391,-0.0035887276753783226,-0.004428642801940441
1761371269095006500,4.51500634765625,0.0024433890357613564,-0.0023670331574976444,-0.001374406274408102
1761371269113617700,4.53361767578125,0.0024433890357613564,-0.0005344913806766272,-0.00015271181473508477
1761371269132230100,4.552230224609375,0.0012216945178806782,0.0019088976550847292,-0.001374406274408102
1761371269150841000,4.570841064453125,-0.0012216945178806782,-0.0011453386396169662,-0.004428642801940441
1761371269169453800,4.589453857421875,-0.0036650835536420345,-0.006642963737249374,-0.0050394898280501366
1761371269188064800,4.608064697265625,-0.0036650835536420345,-0.013973130844533443,-0.001374406274408102
1761371269206677200,4.62667724609375,-0.0030542362947016954,-0.013362283818423748,-0.0007635590736754239
1761371269225288400,4.645288330078125,-0.0030542362947016954,-0.004810422193259001,-0.001374406274408102
1761371269243901000,4.66390087890625,-0.0030542362947016954,0.004352286923676729,-0.00259610079228878
1761371269262511900,4.682511962890625,-0.0036650835536420345,0.004963133949786425,-0.0032069480512291193
1761371269281124600,4.70112451171875,-0.005497625097632408,0.000687203137204051,-0.0007635590736754239
1761371269299735600,4.719735595703125,-0.007330167107284069,0.00007635590736754239,0.0023670331574976444
1761371269318348000,4.73834814453125,-0.007941014133393764,0.005573981441557407,0.0035887276753783226
1761371269336959200,4.756959228515625,-0.008551862090826035,0.011071606539189816,-0.00015271181473508477
1761371269355571700,4.77557177734375,-0.007330167107284069,0.009239064529538155,-0.0068720318377017975
1761371269374182700,4.7941826171875,-0.0036650835536420345,0.0025197449140250683,-0.005650337319821119
1761371269392795400,4.81279541015625,0.0006108472589403391,0.00129805039614439,-0.00015271181473508477
1761371269411406300,4.83140625,0.0036650835536420345,0.0031305921729654074,0.005421269219368696
1761371269430018800,4.850018798828125,0.0012216945178806782,0.000687203137204051,0.0035887276753783226
1761371269448630000,4.868630126953125,0,-0.0029778804164379835,-0.001374406274408102
1761371269467242500,4.887242431640625,-0.0012216945178806782,0.00007635590736754239,-0.0050394898280501366
1761371269485853400,4.905853515625,-0.0018325417768210173,0.0067956759594380856,-0.001985253533348441
1761371269504466200,4.924466064453125,-0.005497625097632408,0.009239064529538155,0.0023670331574976444
1761371269523077000,4.9430771484375,-0.006719320081174374,0.0037414394319057465,0.0017561858985573053
1761371269541689900,4.96168994140625,-0.007941014133393764,-0.0017561858985573053,-0.0007635590736754239
1761371269560300800,4.98030078125,-0.007330167107284069,-0.0011453386396169662,-0.0038177953101694584
1761371269578913300,4.998913330078125,-0.004886778071522713,-0.0011453386396169662,-0.0032069480512291193
1761371269597524200,5.017524169921875,-0.0018325417768210173,-0.004810422193259001,-0.00015271181473508477
1761371269616137000,5.036136962890625,0.0030542362947016954,-0.009697199799120426,0.0005344913806766272
1761371269634748000,5.054747802734375,0.004886778071522713,-0.015194825828075409,-0.001985253533348441
1761371269653360600,5.073360595703125,0.0030542362947016954,-0.01763821393251419,-0.0050394898280501366
1761371269671971600,5.0919716796875,0.0012216945178806782,-0.010308047756552696,-0.0038177953101694584
1761371269690584000,5.110583984375,0.0012216945178806782,0.00007635590736754239,0.0029778804164379835
1761371269709195000,5.129195068359375,0.0018325417768210173,0.005573981441557407,0.004199574701488018
1761371269727807700,5.147807861328125,0.0030542362947016954,0.005573981441557407,0.0029778804164379835
1761371269746418700,5.166418701171875,0.0018325417768210173,0.0037414394319057465,0.0017561858985573053
1761371269765031400,5.185031494140625,0.0018325417768210173,0.00007635590736754239,0.0035887276753783226
1761371269783642400,5.203642333984375,-0.0006108472589403391,-0.004199574701488018,0.004199574701488018
1761371269802254800,5.2222548828125,0.0012216945178806782,-0.009697199799120426,0.0011453386396169662
1761371269820865800,5.24086572265625,0.0006108472589403391,-0.009697199799120426,-0.00259610079228878
1761371269839478500,5.259478515625,-0.0030542362947016954,-0.0035887276753783226,-0.0007635590736754239
1761371269858089500,5.27808935546875,-0.006108472589403391,0.005573981441557407,0.0035887276753783226
1761371269876702200,5.2967021484375,-0.0036650835536420345,0.012293301522731781,0.0029778804164379835
1761371269895313200,5.315313232421875,0.0030542362947016954,0.012293301522731781,0.0017561858985573053
1761371269913925600,5.333925537109375,0.008551862090826035,0.00007635590736754239,0.0017561858985573053
1761371269932536600,5.35253662109375,0.01038440316915512,-0.013973130844533443,-0.00015271181473508477
1761371269951149300,5.3711494140625,0.009773556143045425,-0.012140588834881783,-0.00015271181473508477
1761371269969760300,5.38976025390625,0.0036650835536420345,0.004352286923676729,0.0023670331574976444
1761371269988373000,5.408373046875,-0.0024433890357613564,0.017180079594254494,0.0017561858985573053
1761371270006984000,5.42698388671875,-0.004275931045413017,0.018401773646473885,0.0023670331574976444
1761371270025596400,5.445596435546875,-0.0036650835536420345,0.011682453565299511,0.0005344913806766272
1761371270044207400,5.464207275390625,-0.005497625097632408,0.0019088976550847292,0.0005344913806766272
1761371270062820000,5.482820068359375,-0.010995250195264816,-0.0035887276753783226,-0.0007635590736754239
1761371270081431000,5.50143115234375,-0.012827792204916477,-0.0029778804164379835,-0.00259610079228878
1761371270100043800,5.520043701171875,-0.009773556143045425,0.000687203137204051,-0.001374406274408102
1761371270118654700,5.53865478515625,-0.0036650835536420345,0.005573981441557407,0.0017561858985573053
1761371270137267200,5.55726708984375,0.0024433890357613564,0.007406522985547781,0.004810422193259001
1761371270155878400,5.57587841796875,0.0036650835536420345,0.000687203137204051,0.005421269219368696
1761371270174491000,5.594490966796875,0.006108472589403391,-0.007253811229020357,0.0035887276753783226
1761371270193101800,5.613101806640625,0.00916270911693573,-0.011529741808772087,-0.00259610079228878
1761371270211714600,5.631714599609375,0.01038440316915512,-0.010918894782662392,-0.009315420873463154
1761371270230325500,5.650325439453125,0.008551862090826035,-0.006032116711139679,-0.008704573847353458
1761371270248938000,5.66893798828125,0.004275931045413017,0.000687203137204051,-0.00259610079228878
1761371270267549200,5.687549072265625,-0.0006108472589403391,0.0037414394319057465,0.0011453386396169662
1761371270286161700,5.70616162109375,-0.0024433890357613564,0.004963133949786425,0.0023670331574976444
1761371270304772600,5.724772705078125,-0.0012216945178806782,0.0025197449140250683,0.0035887276753783226
1761371270323385300,5.74338525390625,-0.0012216945178806782,-0.0011453386396169662,0.0011453386396169662
1761371270341996300,5.761996337890625,-0.0012216945178806782,-0.0023670331574976444,-0.00259610079228878
1761371270360608800,5.78060888671875,-0.004275931045413017,-0.0011453386396169662,-0.00259610079228878
1761371270379220000,5.799219970703125,-0.006719320081174374,0.005573981441557407,-0.0007635590736754239
1761371270397832400,5.81783251953125,-0.006719320081174374,0.014125842601060867,0.004199574701488018
1761371270416443400,5.836443359375,-0.004886778071522713,0.012904148548841476,0.006642963737249374
1761371270435056000,5.85505615234375,-0.0030542362947016954,0.004352286923676729,0.00786465872079134
1761371270453667000,5.8736669921875,-0.0018325417768210173,-0.0005344913806766272,0.0023670331574976444
1761371270472279600,5.892279541015625,-0.0012216945178806782,-0.0029778804164379835,-0.0038177953101694584
1761371270490890800,5.910890869140625,-0.0012216945178806782,-0.0029778804164379835,-0.0038177953101694584
1761371270509503200,5.929503173828125,-0.0012216945178806782,-0.0029778804164379835,-0.0007635590736754239
1761371270528114200,5.9481142578125,0.0012216945178806782,0.00007635590736754239,0.0005344913806766272
1761371270546727000,5.966726806640625,0.0006108472589403391,0.0067956759594380856,0.0005344913806766272
1761371270565337900,5.985337890625,0.0018325417768210173,0.009849912486970425,0.0005344913806766272
1761371270583950300,6.003950439453125,0.0030542362947016954,0.0067956759594380856,0.0023670331574976444
1761371270602561300,6.022561279296875,0.0030542362947016954,-0.0017561858985573053,0.0029778804164379835
1761371270621174000,6.041174072265625,0.0018325417768210173,-0.00786465872079134,0.0011453386396169662
1761371270639785000,6.059784912109375,0.0006108472589403391,-0.00908635277301073,0.0011453386396169662
1761371270658397700,6.078397705078125,-0.0012216945178806782,-0.0035887276753783226,0.0029778804164379835
1761371270677008600,6.097008544921875,0.0036650835536420345,0.000687203137204051,0.0023670331574976444
1761371270695621000,6.11562109375,0.007330167107284069,-0.0005344913806766272,0.0005344913806766272
1761371270714232000,6.134232177734375,0.00916270911693573,-0.004810422193259001,0.0017561858985573053
1761371270732844800,6.1528447265625,0.006719320081174374,-0.008475505746901035,0.0029778804164379835
1761371270751455700,6.171455810546875,0.005497625097632408,-0.00908635277301073,0.0017561858985573053
1761371270770068500,6.190068359375,0.007330167107284069,-0.0017561858985573053,0.0011453386396169662
1761371270788679400,6.208679443359375,0.007941014133393764,0.009239064529538155,0.0023670331574976444
1761371270807292000,6.2272919921875,0.006719320081174374,0.014736690558493137,0.0029778804164379835
1761371270825902800,6.24590283203125,0.004275931045413017,0.011682453565299511,0.0017561858985573053
1761371270844515600,6.264515625,0.0018325417768210173,0.004352286923676729,-0.00015271181473508477
1761371270863126500,6.28312646484375,-0.0018325417768210173,0.0019088976550847292,0.0011453386396169662
1761371270881739300,6.3017392578125,-0.007330167107284069,0.0025197449140250683,-0.00015271181473508477
1761371270900350200,6.32035009765625,-0.00916270911693573,0.011071606539189816,-0.0007635590736754239
1761371270918962700,6.338962646484375,-0.01038440316915512,0.0165692325681448,0.0005344913806766272
1761371270937573600,6.35757373046875,-0.009773556143045425,0.011071606539189816,0.0011453386396169662
1761371270956186400,6.376186279296875,-0.006719320081174374,-0.0035887276753783226,0.0017561858985573053
1761371270974797300,6.39479736328125,-0.004886778071522713,-0.010308047756552696,0.0035887276753783226
1761371270993410000,6.41341015625,-0.0036650835536420345,-0.007253811229020357,0.004810422193259001
1761371271012021000,6.43202099609375,-0.0018325417768210173,-0.0005344913806766272,0.005421269219368696
1761371271030633500,6.450633544921875,0.0024433890357613564,0.0031305921729654074,0.0023670331574976444
1761371271049244400,6.469244384765625,0.006108472589403391,0.00129805039614439,-0.001374406274408102
1761371271067857200,6.487857177734375,0.007330167107284069,-0.0029778804164379835,-0.004428642801940441
1761371271086468000,6.506468017578125,0.007330167107284069,-0.004199574701488018,-0.00259610079228878
1761371271105080800,6.525080810546875,0.00916270911693573,-0.0011453386396169662,0.0029778804164379835
1761371271123691800,6.54369189453125,0.014660334214568138,0.0025197449140250683,0.0017561858985573053
1761371271142304300,6.56230419921875,0.01832541823387146,-0.0029778804164379835,-0.0050394898280501366
1761371271160915200,6.580915283203125,0.017714571207761765,-0.017027366906404495,-0.008704573847353458
1761371271179528000,6.59952783203125,0.017714571207761765,-0.028633465990424156,-0.010537114925682545
1761371271198139000,6.618138916015625,0.018936265259981155,-0.03168770298361778,-0.014202198944985867
1761371271216751600,6.636751708984375,0.017714571207761765,-0.027411770075559616,-0.014202198944985867
1761371271235362600,6.655362548828125,0.015271181240677834,-0.020692450925707817,-0.011147962883114815
1761371271253975000,6.67397509765625,0.006719320081174374,-0.019470756873488426,-0.009315420873463154
1761371271272586000,6.6925859375,-0.0030542362947016954,-0.021303297951817513,-0.00992626789957285
1761371271291198700,6.71119873046875,-0.01832541823387146,0.000687203137204051,0.008475505746901035
1761371271309809700,6.7298095703125,-0.02076880633831024,0.037948887795209885,0.021303297951817513
1761371271328422400,6.74842236328125,-0.017714571207761765,0.052609220147132874,0.00786465872079134
1761371271347033300,6.767033447265625,-0.007330167107284069,0.030007870867848396,-0.008093725889921188
1761371271365645800,6.785645751953125,-0.0036650835536420345,-0.0023670331574976444,-0.007482878863811493
1761371271384256800,6.8042568359375,-0.0030542362947016954,-0.012751436792314053,0.0035887276753783226
1761371271402869500,6.822869384765625,-0.004275931045413017,-0.0017561858985573053,0.010918894782662392
1761371271421480400,6.84148046875,-0.004275931045413017,0.0165692325681448,0.008475505746901035
1761371271440093200,6.86009326171875,-0.0036650835536420345,0.030007870867848396,0.0029778804164379835
1761371271458704100,6.8787041015625,-0.0018325417768210173,0.027564482763409615,0.0023670331574976444
1761371271477316600,6.897316650390625,0.0018325417768210173,0.012293301522731781,0.004810422193259001
1761371271495927600,6.915927490234375,0.007941014133393764,-0.008475505746901035,0.007253811229020357
1761371271514540300,6.934540283203125,0.008551862090826035,-0.02008160389959812,0.0035887276753783226
1761371271533151200,6.953151123046875,0.006719320081174374,-0.0164165198802948,-0.0050394898280501366
1761371271551764000,6.971763916015625,0.005497625097632408,-0.004199574701488018,-0.00992626789957285
1761371271570375000,6.990375,0.0030542362947016954,0.0025197449140250683,-0.010537114925682545
1761371271588987400,7.0089873046875,0.0018325417768210173,-0.004199574701488018,-0.007482878863811493
1761371271607598300,7.027598388671875,-0.0030542362947016954,-0.015194825828075409,-0.0068720318377017975
1761371271626211000,7.046211181640625,-0.004275931045413017,-0.011529741808772087,0.0017561858985573053
1761371271644822000,7.064822021484375,-0.004886778071522713,0.004352286923676729,0.009697199799120426
1761371271663434800,7.083434814453125,-0.0018325417768210173,0.011071606539189816,0.0017561858985573053
1761371271682045700,7.102045654296875,0.0012216945178806782,0.00862821750342846,-0.0038177953101694584
1761371271700658200,7.120658203125,0.0012216945178806782,0.000687203137204051,-0.0038177953101694584
1761371271719269000,7.13926904296875,0.0012216945178806782,-0.010308047756552696,-0.001374406274408102
1761371271737881900,7.1578818359375,-0.0018325417768210173,-0.015194825828075409,0.004199574701488018
1761371271756492800,7.176492919921875,-0.004886778071522713,-0.012140588834881783,0.0005344913806766272
1761371271775105500,7.19510546875,-0.011606098152697086,0.005573981441557407,-0.0032069480512291193
1761371271793716500,7.213716552734375,-0.01588202826678753,0.026342788711190224,-0.0032069480512291193
1761371271812329000,7.232328857421875,-0.016492875292897224,0.0361163429915905,-0.001374406274408102
1761371271830940000,7.25093994140625,-0.016492875292897224,0.023899398744106293,0.0035887276753783226
1761371271849552600,7.269552734375,-0.011606098152697086,0.0025197449140250683,0.008475505746901035
1761371271868163600,7.28816357421875,-0.004886778071522713,-0.012751436792314053,0.007253811229020357
1761371271886776000,7.306776123046875,0.0006108472589403391,-0.012140588834881783,0.0005344913806766272
1761371271905387000,7.325386962890625,0,0.00007635590736754239,-0.0068720318377017975
1761371271923999700,7.343999755859375,0.0006108472589403391,0.012293301522731781,-0.008093725889921188
1761371271942610700,7.362610595703125,-0.0006108472589403391,0.006184828467667103,-0.0032069480512291193
1761371271961223400,7.381223388671875,-0.0006108472589403391,-0.013973130844533443,0.0011453386396169662
1761371271979834400,7.39983447265625,-0.0012216945178806782,-0.02680092304944992,-0.001374406274408102
1761371271998446800,7.41844677734375,0.0024433890357613564,-0.018249060958623886,-0.0038177953101694584
1761371272017057800,7.437057861328125,0.0030542362947016954,0.0019088976550847292,-0.00259610079228878
1761371272035670500,7.45567041015625,0.0018325417768210173,0.014125842601060867,-0.001985253533348441
1761371272054281500,7.474281494140625,0.0012216945178806782,0.009849912486970425,-0.0032069480512291193
1761371272072894200,7.492894287109375,0.0012216945178806782,-0.0029778804164379835,-0.00015271181473508477
1761371272091505200,7.511505126953125,0.0030542362947016954,-0.011529741808772087,0.005421269219368696
1761371272110117600,7.53011767578125,0.004275931045413017,-0.00908635277301073,0.008475505746901035
1761371272128728600,7.548728515625,0.005497625097632408,-0.004199574701488018,0.005421269219368696
1761371272147341300,7.56734130859375,0.0030542362947016954,-0.004810422193259001,-0.0050394898280501366
1761371272165952300,7.5859521484375,0.0006108472589403391,-0.006032116711139679,-0.008704573847353458
1761371272184565000,7.60456494140625,0.0012216945178806782,-0.0011453386396169662,-0.001985253533348441
1761371272203176000,7.623176025390625,0.0024433890357613564,0.0031305921729654074,0.0029778804164379835
1761371272221788400,7.641788330078125,0.004275931045413017,0.007406522985547781,0.0035887276753783226
1761371272240399400,7.6603994140625,0.0012216945178806782,0.00862821750342846,0.0005344913806766272
1761371272259012000,7.67901220703125,-0.0036650835536420345,0.006184828467667103,-0.001985253533348441
1761371272277623000,7.697623046875,-0.004275931045413017,0.006184828467667103,-0.001374406274408102
1761371272296235500,7.716235595703125,0.0012216945178806782,0.009239064529538155,0.0005344913806766272
1761371272314846700,7.7348466796875,0.004275931045413017,0.01046075951308012,0.0023670331574976444
1761371272333459200,7.753459228515625,0.0018325417768210173,0.0067956759594380856,0.0017561858985573053
1761371272352070100,7.772070068359375,-0.0006108472589403391,0.00007635590736754239,-0.001985253533348441
1761371272370683000,7.790682861328125,-0.0006108472589403391,-0.004199574701488018,-0.0038177953101694584
1761371272389293800,7.8092939453125,-0.0024433890357613564,-0.0035887276753783226,-0.0007635590736754239
1761371272407906300,7.82790625,-0.0018325417768210173,0.000687203137204051,-0.0007635590736754239
1761371272426517500,7.846517578125,-0.0030542362947016954,0.00129805039614439,-0.00015271181473508477
1761371272445130000,7.8651298828125,-0.0024433890357613564,0.00007635590736754239,-0.0007635590736754239
1761371272463741000,7.883740966796875,-0.0024433890357613564,-0.0029778804164379835,-0.001374406274408102
1761371272482353700,7.902353759765625,-0.0024433890357613564,-0.006642963737249374,-0.0038177953101694584
1761371272500964600,7.920964599609375,-0.004275931045413017,-0.00786465872079134,-0.005650337319821119
1761371272519577000,7.9395771484375,-0.006108472589403391,-0.0023670331574976444,-0.0050394898280501366
1761371272538188000,7.95818798828125,-0.009773556143045425,0.0025197449140250683,-0.006261184345930815
1761371272556800800,7.97680078125,-0.014660334214568138,0.004963133949786425,-0.0068720318377017975
1761371272575411700,7.99541162109375,-0.020157959312200546,0.004352286923676729,-0.006261184345930815
1761371272594024400,8.0140244140625,-0.02626643143594265,0.00129805039614439,-0.011147962883114815
1761371272612635400,8.032635498046876,-0.029320668429136276,0.000687203137204051,-0.013591351918876171
1761371272631248000,8.051247802734375,-0.02993151545524597,0.008017370477318764,-0.009315420873463154
1761371272649858800,8.06985888671875,-0.024433890357613564,0.014736690558493137,-0.0007635590736754239
1761371272668471600,8.088471435546875,-0.007330167107284069,0.007406522985547781,0.004810422193259001
1761371272687082500,8.10708251953125,0.006719320081174374,-0.01885990984737873,0.005421269219368696
1761371272705695000,8.125695068359375,0.006108472589403391,-0.04390464723110199,-0.001985253533348441
1761371272724306000,8.144305908203124,-0.0036650835536420345,-0.044515494257211685,-0.011147962883114815
1761371272742918700,8.162918701171876,-0.01710372418165207,-0.013362283818423748,-0.014813045971095562
1761371272761529600,8.181529541015625,-0.01710372418165207,0.022066857665777206,-0.007482878863811493
1761371272780142300,8.200142333984376,-0.006108472589403391,0.025731941685080528,-0.0007635590736754239
1761371272798753300,8.218753173828125,0.004275931045413017,-0.0023670331574976444,0.0011453386396169662
1761371272817365800,8.23736572265625,0.011606098152697086,-0.03290939703583717,-0.0007635590736754239
1761371272835976700,8.255976806640625,0.016492875292897224,-0.03962871432304382,0.0017561858985573053
1761371272854589400,8.27458935546875,0.01832541823387146,-0.023746687918901443,0.0035887276753783226
1761371272873200400,8.293200439453125,0.01832541823387146,0.000687203137204051,-0.0007635590736754239
1761371272891812900,8.311812744140624,0.012827792204916477,0.014736690558493137,-0.004428642801940441
1761371272910424000,8.330424072265625,0.006108472589403391,0.020845163613557816,0.0011453386396169662
1761371272929036500,8.34903662109375,0.0024433890357613564,0.01046075951308012,0.0023670331574976444
1761371272947647500,8.3676474609375,0.0036650835536420345,-0.004810422193259001,-0.00259610079228878
1761371272966260200,8.38626025390625,0.0012216945178806782,-0.011529741808772087,-0.0050394898280501366
1761371272984871200,8.40487109375,-0.0030542362947016954,-0.005421269219368696,-0.001374406274408102
1761371273003483600,8.423483642578125,-0.005497625097632408,0.0067956759594380856,0.0017561858985573053
1761371273022094600,8.442094482421876,-0.01038440316915512,0.011071606539189816,-0.00015271181473508477
1761371273040707300,8.460707275390625,-0.011606098152697086,0.0067956759594380856,-0.00015271181473508477
1761371273059318300,8.479318359375,-0.012216945178806782,0.005573981441557407,0.006642963737249374
1761371273077931000,8.497930908203125,-0.011606098152697086,0.0019088976550847292,0.004199574701488018
1761371273096542000,8.5165419921875,-0.007941014133393764,-0.0023670331574976444,-0.004428642801940441
1761371273115154400,8.535154541015626,-0.006108472589403391,-0.0011453386396169662,-0.007482878863811493
1761371273133765400,8.553765380859375,-0.004886778071522713,0.005573981441557407,-0.00015271181473508477
1761371273152378000,8.572378173828126,-0.004275931045413017,0.011071606539189816,0.004199574701488018
1761371273170989000,8.590989013671875,0.0006108472589403391,0.007406522985547781,0.004199574701488018
1761371273189601500,8.6096015625,0.006719320081174374,0.00007635590736754239,0.0005344913806766272
1761371273208212500,8.62821240234375,0.009773556143045425,-0.006032116711139679,-0.0050394898280501366
1761371273226825200,8.6468251953125,0.006108472589403391,-0.00786465872079134,-0.006261184345930815
1761371273245436200,8.665436279296875,0.0012216945178806782,-0.006032116711139679,-0.0007635590736754239
1761371273264048600,8.684048583984374,-0.0012216945178806782,-0.0023670331574976444,0.004199574701488018
1761371273282659800,8.702659912109375,-0.0006108472589403391,0.005573981441557407,0.004199574701488018
1761371273301272300,8.721272216796875,0.0012216945178806782,0.011071606539189816,0.0023670331574976444
1761371273319883300,8.73988330078125,0.0024433890357613564,0.00862821750342846,0.0005344913806766272
1761371273338496000,8.75849609375,0.0006108472589403391,-0.0029778804164379835,0.0005344913806766272
1761371273357107000,8.77710693359375,-0.0030542362947016954,-0.013973130844533443,0.0035887276753783226
1761371273375719400,8.795719482421875,-0.004886778071522713,-0.013362283818423748,0.004810422193259001
1761371273394330400,8.814330322265626,-0.007941014133393764,-0.0011453386396169662,0.0023670331574976444
1761371273412943000,8.832943115234375,-0.005497625097632408,0.009239064529538155,-0.0007635590736754239
1761371273431554000,8.851553955078124,-0.0030542362947016954,0.008017370477318764,-0.00015271181473508477
1761371273450166800,8.870166748046875,0.0012216945178806782,-0.0029778804164379835,-0.0007635590736754239
1761371273468777700,8.88877783203125,-0.0024433890357613564,-0.009697199799120426,-0.00015271181473508477
1761371273487390200,8.90739013671875,-0.0024433890357613564,-0.004199574701488018,0.0005344913806766272
1761371273506001200,8.926001220703125,0.0024433890357613564,0.00862821750342846,0.0023670331574976444
1761371273524614000,8.94461376953125,0.006719320081174374,0.015347537584602833,0.0017561858985573053
1761371273543224800,8.963224853515625,0.006719320081174374,0.012293301522731781,0.0023670331574976444
1761371273561837300,8.98183740234375,0.007330167107284069,0.0037414394319057465,0.0023670331574976444
1761371273580448300,9.0004482421875,0.008551862090826035,-0.006642963737249374,-0.00015271181473508477
1761371273599061000,9.01906103515625,0.00916270911693573,-0.013973130844533443,-0.004428642801940441
1761371273617672000,9.037671875,0.009773556143045425,-0.010308047756552696,-0.00015271181473508477
1761371273636284400,9.056284423828124,0.005497625097632408,0.0019088976550847292,0.0011453386396169662
1761371273654895600,9.0748955078125,-0.0006108472589403391,0.013514995574951172,0.0029778804164379835
1761371273673508000,9.093508056640625,-0.006108472589403391,0.0067956759594380856,0.0011453386396169662
1761371273692119000,9.112119140625,-0.008551862090826035,-0.00786465872079134,0.0011453386396169662
1761371273710731800,9.130731689453125,-0.005497625097632408,-0.011529741808772087,0.0029778804164379835
1761371273729342700,9.1493427734375,-0.0006108472589403391,0.000687203137204051,0.0023670331574976444
1761371273747955200,9.167955078125,0,0.014125842601060867,-0.001985253533348441
1761371273766566100,9.186566162109376,0,0.015958385542035103,-0.0032069480512291193
1761371273785179000,9.205178955078125,-0.0012216945178806782,0.009849912486970425,0.0011453386396169662
1761371273803789800,9.223789794921874,-0.0018325417768210173,0.0019088976550847292,0.004810422193259001
1761371273822402300,9.24240234375,-0.0024433890357613564,0.00129805039614439,0.005421269219368696
1761371273841013500,9.261013427734374,-0.0012216945178806782,0.004352286923676729,-0.001374406274408102
1761371273859626000,9.2796259765625,0.0006108472589403391,0.004352286923676729,-0.006261184345930815
1761371273878237000,9.29823681640625,0.0006108472589403391,-0.0005344913806766272,-0.0068720318377017975
1761371273896849400,9.316849365234376,-0.0024433890357613564,-0.007253811229020357,0.0017561858985573053
1761371273915460600,9.335460693359375,-0.0012216945178806782,-0.00786465872079134,0.010308047756552696
1761371273934073000,9.354072998046876,0.0030542362947016954,0.00129805039614439,0.009697199799120426
1761371273952684000,9.37268408203125,0.00916270911693573,0.009239064529538155,0.0029778804164379835
1761371273971296800,9.391296875,0.009773556143045425,0.011071606539189816,0.0011453386396169662
1761371273989907700,9.40990771484375,0.010995250195264816,-0.0011453386396169662,0.007253811229020357
1761371274008520200,9.428520263671874,0.006108472589403391,-0.012751436792314053,0.013973130844533443
1761371274027131100,9.447131103515625,-0.0024433890357613564,-0.018249060958623886,-0.0038177953101694584
1761371274045743900,9.465743896484375,-0.004886778071522713,0.00129805039614439,-0.01175880990922451
1761371274064354800,9.484354736328125,-0.0030542362947016954,0.02695363573729992,-0.0032069480512291193
1761371274082967300,9.50296728515625,0.0018325417768210173,0.03061871975660324,0.004810422193259001
1761371274101578200,9.521578125,0.007941014133393764,0.007406522985547781,0.004810422193259001
1761371274120191000,9.54019091796875,0.012827792204916477,-0.023746687918901443,0.0035887276753783226
1761371274138802000,9.558802001953126,0.008551862090826035,-0.034131091088056564,-0.0007635590736754239
1761371274157414700,9.57741455078125,0.0012216945178806782,-0.013362283818423748,-0.004428642801940441
1761371274176025600,9.596025634765626,-0.004275931045413017,0.012293301522731781,-0.0038177953101694584
1761371274194638000,9.61463818359375,-0.0036650835536420345,0.024510245770215988,-0.00015271181473508477
1761371274213249000,9.6332490234375,-0.0018325417768210173,0.02023431472480297,0.0029778804164379835
1761371274231861800,9.65186181640625,-0.004275931045413017,0.0025197449140250683,0.0029778804164379835
1761371274250472700,9.67047265625,-0.007941014133393764,-0.012751436792314053,0.004199574701488018
1761371274269085200,9.689085205078126,-0.013438640162348747,-0.010918894782662392,0.0017561858985573053
1761371274287696100,9.707696044921875,-0.011606098152697086,0.004963133949786425,-0.00259610079228878
1761371274306308900,9.726308837890626,-0.009773556143045425,0.01779092662036419,-0.001985253533348441
1761371274324919800,9.744919921875,-0.0030542362947016954,0.012293301522731781,-0.001985253533348441
1761371274343532300,9.7635322265625,0,-0.004810422193259001,-0.00259610079228878
1761371274362143200,9.782143310546875,0,-0.0164165198802948,0.0011453386396169662
1761371274380756000,9.800755859375,0.0024433890357613564,-0.008475505746901035,0.0029778804164379835
1761371274399367000,9.819366943359375,0.006108472589403391,0.0067956759594380856,0.0005344913806766272
1761371274417979600,9.837979736328125,0.009773556143045425,0.014736690558493137,0.0011453386396169662
1761371274436590600,9.856590576171875,0.009773556143045425,0.005573981441557407,0.0035887276753783226
1761371274455203000,9.875203125,0.00916270911693573,-0.00786465872079134,0.004810422193259001
1761371274473814000,9.89381396484375,0.014660334214568138,-0.0164165198802948,0.0023670331574976444
1761371274492426800,9.9124267578125,0.014660334214568138,-0.0164165198802948,-0.00015271181473508477
1761371274511037700,9.93103759765625,0.012827792204916477,-0.006642963737249374,0.0029778804164379835
1761371274529650200,9.949650146484375,0.006719320081174374,0.0019088976550847292,0.0017561858985573053
1761371274548261000,9.96826123046875,0.0024433890357613564,0.004963133949786425,-0.0007635590736754239
1761371274566873900,9.986873779296875,-0.0018325417768210173,0.005573981441557407,0.0029778804164379835
1761371274585484800,10.00548486328125,0.0006108472589403391,0.0025197449140250683,0.00786465872079134
1761371274604097300,10.02409716796875,0.004275931045413017,-0.0029778804164379835,0.00786465872079134
1761371274622708200,10.042708251953124,0.004886778071522713,-0.012140588834881783,0.0017561858985573053
1761371274641321000,10.061321044921876,0.006108472589403391,-0.010918894782662392,-0.0007635590736754239
1761371274659932000,10.079931884765625,0.014049487188458443,0.0037414394319057465,0.007253811229020357
1761371274678544600,10.098544677734376,0.021379653364419937,0.012904148548841476,0.017027366906404495
1761371274697155600,10.117155517578125,0.023212196305394173,0.000687203137204051,0.02008160389959812
1761371274715768000,10.13576806640625,0.015271181240677834,0.00129805039614439,0.014583977870643139
1761371274734379000,10.15437890625,0.006719320081174374,0.007406522985547781,-0.013591351918876171
1761371274752991700,10.17299169921875,0.005497625097632408,0.014125842601060867,-0.01847812905907631
1761371274771602700,10.191602783203125,0.013438640162348747,0.030007870867848396,0.015805672854185104
1761371274790215200,10.210215087890624,0.009773556143045425,0.013514995574951172,0.019470756873488426
1761371274808826000,10.228826171875,0.009773556143045425,-0.01763821393251419,0.0029778804164379835
1761371274827438800,10.24743896484375,0.02076880633831024,-0.0231358390301466,0.004199574701488018
1761371274846049800,10.2660498046875,0.02504473738372326,-0.004810422193259001,0.013362283818423748
1761371274864662300,10.284662353515625,0.011606098152697086,0.00862821750342846,0.015194825828075409
1761371274883273200,10.303273193359376,0.00916270911693573,0.0067956759594380856,0.008475505746901035
1761371274901886000,10.321885986328125,0.01038440316915512,0.019623467698693275,0.0005344913806766272
1761371274920497000,10.340496826171876,0.0024433890357613564,0.040392275899648666,-0.012980503961443901
1761371274939109600,10.359109619140625,-0.009773556143045425,0.03061871975660324,-0.01175880990922451
1761371274957720600,10.377720458984374,-0.012216945178806782,0.015347537584602833,0.009697199799120426
1761371274976333000,10.3963330078125,-0.008551862090826035,-0.00786465872079134,0.009697199799120426
1761371274994944000,10.414944091796874,-0.010995250195264816,-0.03290939703583717,-0.0050394898280501366
1761371275013556700,10.433556640625,0.0030542362947016954,-0.03779617324471474,-0.00992626789957285
1761371275032167700,10.452167724609374,0.020157959312200546,-0.02680092304944992,-0.016645587980747223
1761371275050780200,10.4707802734375,0.033596597611904144,-0.017027366906404495,-0.01969982497394085
1761371275069391000,10.48939111328125,0.029320668429136276,0.00007635590736754239,-0.00992626789957285
1761371275088003800,10.50800390625,0.01588202826678753,0.0293970238417387,0.0023670331574976444
1761371275106614800,10.52661474609375,0.007941014133393764,0.024510245770215988,-0.012980503961443901
1761371275125227500,10.5452275390625,0.02076880633831024,-0.027411770075559616,-0.028251685202121735
1761371275143838200,10.563838134765625,0.0397050715982914,-0.05306735634803772,0.0023670331574976444
1761371275162451000,10.582450927734374,0.042759306728839874,-0.03352024406194687,0.03168770298361778
1761371275181062000,10.601061767578125,0.031153209507465363,-0.007253811229020357,0.01885990984737873
1761371275199674600,10.619674560546875,0.02993151545524597,0.0031305921729654074,-0.014202198944985867
1761371275218285600,10.63828564453125,0.023823043331503868,0.011682453565299511,-0.02214321307837963
1761371275236898000,10.65689794921875,0.020157959312200546,0.004963133949786425,-0.0050394898280501366
1761371275255509000,10.675509033203125,0.013438640162348747,-0.028633465990424156,0.006642963737249374
1761371275274121700,10.694121826171875,-0.007330167107284069,-0.04085041210055351,0.006032116711139679
1761371275292732700,10.712732666015626,-0.023823043331503868,-0.005421269219368696,0.0011453386396169662
1761371275311345200,10.73134521484375,-0.031153209507465363,0.047111593186855316,0.0023670331574976444
1761371275329956000,10.7499560546875,-0.04214845970273018,0.08070819079875946,0.00908635277301073
1761371275348568800,10.76856884765625,-0.05070032179355621,0.06726955622434616,0.012140588834881783
1761371275367179800,10.7871796875,-0.04337015375494957,0.02695363573729992,0.010918894782662392
1761371275385792800,10.805792724609375,-0.037261683493852615,0.0025197449140250683,0.011529741808772087
1761371275404403700,10.82440380859375,-0.030542362481355667,0.011071606539189816,0.008475505746901035
1761371275423016200,10.84301611328125,-0.015271181240677834,0.04100312292575836,-0.001374406274408102
1761371275441627100,10.861627197265625,0.013438640162348747,0.07826480269432068,0.00908635277301073
1761371275460240000,10.880239990234376,0.02504473738372326,0.13568444550037384,0.04023956134915352
1761371275478850800,10.898850830078125,0.006719320081174374,0.15156647562980652,0.04634803533554077
1761371275497463300,10.91746337890625,-0.004275931045413017,0.10453123599290848,0.024968381971120834
1761371275516074200,10.93607421875,0.01038440316915512,0.02695363573729992,-0.006261184345930815
1761371275534687000,10.95468701171875,0.021379653364419937,-0.1343100368976593,-0.06001574173569679
1761371275553298000,10.9732978515625,0.043981000781059265,-0.29679539799690247,-0.0844496339559555
1761371275571910400,10.991910400390625,0.06047387793660164,-0.28518930077552795,-0.04169032722711563
1761371275590521600,11.010521484375,0.045202698558568954,-0.09643751382827759,0.019470756873488426
