time,seconds_elapsed,z,y,x
1761370556855044000,0.202044189453125,-0.27521514892578125,0.3823035955429077,-0.3938770294189453
1761370556873655300,0.2206552734375,-0.1919994354248047,-0.023775935173034668,-0.6537538766860962
1761370556892268000,0.23926806640625,-0.29309844970703125,-0.2501283884048462,-0.7515898942947388
1761370556910879200,0.257879150390625,-0.3993110656738281,-0.286948561668396,-0.5824145078659058
1761370556929491700,0.27649169921875,-0.5628747940063477,-0.11637495458126068,-0.36179935932159424
1761370556948103000,0.29510302734375,-0.5343093872070312,0.07971200346946716,-0.17318546772003174
1761370556966715600,0.313715576171875,-0.4107084274291992,0.21739313006401062,-0.12976205348968506
1761370556985326800,0.332326904296875,-0.3221168518066406,0.20534637570381165,-0.08968639373779297
1761370557003939600,0.350939697265625,-0.24400806427001953,0.12930017709732056,-0.055930495262145996
1761370557022550800,0.36955078125,-0.16855716705322266,-0.013542860746383667,0.025049448013305664
1761370557041163500,0.38816357421875,-0.20808029174804688,-0.11471760272979736,0.1746889352798462
1761370557059774700,0.406774658203125,-0.26309776306152344,-0.08817195892333984,0.2586655616760254
1761370557078387500,0.425387451171875,-0.28399181365966797,0.013671576976776123,0.24962830543518066
1761370557096998700,0.44399853515625,-0.23944950103759766,0.08031576871871948,0.1453406810760498
1761370557115611100,0.462611083984375,-0.16173934936523438,0.03477811813354492,0.06294751167297363
1761370557134222300,0.481222412109375,-0.13460636138916016,-0.02786192297935486,0.08989298343658447
1761370557152835000,0.4998349609375,-0.09754562377929688,-0.051025986671447754,0.1853693723678589
1761370557171446300,0.5184462890625,-0.17125892639160156,0.021986186504364014,0.14638149738311768
1761370557190059000,0.53705908203125,-0.200164794921875,0.07597309350967407,0.07160258293151855
1761370557208670200,0.555670166015625,-0.1776599884033203,0.05119812488555908,-0.02016127109527588
1761370557227283000,0.574282958984375,-0.16396617889404297,0.017435014247894287,-0.06842315196990967
1761370557245894100,0.59289404296875,-0.14394092559814453,0.004367321729660034,-0.07926034927368164
1761370557264507000,0.6115068359375,-0.13432025909423828,0.018618732690811157,-0.09884834289550781
1761370557283118000,0.6301181640625,-0.07962989807128906,0.019099891185760498,-0.13945424556732178
1761370557301730800,0.648730712890625,-0.06984901428222656,0.026300758123397827,-0.15598082542419434
1761370557320342000,0.667342041015625,-0.12397003173828125,0.02548682689666748,-0.11760938167572021
1761370557338954800,0.685954833984375,-0.1190805435180664,0.01074489951133728,-0.06403696537017822
1761370557357566000,0.70456591796875,-0.10930156707763672,0.01797628402709961,-0.03813660144805908
1761370557376178700,0.7231787109375,-0.0925893783569336,0.03428703546524048,-0.007588982582092285
1761370557394790000,0.741789794921875,-0.10912322998046875,0.024836182594299316,0.024295926094055176
1761370557413402400,0.76040234375,-0.11110877990722656,0.03476020693778992,0.06945145130157471
1761370557432013600,0.779013671875,-0.0799570083618164,0.02320915460586548,0.06801998615264893
1761370557450626600,0.79762646484375,-0.05906867980957031,-0.009480088949203491,0.06856942176818848
1761370557469237800,0.81623779296875,-0.056937217712402344,-0.008786797523498535,0.0673145055770874
1761370557487850200,0.834850341796875,-0.07554054260253906,-0.003239363431930542,0.09207987785339355
1761370557506461400,0.85346142578125,-0.09755516052246094,0.007810741662979126,0.0946207046508789
1761370557525074400,0.872074462890625,-0.06959152221679688,0.016803711652755737,0.07791519165039062
1761370557543685600,0.890685546875,-0.1457071304321289,0.014822602272033691,0.061726927757263184
1761370557562298000,0.909298095703125,-0.10807228088378906,0.039167940616607666,-0.011288285255432129
1761370557580909600,0.92790966796875,-0.03363323211669922,0.030659228563308716,-0.08080875873565674
1761370557599522300,0.946522216796875,0.014893531799316406,-0.0009695887565612793,-0.09901881217956543
1761370557618133500,0.965133544921875,-0.0071868896484375,-0.008661419153213501,-0.061179518699645996
1761370557636746200,0.983746337890625,-0.0835561752319336,0.029635995626449585,0.027547836303710938
1761370557655357400,1.002357421875,-0.06826305389404297,0.011692136526107788,0.050754427909851074
1761370557673970000,1.020969970703125,-0.03957653045654297,0.007564723491668701,0.0653151273727417
1761370557692581400,1.039581298828125,-0.028619766235351562,-0.007409930229187012,0.06573259830474854
1761370557711194000,1.058194091796875,-0.052969932556152344,-0.022093117237091064,0.05241847038269043
1761370557729805300,1.076805419921875,-0.10416412353515625,-0.011381030082702637,0.03652060031890869
1761370557748418000,1.09541796875,-0.029557228088378906,0.008555561304092407,-0.009039759635925293
1761370557767029200,1.114029296875,0.01855945587158203,0.009384512901306152,-0.02249908447265625
1761370557785642000,1.13264208984375,-0.03541374206542969,0.02119538187980652,-0.07938385009765625
1761370557804253200,1.151253173828125,-0.08536338806152344,0.019463300704956055,-0.05605614185333252
1761370557822866000,1.169865966796875,-0.0711507797241211,0.022425532341003418,-0.03767812252044678
1761370557841477000,1.18847705078125,-0.07591438293457031,0.02364453673362732,-0.020885586738586426
1761370557860089900,1.20708984375,-0.03374195098876953,0.020555585622787476,-0.027659893035888672
1761370557878701000,1.225701171875,-0.051422119140625,0.011182993650436401,-0.00795745849609375
1761370557897313800,1.244313720703125,-0.04967784881591797,0.02143728733062744,0.008923172950744629
1761370557915925000,1.262925048828125,-0.053046226501464844,0.01788678765296936,0.035390377044677734
1761370557934537700,1.281537841796875,-0.04015541076660156,0.008085489273071289,0.00707852840423584
1761370557953149000,1.30014892578125,0.025650978088378906,0.008405566215515137,0.017722368240356445
1761370557971761700,1.31876171875,0.019392013549804688,0.014130234718322754,0.02968597412109375
1761370557990372900,1.337372802734375,0.00960540771484375,0.035974204540252686,0.029932379722595215
1761370558008985600,1.355985595703125,-0.053012847900390625,0.037436485290527344,0.027364730834960938
1761370558027596800,1.3745966796875,-0.07597160339355469,-0.0018947422504425049,0.02243673801422119
1761370558046209800,1.393209716796875,-0.049780845642089844,-0.03337171673774719,0.02853536605834961
1761370558064821000,1.411821044921875,0.00077056884765625,-0.04376557469367981,0.021564722061157227
1761370558083433700,1.430433837890625,0.014351844787597656,-0.03596055507659912,-0.001805424690246582
1761370558102045000,1.449044921875,-0.01148223876953125,-0.020450204610824585,0.014344215393066406
1761370558120657700,1.46765771484375,-0.03149700164794922,-0.009157240390777588,-0.024820446968078613
1761370558139268900,1.486268798828125,-0.0327911376953125,-0.003739476203918457,-0.03771841526031494
1761370558157881600,1.504881591796875,-0.022809982299804688,0.014104127883911133,-0.026723623275756836
1761370558176492800,1.523492919921875,-0.036171913146972656,0.03158417344093323,-0.009069561958312988
1761370558195105500,1.54210546875,-0.014150619506835938,0.028242677450180054,0.001069188117980957
1761370558213716700,1.560716796875,0.01630878448486328,0.015507102012634277,0.0017069578170776367
1761370558232329500,1.57932958984375,0.0038690567016601562,0.014159560203552246,0.03805887699127197
1761370558250940700,1.597940673828125,-0.04286766052246094,0.02471393346786499,0.04857337474822998
1761370558269553400,1.616553466796875,-0.06945037841796875,0.033768266439437866,0.05431830883026123
1761370558288164900,1.635164794921875,-0.03227710723876953,0.03140920400619507,-0.009935498237609863
1761370558306777600,1.653777587890625,0.005374908447265625,0.018722057342529297,-0.02274465560913086
1761370558325388800,1.672388916015625,-0.0022125244140625,0.01563987135887146,0.01310873031616211
1761370558344001500,1.69100146484375,-0.013586997985839844,0.018210232257843018,0.03730511665344238
1761370558362612700,1.70961279296875,-0.024100303649902344,-0.008169502019882202,0.03895294666290283
1761370558381225500,1.7282255859375,-0.005848884582519531,-0.035796284675598145,0.03550839424133301
1761370558399836700,1.746836669921875,0.02794170379638672,-0.0405956506729126,-0.009290337562561035
1761370558418449400,1.765449462890625,0.0037469863891601562,-0.016065210103988647,-0.0311276912689209
1761370558437060600,1.784060546875,-0.022263526916503906,-0.029953092336654663,-0.03800392150878906
1761370558455673600,1.802673583984375,-0.016986846923828125,-0.0289442241191864,-0.04752635955810547
1761370558474284800,1.821284912109375,-0.0027532577514648438,0.00011715292930603027,-0.007912993431091309
1761370558492897500,1.8398974609375,-0.014446258544921875,0.0281791090965271,0.01910710334777832
1761370558511508700,1.8585087890625,-0.0022678375244140625,0.0369928777217865,0.0418773889541626
1761370558530121500,1.87712158203125,-0.03482246398925781,0.027804404497146606,0.032732248306274414
1761370558548732700,1.895732666015625,0.004029273986816406,0.03295755386352539,0.0001856088638305664
1761370558567345400,1.914345458984375,0.020105361938476562,0.015842795372009277,0.0005199909210205078
1761370558585956600,1.93295654296875,-0.0015163421630859375,0.010415583848953247,-0.02500462532043457
1761370558604569300,1.9515693359375,-0.022401809692382812,0.003021448850631714,-0.0075081586837768555
1761370558623180800,1.970180908203125,-0.0029077529907226562,0.0194263756275177,0.004712581634521484
1761370558641793500,1.98879345703125,0.013655662536621094,0.013770997524261475,-0.0016064643859863281
1761370558660404700,2.00740478515625,0.008793830871582031,0.012494534254074097,0.011896014213562012
1761370558679017500,2.026017578125,-0.035117149353027344,-0.02049398422241211,0.037757158279418945
1761370558697628700,2.044628662109375,-0.027782440185546875,-0.029191315174102783,0.028412461280822754
1761370558716241400,2.063241455078125,0.01811695098876953,-0.03264617919921875,0.01636183261871338
1761370558734852600,2.0818525390625,0.05014801025390625,-0.022544384002685547,-0.022844791412353516
1761370558753465300,2.10046533203125,0.038346290588378906,-0.02920958399772644,-0.05023813247680664
1761370558772076800,2.119076904296875,-0.01956939697265625,0.006607174873352051,-0.03608691692352295
1761370558790689500,2.137689453125,-0.04230308532714844,0.04558071494102478,0.02743840217590332
1761370558809300700,2.15630078125,-0.03811168670654297,0.040441423654556274,0.04558730125427246
1761370558827913500,2.17491357421875,-0.0037698745727539062,0.012272030115127563,0.011358261108398438
1761370558846524700,2.193524658203125,0.017183303833007812,0.0024823248386383057,0.005892157554626465
1761370558865137400,2.212137451171875,0.011689186096191406,-0.002757728099822998,0.015928149223327637
1761370558883748900,2.230748779296875,-0.018942832946777344,-0.011719942092895508,0.025180697441101074
1761370558902361600,2.249361572265625,-0.004054069519042969,-0.007857143878936768,-0.014033317565917969
1761370558930279400,2.277279541015625,0.021404266357421875,-0.013958364725112915,-0.014597535133361816
1761370558948890600,2.295890625,0.018477439880371094,0.006745427846908569,-0.004526376724243164
1761370558967503600,2.314503662109375,-0.026389122009277344,0.02239900827407837,0.005918979644775391
1761370558986114800,2.33311474609375,-0.03213691711425781,0.02480447292327881,0.007631063461303711
1761370559004727600,2.3517275390625,-0.005135536193847656,0.020796865224838257,0.0026677846908569336
1761370559023338800,2.3703388671875,-0.009242057800292969,0.010281562805175781,0.026604294776916504
1761370559041951500,2.388951416015625,0.014842987060546875,-0.00004404783248901367,0.02391517162322998
1761370559060562700,2.407562744140625,0.02203369140625,0.003720104694366455,0.027573227882385254
1761370559079175700,2.42617578125,0.024271011352539062,0.004468053579330444,-0.001350998878479004
1761370559097787000,2.444786865234375,-0.004039764404296875,-0.004238724708557129,-0.00517117977142334
1761370559116399600,2.463399658203125,-0.033935546875,-0.02155432105064392,-0.005970954895019531
1761370559135010800,2.4820107421875,-0.011827468872070312,-0.012717515230178833,-0.0013347864151000977
1761370559153623600,2.50062353515625,0.009351730346679688,0.007071346044540405,-0.0000654458999633789
1761370559172234800,2.51923486328125,0.025354385375976562,0.011634737253189087,0.020891904830932617
1761370559190847700,2.53784765625,-0.01023101806640625,0.007212787866592407,0.04175150394439697
1761370559209459000,2.556458984375,-0.032379150390625,0.00696679949760437,-0.0019670724868774414
1761370559228071700,2.57507177734375,-0.005461692810058594,-0.005021452903747559,-0.009601712226867676
1761370559246683000,2.593682861328125,0.04108142852783203,-0.016098350286483765,-0.042055487632751465
1761370559265295600,2.612295654296875,0.01788330078125,-0.00022071599960327148,-0.018710970878601074
1761370559283906800,2.63090673828125,-0.0063934326171875,0.01363101601600647,0.003665447235107422
1761370559302519600,2.64951953125,-0.01531219482421875,0.00036147236824035645,0.011294007301330566
1761370559321130800,2.668130859375,-0.012298583984375,0.0018779933452606201,0.0165557861328125
1761370559339743700,2.68674365234375,0.018425941467285156,0.0047113001346588135,0.011324882507324219
1761370559358355000,2.70535498046875,0.0177001953125,0.00874471664428711,0.01068568229675293
1761370559376967700,2.7239677734375,0.0031557083129882812,-0.003166109323501587,0.015300989151000977
1761370559395579000,2.742578857421875,-0.008429527282714844,0.004521191120147705,0.015032172203063965
1761370559414191600,2.761191650390625,0.012750625610351562,-0.007162868976593018,0.0235898494720459
1761370559432802800,2.779802734375,0.01214599609375,-0.016877979040145874,0.01946091651916504
1761370559451415800,2.798415771484375,-0.0000934600830078125,-0.005286306142807007,0.018083691596984863
1761370559470027000,2.817027099609375,-0.011700630187988281,-0.005306988954544067,0.02704930305480957
1761370559488639700,2.8356396484375,-0.0231781005859375,0.009697973728179932,0.04435312747955322
1761370559507251000,2.8542509765625,-0.0088348388671875,0.04309120774269104,0.03954517841339111
1761370559525863700,2.87286376953125,0.014225959777832031,-0.012071311473846436,-0.010058879852294922
1761370559544475000,2.891474853515625,-0.0008792877197265625,-0.026140868663787842,-0.03315162658691406
1761370559563088000,2.910087890625,-0.019509315490722656,0.0036078989505767822,0.018611669540405273
1761370559581699000,2.928698974609375,-0.0023784637451171875,0.026387780904769897,0.058522582054138184
1761370559600311800,2.947311767578125,0.0073451995849609375,0.006527543067932129,0.061074256896972656
1761370559618923000,2.965923095703125,0.023621559143066406,-0.006113976240158081,0.019112467765808105
1761370559637535700,2.98453564453125,-0.009458541870117188,-0.009437114000320435,-0.004900932312011719
1761370559656147000,3.00314697265625,-0.0015554428100585938,-0.010085433721542358,-0.03147101402282715
1761370559674760000,3.021760009765625,-0.019499778747558594,-0.012537240982055664,-0.06819891929626465
1761370559693371100,3.04037109375,0.03722381591796875,-0.009005993604660034,-0.0999835729598999
1761370559711983900,3.05898388671875,0.028530120849609375,0.00615885853767395,-0.09962332248687744
1761370559730595000,3.077594970703125,0.005751609802246094,0.029221445322036743,-0.07123219966888428
1761370559749207800,3.096207763671875,-0.013707160949707031,0.02873384952545166,-0.007773995399475098
1761370559767819000,3.114819091796875,-0.0320587158203125,-0.00040602684020996094,0.02880251407623291
1761370559786432000,3.133431884765625,-0.026151657104492188,-0.004014313220977783,0.035299062728881836
1761370559805043200,3.152043212890625,0.03283119201660156,-0.013625293970108032,0.026153564453125
1761370559823656000,3.170656005859375,0.010552406311035156,-0.02650749683380127,0.021880030632019043
1761370559842267100,3.18926708984375,-0.020206451416015625,-0.017020583152770996,0.03289687633514404
1761370559860880000,3.2078798828125,-0.030936241149902344,-0.009195953607559204,0.0039098262786865234
1761370559879491000,3.226490966796875,0.018909454345703125,-0.01828557252883911,-0.01313483715057373
1761370559898104000,3.24510400390625,0.02048206329345703,-0.011698007583618164,-0.00639033317565918
1761370559916715300,3.26371533203125,0.01736164093017578,0.003639906644821167,0.007760167121887207
1761370559935328000,3.282327880859375,-0.020203590393066406,0.0029560625553131104,0.023375511169433594
1761370559953939200,3.300939208984375,-0.023718833923339844,0.0055543482303619385,0.020051121711730957
1761370559972552000,3.319552001953125,0.0026788711547851562,0.017013609409332275,0.021445512771606445
1761370559991163100,3.3381630859375,0.023093223571777344,0.033667296171188354,0.01560521125793457
1761370560009776000,3.356776123046875,0.012517929077148438,0.030778884887695312,0.023714661598205566
1761370560028387300,3.37538720703125,-0.018314361572265625,0.03395196795463562,0.031836628913879395
1761370560047000000,3.394,-0.01738452911376953,0.012877732515335083,0.030353426933288574
1761370560065611300,3.412611328125,0.006855964660644531,0.0018696486949920654,0.024627685546875
1761370560084224000,3.43122412109375,0.018556594848632812,-0.007398456335067749,0.01854562759399414
1761370560102835200,3.449835205078125,-0.0052204132080078125,-0.01142817735671997,-0.006776690483093262
1761370560121448200,3.4684482421875,0.006622314453125,-0.022465765476226807,-0.03514301776885986
1761370560140059400,3.487059326171875,-0.00811004638671875,-0.02400505542755127,-0.028667926788330078
1761370560158672100,3.505672119140625,0.010532379150390625,-0.016269654035568237,-0.035112857818603516
1761370560177283300,3.524283447265625,0.012051582336425781,-0.013762682676315308,-0.013562560081481934
1761370560195896000,3.54289599609375,0.01833343505859375,-0.011612743139266968,-0.012844204902648926
1761370560214507300,3.56150732421875,-0.019994735717773438,0.005132883787155151,0.016384243965148926
1761370560233120300,3.580120361328125,-0.02657318115234375,0.0196530818939209,-0.005855441093444824
1761370560251731500,3.5987314453125,0.0038394927978515625,0.014166653156280518,-0.01531517505645752
1761370560270344200,3.61734423828125,0.021523475646972656,0.01781243085861206,0.008743643760681152
1761370560288955400,3.635955322265625,-0.0004987716674804688,0.028977900743484497,0.032022833824157715
1761370560307568400,3.654568359375,-0.012050628662109375,0.029143840074539185,0.04854929447174072
1761370560326179600,3.6731796875,-0.004147529602050781,0.018515050411224365,0.033676862716674805
1761370560344792300,3.691792236328125,0.012719154357910156,0.005720645189285278,0.012039780616760254
1761370560363403500,3.710403564453125,0.02164936065673828,-0.0007042288780212402,-0.0020672082901000977
1761370560382016300,3.729016357421875,0.006591796875,-0.0050401389598846436,-0.022738218307495117
1761370560400627500,3.74762744140625,0.015462875366210938,-0.018615663051605225,-0.00026214122772216797
1761370560419240400,3.766240478515625,0.00797271728515625,-0.0033053159713745117,0.012296795845031738
1761370560437851600,3.7848515625,-0.001434326171875,-0.0068531334400177,0.022806167602539062
1761370560456464400,3.80346435546875,0.012972831726074219,-0.0013846755027770996,0.01666426658630371
1761370560475075600,3.82207568359375,-0.02005767822265625,-0.0030450820922851562,0.015283346176147461
1761370560493688300,3.840688232421875,-0.009928703308105469,0.0026099085807800293,-0.022295475006103516
1761370560512299500,3.859299560546875,0.0112152099609375,0.0007630884647369385,-0.020635604858398438
1761370560530912500,3.87791259765625,0.008166313171386719,-0.0009650588035583496,-0.00037086009979248047
1761370560549523700,3.896523681640625,0.0008726119995117188,0.004686176776885986,0.004117369651794434
1761370560568136400,3.915136474609375,0.012414932250976562,0.00541803240776062,-0.0030840635299682617
1761370560586747600,3.93374755859375,0.007129669189453125,-0.001047760248184204,-0.009360790252685547
1761370560605360600,3.952360595703125,0.025045394897460938,0.01315993070602417,-0.004724979400634766
1761370560623971800,3.970971923828125,0.01929950714111328,0.01702749729156494,-0.0016336441040039062
1761370560642584600,3.98958447265625,-0.011744499206542969,0.01226198673248291,0.0027750730514526367
1761370560661195800,4.00819580078125,-0.020608901977539062,0.0038534700870513916,0.01710033416748047
1761370560679808500,4.02680859375,-0.020000457763671875,-0.011324465274810791,0.0020508766174316406
1761370560698419700,4.045419677734375,0.008394241333007812,-0.014687925577163696,0.009278297424316406
1761370560717032700,4.06403271484375,0.035758018493652344,-0.0067987143993377686,0.018710017204284668
1761370560735644000,4.082643798828125,0.032103538513183594,-0.015874862670898438,0.00514674186706543
1761370560754256600,4.101256591796875,0.009755134582519531,-0.018020927906036377,0.001965165138244629
1761370560772867800,4.119867919921875,-0.02334308624267578,-0.02207140624523163,0.00883328914642334
1761370560791480600,4.13848046875,-0.019896507263183594,-0.001857459545135498,0.01673734188079834
1761370560810091800,4.157091796875,-0.012108802795410156,0.015890002250671387,0.03413736820220947
1761370560828704800,4.175704833984375,0.0094757080078125,0.01698446273803711,0.0030776262283325195
1761370560847316000,4.19431591796875,0.0414581298828125,0.007843762636184692,-0.020017385482788086
1761370560865928700,4.2129287109375,0.03963279724121094,0.009157896041870117,0.0017437934875488281
1761370560884540000,4.231539794921875,-0.0014123916625976562,0.013260513544082642,0.03455150127410889
1761370560903152600,4.250152587890625,-0.017144203186035156,0.016555607318878174,0.026776790618896484
1761370560921764000,4.26876416015625,-0.02093791961669922,0.001282423734664917,-0.002168416976928711
1761370560940376800,4.287376953125,-0.008431434631347656,-0.009145915508270264,-0.013054370880126953
1761370560958988000,4.305988037109375,0.014945030212402344,-0.01300118863582611,-0.023153066635131836
1761370560977600800,4.324600830078125,0.02333545684814453,-0.024099230766296387,-0.027579903602600098
1761370560996212000,4.3432119140625,0.03144073486328125,-0.0071679651737213135,-0.0010641813278198242
1761370561014825000,4.361824951171875,0.002391815185546875,-0.011518463492393494,0.010849595069885254
1761370561033436200,4.380436279296875,-0.01595306396484375,0.005931198596954346,0.0007938146591186523
1761370561052049000,4.399048828125,-0.0035905838012695312,-0.00970439612865448,-0.004701972007751465
1761370561070660000,4.41766015625,0.008249282836914062,-0.0021075010299682617,0.007416486740112305
1761370561089272800,4.43627294921875,-0.0060482025146484375,0.014416038990020752,0.021047234535217285
1761370561107884000,4.454884033203125,0.022125244140625,0.007120460271835327,0.003481268882751465
1761370561126497000,4.4734970703125,0.018968582153320312,-0.005000174045562744,0.012539029121398926
1761370561145108200,4.492108154296875,-0.009457588195800781,-0.002406299114227295,0.025135397911071777
1761370561163721000,4.510720947265625,-0.015931129455566406,-0.008616611361503601,0.002420186996459961
1761370561182332200,4.529332275390625,-0.010613441467285156,0.0017482340335845947,-0.006672382354736328
1761370561200945000,4.54794482421875,0.012984275817871094,-0.005043834447860718,-0.02331686019897461
1761370561219556000,4.56655615234375,0.009850502014160156,0.002239704132080078,-0.01262366771697998
1761370561238169000,4.585169189453125,0.021089553833007812,-0.0026814043521881104,0.014547109603881836
1761370561256780300,4.6037802734375,0.008653640747070312,0.00926712155342102,0.03314495086669922
1761370561275393000,4.62239306640625,-0.009984970092773438,-0.0015063881874084473,0.017624258995056152
1761370561294004200,4.641004150390625,-0.000030517578125,0.0070868730545043945,-0.002297639846801758
1761370561312617000,4.659616943359375,0.011674880981445312,0.0005619227886199951,-0.004340410232543945
1761370561331228200,4.678228271484375,0.011002540588378906,0.016773611307144165,-0.01535022258758545
1761370561349841200,4.696841064453125,0.019492149353027344,0.027127057313919067,0.001296401023864746
1761370561368452400,4.715452392578125,0.0072193145751953125,0.02862006425857544,0.02693915367126465
1761370561387065000,4.734065185546875,-0.013783454895019531,0.017008692026138306,0.011494636535644531
1761370561405676300,4.75267626953125,-0.017778396606445312,-0.015056177973747253,-0.008504152297973633
1761370561424289300,4.771289306640625,0.020044326782226562,-0.028725817799568176,-0.015735626220703125
1761370561442900500,4.789900390625,-0.011117935180664062,-0.028589054942131042,-0.0017185211181640625
1761370561461513200,4.80851318359375,-0.005980491638183594,-0.02961432933807373,-0.0019330978393554688
1761370561480124400,4.82712451171875,0.022131919860839844,-0.012174233794212341,-0.0028564929962158203
1761370561498737200,4.845737060546875,0.03509044647216797,0.0009805858135223389,0.0005099773406982422
1761370561517348400,4.864348388671875,-0.005764961242675781,0.0022527575492858887,0.0047566890716552734
1761370561535961300,4.88296142578125,-0.019324302673339844,0.004881799221038818,0.017455101013183594
1761370561554572500,4.901572509765625,-0.009134292602539062,0.0032043159008026123,0.011600255966186523
1761370561573185300,4.920185302734375,0.0052509307861328125,0.0010159015655517578,0.004532217979431152
1761370561591796500,4.93879638671875,0.01882171630859375,0.014002025127410889,0.017324090003967285
1761370561610409200,4.9574091796875,0.01835918426513672,0.0261915922164917,0.026068925857543945
1761370561629020400,4.9760205078125,-0.0075817108154296875,0.025158345699310303,0.008803486824035645
1761370561647633200,4.994633056640625,-0.013825416564941406,0.017864316701889038,0.009975075721740723
1761370561666244400,5.013244384765625,-0.01743030548095703,-0.0004388093948364258,-0.0014235973358154297
1761370561684857300,5.031857421875,-0.0005054473876953125,-0.011796414852142334,-0.015122532844543457
1761370561703468500,5.050468505859375,0.0131378173828125,-0.009385868906974792,-0.01632249355316162
1761370561722081300,5.069081298828125,0.017081260681152344,-0.011998653411865234,-0.006580948829650879
1761370561740692500,5.0876923828125,-0.000141143798828125,-0.014570921659469604,0.008337736129760742
1761370561759305500,5.106305419921875,-0.009444236755371094,0.002268552780151367,0.02638399600982666
1761370561777916700,5.124916748046875,-0.0112457275390625,0.00542798638343811,0.016805052757263184
1761370561796529400,5.143529296875,0.012434005737304688,0.015198081731796265,0.007537961006164551
1761370561815140600,5.162140625,0.0003719329833984375,-0.005891516804695129,0.0027065277099609375
1761370561833753300,5.18075341796875,0.000354766845703125,-0.0008349120616912842,0.004727602005004883
1761370561852364500,5.199364501953125,0.016580581665039062,-0.003125816583633423,-0.010203242301940918
1761370561870977300,5.217977294921875,0.011120796203613281,0.010390877723693848,0.005354523658752441
1761370561889588500,5.23658837890625,0.0038213729858398438,0.012036710977554321,0.014723658561706543
1761370561908201500,5.255201416015625,-0.0030126571655273438,0.002856433391571045,-0.009909510612487793
1761370561926812700,5.273812744140625,0.016021728515625,-0.003943353891372681,-0.014828324317932129
1761370561945425400,5.29242529296875,0.01096343994140625,-0.011131525039672852,-0.01552283763885498
1761370561964036600,5.31103662109375,-0.005580902099609375,-0.004495531320571899,-0.012086153030395508
1761370561982649300,5.3296494140625,-0.03101348876953125,-0.02518409490585327,0.026430130004882812
1761370562001260500,5.348260498046875,-0.00388336181640625,-0.009043246507644653,0.031859755516052246
1761370562019873500,5.36687353515625,0.03606414794921875,-0.010694563388824463,0.027205586433410645
1761370562038484700,5.385484619140625,0.06244373321533203,0.011834114789962769,-0.0013706684112548828
1761370562057097500,5.404097412109375,0.008638381958007812,0.01913350820541382,0.0033409595489501953
1761370562075708700,5.422708740234375,-0.029041290283203125,0.027176231145858765,0.009969711303710938
1761370562094321400,5.4413212890625,-0.027810096740722656,0.026567280292510986,-0.0012131929397583008
1761370562112932600,5.4599326171875,-0.0197906494140625,0.0006120800971984863,-0.002651810646057129
1761370562131545600,5.478545654296875,0.008925437927246094,-0.013234168291091919,-0.0006140470504760742
1761370562150156800,5.49715673828125,0.017747879028320312,-0.008826151490211487,0.007846355438232422
1761370562168769500,5.51576953125,0.0076847076416015625,-0.008921369910240173,-0.016431212425231934
1761370562187380700,5.534380615234375,0.004998207092285156,-0.018214896321296692,-0.03090810775756836
1761370562205993500,5.552993408203125,0.006992340087890625,-0.011372491717338562,-0.012508034706115723
1761370562224604700,5.571604736328125,-0.0049343109130859375,-0.014135748147964478,0.017618298530578613
1761370562243217700,5.5902177734375,-0.004726409912109375,-0.00003466010093688965,0.03635430335998535
1761370562261828900,5.608828857421875,0.005062103271484375,0.006885617971420288,0.02992868423461914
1761370562280441600,5.627441650390625,0.0005521774291992188,0.00680088996887207,0.006694197654724121
1761370562299052800,5.646052734375,0.005009651184082031,0.01571553945541382,0.004038333892822266
1761370562317665500,5.66466552734375,-0.018468856811523438,0.024245262145996094,0.01985037326812744
1761370562336276700,5.68327685546875,-0.0038442611694335938,0.03282588720321655,0.00755465030670166
1761370562354889500,5.701889404296875,-0.010631561279296875,0.029680103063583374,-0.003857135772705078
1761370562373500700,5.720500732421875,-0.007955551147460938,0.015024334192276001,0.0014009475708007812
1761370562392113700,5.73911376953125,-0.009937286376953125,0.001098543405532837,0.0018262863159179688
1761370562410724900,5.757724853515625,0.004336357116699219,-0.026179015636444092,-0.0007799863815307617
1761370562429337600,5.776337646484375,0.00859832763671875,-0.03194966912269592,0.00015425682067871094
1761370562447948800,5.79494873046875,0.015109062194824219,-0.02638120949268341,0.00550687313079834
1761370562466561500,5.8135615234375,0.0005865097045898438,-0.01394769549369812,0.014172792434692383
1761370562485172700,5.8321728515625,0.0029611587524414062,0.014970630407333374,-0.004178166389465332
1761370562503785700,5.85078564453125,0.003070831298828125,0.013105183839797974,-0.0169677734375
1761370562522397000,5.86939697265625,0.005272865295410156,-0.000494152307510376,-0.014061689376831055
1761370562541009700,5.888009765625,0.0071926116943359375,-0.014184683561325073,-0.01730644702911377
1761370562559620900,5.906620849609375,0.025262832641601562,-0.0071390122175216675,-0.007222414016723633
1761370562578233600,5.925233642578125,-0.0061473846435546875,-0.005175560712814331,0.013120889663696289
1761370562596844800,5.9438447265625,-0.012749671936035156,0.004412710666656494,0.0040111541748046875
1761370562615457500,5.96245751953125,0.011236190795898438,0.004618197679519653,0.021529316902160645
1761370562634068700,5.98106884765625,-0.005345344543457031,0.002384006977081299,0.01737082004547119
1761370562652681700,5.999681640625,0.016043663024902344,0.004626035690307617,0.008038520812988281
1761370562671293000,6.01829296875,-0.0033245086669921875,0.009338617324829102,-0.0015200376510620117
1761370562689905700,6.03690576171875,-0.005513191223144531,0.00006839632987976074,0.022127270698547363
1761370562708516900,6.055516845703125,0.008853912353515625,-0.006181016564369202,0.03169107437133789
1761370562727129600,6.074129638671875,0.027418136596679688,-0.008000627160072327,0.001525282859802246
1761370562745740800,6.09274072265625,0.014772415161132812,-0.008048787713050842,-0.013324618339538574
1761370562764353500,6.111353515625,0.01868438720703125,0.009659945964813232,-0.0026410818099975586
1761370562782964700,6.12996484375,-0.01220703125,0.013478904962539673,0.005439639091491699
1761370562801577700,6.14857763671875,-0.02070331573486328,0.013558149337768555,-0.004317760467529297
1761370562820189000,6.16718896484375,-0.0012149810791015625,-0.011807411909103394,-0.0032004117965698242
1761370562838801700,6.1858017578125,0.017269134521484375,-0.007181897759437561,-0.004369497299194336
1761370562857412900,6.204412841796875,0.009286880493164062,-0.012628525495529175,0.0003038644790649414
1761370562876025600,6.223025634765625,-0.00521087646484375,-0.006007492542266846,0.008055448532104492
1761370562894636800,6.24163671875,-0.014364242553710938,-0.008081361651420593,-0.011136889457702637
1761370562913249500,6.26024951171875,0.0023345947265625,0.0017371773719787598,-0.018778324127197266
1761370562931860700,6.27886083984375,0.015956878662109375,-0.003255397081375122,-0.008185625076293945
1761370562950473700,6.2974736328125,0.0013561248779296875,0.010627388954162598,0.009929299354553223
1761370562969084700,6.316084716796875,0.01761341094970703,0.005321025848388672,0.005298614501953125
1761370562987697700,6.33469775390625,0.005641937255859375,-0.001838386058807373,0.022914767265319824
1761370563006308900,6.353308837890625,-0.0013227462768554688,0.005550682544708252,0.030594944953918457
1761370563024921600,6.371921630859375,-0.0011720657348632812,0.012080878019332886,0.02081894874572754
1761370563043532800,6.39053271484375,0.0012073516845703125,0.013844072818756104,0.012994170188903809
1761370563062145500,6.4091455078125,-0.0010538101196289062,0.018052101135253906,0.029306769371032715
1761370563080756700,6.4277568359375,0.0037260055541992188,0.017815858125686646,0.01994633674621582
1761370563099369500,6.446369384765625,-0.0009479522705078125,-0.0032448172569274902,-0.0008149147033691406
1761370563117980700,6.464980712890625,0.01784515380859375,-0.007771313190460205,-0.002795696258544922
1761370563136593700,6.48359375,-0.0083465576171875,-0.009847834706306458,0.007720947265625
1761370563155204900,6.502204833984375,-0.017004013061523438,-0.011194422841072083,-0.00046515464782714844
1761370563173817600,6.520817626953125,0.007000923156738281,-0.010401144623756409,-0.0018132925033569336
1761370563192428800,6.5394287109375,0.02063274383544922,-0.0008079111576080322,-0.014010190963745117
1761370563211041500,6.55804150390625,0.01976299285888672,-0.003598630428314209,-0.012433171272277832
1761370563229652700,6.57665283203125,0.00258636474609375,0.014662325382232666,0.001245737075805664
1761370563248265500,6.595265380859375,-0.027678489685058594,0.012082427740097046,0.012097358703613281
1761370563266876700,6.613876708984375,-0.014677047729492188,0.017619788646697998,-0.010507583618164062
1761370563285489400,6.632489501953125,0.027681350708007812,-0.01077355444431305,-0.01802659034729004
1761370563304100600,6.6511005859375,0.031126022338867188,-0.010937169194221497,0.011900544166564941
1761370563322713600,6.669713623046875,-0.004909515380859375,-0.004014134407043457,0.0045735836029052734
1761370563341324800,6.68832470703125,-0.006928443908691406,-0.006278693675994873,-0.006888628005981445
1761370563359937500,6.7069375,-0.0019283294677734375,-0.005970001220703125,0.010401606559753418
1761370563378548700,6.725548828125,-0.004034996032714844,-0.0009670853614807129,0.025305867195129395
1761370563397161500,6.744161376953125,0.012628555297851562,0.013012468814849854,0.006532549858093262
1761370563415772700,6.762772705078125,0.012165069580078125,0.0028230249881744385,0.003898024559020996
1761370563434385400,6.781385498046875,0.00000858306884765625,-0.009088858962059021,0.01009976863861084
1761370563452996600,6.79999658203125,0.0023746490478515625,-0.0184774249792099,0.021562576293945312
1761370563471609300,6.818609375,-0.016241073608398438,0.007883399724960327,0.014570236206054688
1761370563490220500,6.837220458984375,-0.010888099670410156,-0.0012256801128387451,-0.004027247428894043
1761370563508833500,6.85583349609375,0.012836456298828125,0.003984659910202026,-0.013460993766784668
1761370563527444700,6.87444482421875,0.0353546142578125,0.00790780782699585,-0.0025101900100708008
1761370563546057500,6.893057373046875,0.015450477600097656,0.013550877571105957,0.0037031173706054688
1761370563564668700,6.911668701171875,0.0010271072387695312,0.028948605060577393,0.020260930061340332
1761370563583281400,6.930281494140625,-0.024573326110839844,0.02113690972328186,0.013336658477783203
1761370563601892600,6.948892578125,-0.000476837158203125,0.006628274917602539,-0.006257057189941406
1761370563620505300,6.96750537109375,0.010998725891113281,-0.005667448043823242,0.0017461776733398438
1761370563639116500,6.986116455078125,0.012781143188476562,-0.02039244771003723,0.0022230148315429688
1761370563657729300,7.004729248046875,0.0028791427612304688,-0.03150638937950134,0.01835048198699951
1761370563676340500,7.023340576171875,0.0076732635498046875,-0.0163993239402771,0.019597291946411133
1761370563694953200,7.041953125,0.0032777786254882812,-0.006321161985397339,0.005046725273132324
1761370563713564400,7.060564453125,-0.008375167846679688,-0.013183638453483582,-0.029682040214538574
1761370563732177400,7.079177490234375,0.024277687072753906,-0.007113814353942871,-0.03502774238586426
1761370563750788400,7.097788330078125,-0.00016021728515625,0.0011606216430664062,-0.014504313468933105
1761370563769401300,7.1164013671875,-0.004778861999511719,0.01222538948059082,0.030377864837646484
1761370563788012500,7.135012451171875,-0.011382102966308594,0.011817723512649536,0.02790963649749756
1761370563806625300,7.153625244140625,0.0031881332397460938,-0.00037220120429992676,0.03770709037780762
1761370563825236500,7.172236572265625,0.0009307861328125,0.013158649206161499,0.030459880828857422
1761370563843849200,7.19084912109375,0.0055828094482421875,0.014424771070480347,0.025507450103759766
1761370563862460400,7.20946044921875,-0.01780414581298828,0.016088396310806274,0.0015984773635864258
1761370563881073200,7.2280732421875,-0.0009527206420898438,0.015749841928482056,-0.0008629560470581055
1761370563899684400,7.246684326171875,0.006169319152832031,0.026953667402267456,-0.0006062984466552734
1761370563918297000,7.265297119140625,-0.005732536315917969,0.014830261468887329,0.005116701126098633
1761370563936908300,7.283908203125,-0.009915351867675781,-0.0009536147117614746,-0.0010063648223876953
1761370563955521000,7.30252099609375,0.016031265258789062,-0.007364928722381592,-0.017214059829711914
1761370563974132200,7.32113232421875,0.012990951538085938,-0.011947095394134521,-0.0241166353225708
1761370563992745000,7.339744873046875,-0.0062160491943359375,-0.009262144565582275,-0.021567344665527344
1761370564011356200,7.358356201171875,-0.0036478042602539062,-0.004108607769012451,-0.0021834373474121094
1761370564029969000,7.376968994140625,-0.005718231201171875,0.0034370124340057373,0.0008561611175537109
1761370564048580000,7.395580078125,0.027246475219726562,-0.003368586301803589,0.006424546241760254
1761370564067193000,7.414193115234375,0.017174720764160156,-0.005405545234680176,0.014302730560302734
1761370564085804000,7.432803955078125,0.009757041931152344,-0.0029654204845428467,0.012579917907714844
1761370564104417000,7.4514169921875,0.009861946105957031,-0.007613390684127808,0.004534482955932617
1761370564123028200,7.4700283203125,-0.008899688720703125,-0.016166582703590393,0.023201584815979004
1761370564141641000,7.488640869140625,-0.019827842712402344,0.006294965744018555,0.00606226921081543
1761370564160252200,7.507252197265625,-0.0029706954956054688,0.006308019161224365,-0.020244717597961426
1761370564178865000,7.525864990234375,-0.0007686614990234375,0.015014559030532837,-0.0067119598388671875
1761370564197476000,7.54447607421875,-0.0053958892822265625,0.017153680324554443,-0.004329323768615723
1761370564216088800,7.5630888671875,-0.009896278381347656,0.015061557292938232,-0.0016776323318481445
1761370564234700000,7.581699951171875,0.0020856857299804688,0.012643903493881226,0.0077478885650634766
1761370564253312800,7.600312744140625,0.004337310791015625,0.012245655059814453,0.0030689239501953125
1761370564271924000,7.618924072265625,-0.016712188720703125,-0.005965083837509155,-0.010618209838867188
1761370564290536700,7.63753662109375,0.0026826858520507812,-0.013669148087501526,-0.009858369827270508
1761370564309148000,7.65614794921875,0.018736839294433594,-0.010349050164222717,0.0017737150192260742
1761370564327760600,7.6747607421875,0.02725982666015625,0.01096770167350769,-0.0016609430313110352
1761370564346371800,7.693371826171875,0.012267112731933594,0.017380207777023315,0.01418006420135498
1761370564364984600,7.711984619140625,-0.008989334106445312,0.023538589477539062,0.019159913063049316
1761370564383595800,7.730595703125,-0.024748802185058594,0.006816565990447998,0.016182541847229004
1761370564402208500,7.74920849609375,-0.03746604919433594,-0.019997194409370422,0.018602728843688965
1761370564420819700,7.76781982421875,-0.0150299072265625,-0.020114600658416748,-0.01883554458618164
1761370564439432400,7.786432373046875,0.024659156799316406,-0.028640568256378174,-0.030438542366027832
1761370564458043600,7.805043701171875,0.023148536682128906,-0.009848251938819885,-0.021033644676208496
1761370564476656400,7.823656494140625,-0.017427444458007812,-0.000394970178604126,-0.00992119312286377
1761370564495267600,7.842267578125,-0.02611064910888672,-0.0066400617361068726,0.0024067163467407227
1761370564513880600,7.860880615234375,-0.0018825531005859375,-0.008202627301216125,-0.011426448822021484
1761370564532491500,7.879491455078125,0.005061149597167969,0.010330736637115479,-0.0024672746658325195
1761370564551104500,7.8981044921875,-0.014013290405273438,0.011978775262832642,0.01555943489074707
1761370564569715500,7.916715576171875,-0.02762126922607422,0.007185518741607666,0.01911139488220215
1761370564588328400,7.935328369140625,-0.00797271728515625,0.014818668365478516,0.029597759246826172
1761370564606939600,7.953939697265625,0.008408546447753906,0.012408971786499023,0.03519129753112793
1761370564625552400,7.972552490234375,0.010372161865234375,0.007243126630783081,0.017139673233032227
1761370564644163600,7.99116357421875,-0.006358146667480469,0.01161205768585205,0.01387035846710205
1761370564662776300,8.0097763671875,-0.01759815216064453,-0.004719406366348267,0.019156932830810547
1761370564681387500,8.028387451171875,-0.023698806762695312,-0.007677868008613586,0.009191155433654785
1761370564700000300,8.047000244140625,0.0053424835205078125,-0.00565473735332489,-0.013069391250610352
1761370564718611500,8.065611572265626,0.02134990692138672,-0.021157801151275635,-0.03437495231628418
1761370564737224200,8.08422412109375,0.020221710205078125,-0.023173540830612183,-0.02563190460205078
1761370564755835400,8.10283544921875,-0.0224456787109375,-0.01316174864768982,0.010049700736999512
1761370564774448000,8.1214482421875,-0.03774833679199219,0.009407654404640198,0.008781790733337402
1761370564793059300,8.140059326171874,0.00331878662109375,0.010218307375907898,0.014104485511779785
1761370564811672000,8.158672119140626,-0.0062236785888671875,0.0037437081336975098,0.008992910385131836
1761370564830283300,8.177283203125,0.00545501708984375,0.013424187898635864,0.01928424835205078
1761370564848896000,8.19589599609375,0.0051937103271484375,0.01849469542503357,0.013162016868591309
1761370564867507200,8.214507080078125,-0.006739616394042969,0.01166573166847229,0.007985949516296387
1761370564886120000,8.233119873046874,-0.015687942504882812,-0.0017086565494537354,0.015145063400268555
1761370564904731100,8.251731201171875,-0.01981639862060547,-0.016846776008605957,-0.0010898113250732422
1761370564923344000,8.27034375,-0.0005435943603515625,-0.013037532567977905,-0.015303492546081543
1761370564941955000,8.288955078125,-0.0008478164672851562,-0.012172698974609375,-0.016262054443359375
1761370564960567800,8.30756787109375,0.0107269287109375,-0.004750937223434448,-0.007558345794677734
1761370564979179000,8.326178955078126,0.008001327514648438,-0.0019231289625167847,-0.0024466514587402344
1761370564997791700,8.344791748046875,-0.017724990844726562,-0.012546941637992859,0.0034023523330688477
1761370565016403000,8.36340283203125,-0.0031442642211914062,0.005017995834350586,-0.005678653717041016
1761370565035015700,8.382015625,-0.021846771240234375,0.0028961002826690674,-0.0037845373153686523
1761370565053627000,8.400626953125,-0.023443222045898438,-0.0035632848739624023,0.002949833869934082
1761370565072239600,8.419239501953125,0.014670372009277344,-0.004560813307762146,-0.00925147533416748
1761370565090850800,8.437850830078125,0.0046482086181640625,-0.006405085325241089,0.012109518051147461
1761370565109463800,8.4564638671875,0.0022573471069335938,0.007428377866744995,0.01598656177520752
1761370565128074800,8.47507470703125,-0.009626388549804688,0.020916059613227844,0.015465378761291504
1761370565146687500,8.4936875,-0.018383026123046875,0.03663723170757294,0.011695265769958496
1761370565165298700,8.512298583984375,-0.02926921844482422,0.01753576099872589,0.0009319782257080078
1761370565183911700,8.53091162109375,-0.011880874633789062,-0.01053592562675476,-0.010631680488586426
1761370565202522600,8.549522705078125,-0.018754005432128906,-0.01961328089237213,-0.014242887496948242
1761370565221135600,8.568135498046875,-0.013688087463378906,-0.01914946734905243,-0.001761794090270996
1761370565239746800,8.586746826171876,0.002803802490234375,-0.025563687086105347,-0.007677793502807617
1761370565258359600,8.605359619140625,0.00039005279541015625,-0.01750113070011139,-0.01277625560760498
1761370565276970800,8.623970703125,0.0026102066040039062,-0.01955723762512207,0.0012981891632080078
1761370565295583500,8.64258349609375,0.00018310546875,-0.005259111523628235,0.003857254981994629
1761370565314194700,8.661194580078124,-0.006653785705566406,-0.010193243622779846,0.00911247730255127
1761370565332807400,8.679807373046875,-0.020325660705566406,0.0018411576747894287,0.026170969009399414
1761370565351418600,8.698418701171875,-0.028848648071289062,0.009008139371871948,0.020963668823242188
1761370565370031400,8.71703125,-0.004550933837890625,0.006183743476867676,0.008687496185302734
1761370565388642600,8.735642578125,-0.009082794189453125,0.028965815901756287,0.008437633514404297
1761370565407255300,8.75425537109375,0.0006866455078125,0.030044779181480408,0.0022270679473876953
1761370565425866500,8.772866455078125,-0.02234935760498047,0.024704769253730774,-0.0003197193145751953
1761370565444479200,8.791479248046874,-0.01894378662109375,0.008317947387695312,0.0015572309494018555
1761370565463090400,8.81009033203125,-0.018296241760253906,0.0017369091510772705,-0.002668142318725586
1761370565481703200,8.828703125,-0.0015316009521484375,-0.019435197114944458,0.0007872581481933594
1761370565500314400,8.847314453125,0.0100250244140625,-0.01931174099445343,0.004448652267456055
1761370565518927000,8.865927001953125,-0.0019979476928710938,-0.012058824300765991,0.016109108924865723
1761370565537538300,8.884538330078126,-0.0203399658203125,-0.0018219053745269775,0.01682746410369873
1761370565556151300,8.9031513671875,-0.010120391845703125,-0.0010275840759277344,-0.00611114501953125
1761370565574762200,8.92176220703125,-0.0027599334716796875,-0.01692560315132141,-0.010761857032775879
1761370565593375200,8.940375244140625,0.006432533264160156,-0.00954100489616394,-0.0017777681350708008
1761370565611986400,8.958986328125,0.006104469299316406,0.006352424621582031,-0.004891753196716309
1761370565630599200,8.97759912109375,-0.005833625793457031,0.0008990615606307983,-0.002292037010192871
1761370565649210400,8.99621044921875,-0.023981094360351562,0.010353177785873413,-0.0036426782608032227
1761370565667823000,9.014822998046874,0.00016498565673828125,0.0053262412548065186,0.002002716064453125
1761370565686434300,9.033434326171875,-0.0020780563354492188,0.00005333125591278076,0.005176186561584473
1761370565705047000,9.052047119140624,0.0005903244018554688,-0.004973024129867554,0.008043646812438965
1761370565723658200,9.070658203125,0.009989738464355469,0.006402432918548584,-0.019409537315368652
1761370565742271000,9.08927099609375,-0.011235237121582031,-0.0035390704870224,0.0008747577667236328
1761370565760882200,9.107882080078125,-0.031676292419433594,-0.001031145453453064,0.009093761444091797
1761370565779495000,9.126494873046875,-0.014165878295898438,-0.007469847798347473,0.008970499038696289
1761370565798106000,9.145106201171876,0.004925727844238281,0.008804664015769958,0.017708420753479004
1761370565816719000,9.163718994140625,0.023258209228515625,0.014598250389099121,0.014187097549438477
1761370565835330000,9.182330078125,0.006155967712402344,0.020307689905166626,0.020575761795043945
1761370565853943000,9.200943115234375,-0.017213821411132812,0.038242727518081665,0.030502915382385254
1761370565872554200,9.21955419921875,-0.01865386962890625,0.03530105948448181,0.017005324363708496
1761370565891167000,9.2381669921875,-0.008736610412597656,0.004346087574958801,-0.006511569023132324
1761370565909778200,9.256778076171875,0.005382537841796875,-0.02658231556415558,-0.019054174423217773
1761370565928391000,9.275390869140624,0.0050296783447265625,-0.026575803756713867,-0.0007221698760986328
1761370565947002000,9.294002197265625,-0.013680458068847656,-0.011667206883430481,0.009038090705871582
1761370565965614800,9.31261474609375,-0.015515327453613281,0.0013523101806640625,0.02064073085784912
1761370565984226000,9.33122607421875,-0.0036373138427734375,-0.00037954747676849365,0.008923888206481934
1761370566002838800,9.3498388671875,0.021821975708007812,-0.01462063193321228,0.00677943229675293
1761370566021450000,9.368449951171876,-0.013758659362792969,-0.014134138822555542,-0.008449435234069824
1761370566040063000,9.38706298828125,-0.02435779571533203,0.0012901276350021362,0.00025594234466552734
1761370566058674200,9.405674072265626,0.009673118591308594,0.02268029749393463,-0.02089524269104004
1761370566077287000,9.424286865234375,0.03014659881591797,-0.0025764554738998413,-0.04138839244842529
1761370566095898000,9.442898193359374,0.0009412765502929688,0.021643519401550293,-0.0201413631439209
1761370566114510800,9.4615107421875,-0.010763168334960938,0.02509978413581848,-0.00580596923828125
1761370566133122000,9.4801220703125,-0.012612342834472656,0.022023484110832214,0.016314029693603516
1761370566151734800,9.49873486328125,-0.007349967956542969,0.007304742932319641,0.016605496406555176
1761370566170346000,9.517345947265625,-0.000011444091796875,-0.0026991665363311768,0.015933752059936523
1761370566188958700,9.535958740234374,0.006819725036621094,-0.010417446494102478,0.014533519744873047
1761370566207570000,9.55456982421875,-0.012167930603027344,-0.0197218656539917,0.02043008804321289
1761370566226183000,9.573182861328124,-0.009400367736816406,-0.0049379318952560425,0.02426433563232422
1761370566244794000,9.591794189453125,-0.0021123886108398438,-0.009218782186508179,0.013908028602600098
1761370566263406800,9.61040673828125,0.007168769836425781,-0.0037293583154678345,0.015564441680908203
1761370566282018000,9.62901806640625,0.01870441436767578,0.0060903578996658325,0.024672508239746094
1761370566300630800,9.647630859375,0.0017995834350585938,0.0015628188848495483,0.01782679557800293
1761370566319242000,9.666241943359376,0.0042629241943359375,-0.0004901587963104248,0.011383295059204102
1761370566337854700,9.684854736328125,0.004364013671875,-0.009548336267471313,-0.002241373062133789
1761370566356466000,9.7034658203125,-0.005084037780761719,-0.004193708300590515,-0.01073002815246582
1761370566375079000,9.722078857421875,0.011325836181640625,0.0007752180099487305,-0.03656816482543945
1761370566393690000,9.740690185546875,0.006056785583496094,-0.0015316307544708252,-0.013200998306274414
1761370566412302800,9.759302734375,-0.015230178833007812,0.017656594514846802,0.007648468017578125
1761370566430914000,9.7779140625,-0.0076732635498046875,0.024841919541358948,0.019040942192077637
1761370566449526800,9.79652685546875,0.0042095184326171875,0.008561000227928162,-0.005116701126098633
1761370566468138000,9.815137939453125,0.022413253784179688,0.010933831334114075,0.016634583473205566
1761370566486750700,9.833750732421874,0.02610492706298828,0.0006721764802932739,0.031070470809936523
1761370566505362000,9.85236181640625,0.0021495819091796875,-0.006679028272628784,0.03403890132904053
1761370566523974700,9.870974609375,-0.013601303100585938,-0.01269841194152832,0.003699064254760742
1761370566542585900,9.8895859375,0.020087242126464844,-0.021748527884483337,-0.020850419998168945
1761370566561198800,9.90819873046875,0.019974708557128906,-0.015286743640899658,-0.02126920223236084
1761370566579810000,9.92681005859375,-0.010662078857421875,0.007828041911125183,-0.029819130897521973
1761370566598422800,9.9454228515625,-0.01699352264404297,-0.0038181692361831665,-0.025638699531555176
1761370566617034000,9.964033935546874,0.046611785888671875,-0.014410600066184998,-0.02746284008026123
1761370566635646700,9.982646728515626,0.009556770324707031,0.009688213467597961,0.007300972938537598
1761370566654258000,10.0012578125,-0.025798797607421875,0.015156567096710205,0.027047157287597656
1761370566672871000,10.019870849609376,0.007941246032714844,0.018800482153892517,0.03821265697479248
1761370566691482000,10.038482177734375,0.005427360534667969,0.005517810583114624,0.024166107177734375
1761370566710094800,10.0570947265625,-0.029692649841308594,0.00040414929389953613,0.005545139312744141
1761370566728706000,10.0757060546875,0.008698463439941406,-0.01629498600959778,-0.0090179443359375
1761370566747318800,10.09431884765625,0.022428512573242188,-0.014010027050971985,-0.0019423961639404297
1761370566765930000,10.112929931640625,0.045357704162597656,-0.0029962658882141113,0.016481757164001465
1761370566784542700,10.131542724609375,0.02797412872314453,0.0002638101577758789,0.0027047395706176758
1761370566803154000,10.15015380859375,-0.026360511779785156,0.006430506706237793,0.0017957687377929688
1761370566821767000,10.168766845703125,-0.034888267517089844,0.012964397668838501,0.02239203453063965
1761370566840378000,10.187378173828124,-0.029209136962890625,0.024513453245162964,0.048454999923706055
1761370566858990800,10.205990966796875,-0.011813163757324219,-0.010557949542999268,0.012014150619506836
1761370566877602000,10.22460205078125,0.021513938903808594,-0.016167372465133667,0.018518567085266113
1761370566896214800,10.24321484375,0.04448413848876953,-0.0016001313924789429,0.004175782203674316
1761370566914826000,10.261825927734375,0.005743980407714844,0.02164006233215332,0.0025975704193115234
1761370566933438700,10.280438720703126,-0.011000633239746094,0.03700685501098633,-0.03703749179840088
1761370566952050000,10.2990498046875,-0.02986907958984375,0.024029433727264404,-0.032514333724975586
1761370566970663000,10.317662841796874,-0.005855560302734375,0.021389365196228027,-0.005831360816955566
1761370566989274000,10.336274169921875,0.005931854248046875,0.012841016054153442,0.03732705116271973
1761370567007886800,10.354886962890625,-0.026338577270507812,0.003619551658630371,0.057831525802612305
1761370567026498000,10.373498046875,0.012063026428222656,-0.02697545289993286,0.014792084693908691
1761370567045110800,10.39211083984375,0.036907196044921875,-0.026360586285591125,-0.036481499671936035
1761370567063722000,10.410721923828126,0.016938209533691406,-0.008221715688705444,-0.012839436531066895
1761370567082335000,10.4293349609375,0.05222797393798828,0.0017174780368804932,0.0211336612701416
1761370567100946200,10.4479462890625,-0.023299217224121094,0.0045981258153915405,0.001702427864074707
1761370567119559000,10.466558837890625,-0.01883220672607422,-0.005410254001617432,0.021477580070495605
1761370567138170000,10.485170166015624,0.08505058288574219,-0.03226882219314575,-0.0255051851272583
1761370567156782800,10.503782958984376,0.003398895263671875,-0.03551103174686432,-0.0008786916732788086
1761370567175394000,10.52239404296875,-0.08237552642822266,0.0035529136657714844,-0.010193586349487305
1761370567194007000,10.541007080078124,-0.038046836853027344,0.016424790024757385,-0.04382956027984619
1761370567212618200,10.5596181640625,0.006339073181152344,0.0064447373151779175,-0.030188679695129395
1761370567231231000,10.57823095703125,0.01918315887451172,0.01470521092414856,-0.0018410682678222656
1761370567249842200,10.59684228515625,-0.002620697021484375,0.021062403917312622,0.03606915473937988
1761370567268455000,10.615454833984375,-0.009395599365234375,0.02171945571899414,0.04016077518463135
1761370567287066000,10.634066162109375,0.009545326232910156,0.006408631801605225,0.011022686958312988
1761370567305678800,10.652678955078125,0.025135040283203125,-0.00244314968585968,-0.005501985549926758
1761370567324290000,10.6712900390625,0.01675701141357422,-0.009523749351501465,0.0029829740524291992
1761370567342903000,10.689903076171875,0.008780479431152344,-0.016144871711730957,0.006650328636169434
1761370567361514200,10.70851416015625,-0.00131988525390625,-0.006263419985771179,0.01563441753387451
1761370567380127000,10.727126953125,0.0032167434692382812,0.014470502734184265,0.01580655574798584
1761370567398738200,10.74573828125,-0.02988910675048828,0.004793241620063782,0.0069904327392578125
1761370567417351000,10.764350830078126,-0.03847694396972656,0.0035870373249053955,-0.009189128875732422
1761370567435962000,10.782962158203125,0.01836681365966797,0.009132325649261475,0.011589765548706055
1761370567454575000,10.8015751953125,0.043041229248046875,0.0023098737001419067,0.01595616340637207
1761370567473186300,10.820186279296875,0.04614067077636719,-0.011331543326377869,0.04311800003051758
1761370567491799000,10.838799072265624,0.021314620971679688,-0.0011987537145614624,0.01657545566558838
1761370567510410200,10.85741015625,-0.007348060607910156,-0.0037502646446228027,-0.016626477241516113
1761370567529023000,10.87602294921875,-0.02576923370361328,-0.015019267797470093,-0.04026508331298828
1761370567547634200,10.89463427734375,0.0217437744140625,-0.016871139407157898,-0.03279531002044678
1761370567566247000,10.913246826171875,0.05102348327636719,-0.003772735595703125,-0.009329080581665039
1761370567584858000,10.931858154296876,0.023383140563964844,0.015601634979248047,0.010033369064331055
1761370567603471000,10.95047119140625,-0.01972675323486328,0.009228885173797607,0.04032742977142334
1761370567622082300,10.969082275390624,-0.014451026916503906,0.006231963634490967,0.04722714424133301
1761370567640695000,10.987695068359375,0.037960052490234375,-0.018190324306488037,0.07435071468353271
1761370567659306200,11.00630615234375,0.05415916442871094,-0.018652260303497314,0.06828248500823975
1761370567677919000,11.0249189453125,0.00005817413330078125,-0.00431416928768158,0.03838241100311279
1761370567696530200,11.0435302734375,-0.043387413024902344,-0.004061892628669739,-0.03702676296234131
1761370567715143200,11.06214306640625,-0.04918098449707031,-0.01347912847995758,-0.09395396709442139
1761370567733754400,11.08075439453125,-0.0037078857421875,-0.013781934976577759,-0.07144176959991455
1761370567752367000,11.0993671875,0.026320457458496094,0.025554940104484558,-0.017364978790283203
1761370567770978300,11.117978271484375,-0.019220352172851562,0.057764530181884766,0.019215822219848633
1761370567789591000,11.136591064453125,-0.04449748992919922,0.08327591419219971,0.029646754264831543
1761370567808202200,11.1552021484375,0.026343345642089844,0.06481865048408508,0.02967691421508789
1761370567826815000,11.17381494140625,0.006092071533203125,0.021049171686172485,-0.00018656253814697266
1761370567845426200,11.19242626953125,-0.010711669921875,-0.02488347887992859,-0.004473567008972168
1761370567864039200,11.2110390625,0.0035247802734375,-0.038461580872535706,-0.00041043758392333984
1761370567882650400,11.229650390625,0.04791259765625,-0.04393395781517029,-0.00912022590637207
1761370567901263000,11.24826318359375,0.02527904510498047,-0.040677815675735474,-0.0003294944763183594
1761370567919874300,11.266874267578125,-0.02895832061767578,-0.01311086118221283,0.021202802658081055
1761370567938487000,11.285487060546876,-0.0023193359375,0.011442422866821289,0.01985478401184082
1761370567957098200,11.30409814453125,0.06785106658935547,-0.005898207426071167,0.006131649017333984
1761370567975711200,11.322711181640624,0.11706066131591797,-0.10122965276241302,-0.04797828197479248
1761370567994322400,11.341322509765625,-0.15087509155273438,-0.13282588124275208,-0.17446279525756836
1761370568012935200,11.35993505859375,-0.2165203094482422,0.07395070791244507,0.03012549877166748
1761370568031546400,11.37854638671875,0.22766685485839844,0.10063797235488892,0.14769470691680908
1761370568050159000,11.3971591796875,0.15382099151611328,0.10002166032791138,0.14851462841033936
1761370568068770300,11.415770263671876,-0.06729793548583984,0.12285444140434265,0.19785869121551514
1761370568087383300,11.43438330078125,-0.07173442840576172,0.04981708526611328,0.09820270538330078
1761370568105994200,11.452994140625,-0.09314823150634766,-0.09219086170196533,-0.1277252435684204
1761370568124607200,11.471607177734375,-0.1175851821899414,-0.10075263679027557,-0.18886637687683105
1761370568143218400,11.490218505859374,0.07141685485839844,-0.055062100291252136,-0.11244750022888184
1761370568161831200,11.5088310546875,0.1642446517944336,-0.013762235641479492,-0.04395031929016113
1761370568180442400,11.5274423828125,0.0545196533203125,0.0038673430681228638,-0.003786325454711914
1761370568199055000,11.54605517578125,-0.035475730895996094,0.027702853083610535,0.008938074111938477
1761370568217666300,11.564666259765625,-0.09073638916015625,0.012782126665115356,0.002703428268432617
1761370568236279300,11.583279296875,-0.0677480697631836,-0.022084638476371765,0.01879405975341797
1761370568254890500,11.601890380859375,0.0060672760009765625,-0.017567232251167297,0.029176950454711914
1761370568273503200,11.620503173828125,0.05685615539550781,-0.0038044601678848267,0.052483201026916504
1761370568292114400,11.639114501953125,0.05282402038574219,0.03000122308731079,0.061840057373046875
1761370568310727200,11.65772705078125,0.03280448913574219,0.04892875254154205,0.060617804527282715
1761370568329338400,11.67633837890625,-0.007456779479980469,0.04038521647453308,-0.01569199562072754
1761370568347951400,11.694951416015625,0.009299278259277344,0.003173917531967163,-0.06596994400024414
1761370568366562600,11.7135625,0.018053054809570312,-0.018557339906692505,-0.05495715141296387
1761370568385175300,11.73217529296875,-0.017724990844726562,0.008741617202758789,0.011183023452758789
1761370568403786500,11.750786376953124,-0.04555034637451172,0.01985296607017517,0.05034530162811279
1761370568422399200,11.769399169921876,-0.02817535400390625,-0.008016601204872131,0.02298271656036377
1761370568441010400,11.788010498046875,0.021106719970703125,-0.05820216238498688,0.03146374225616455
1761370568459623200,11.806623046875,0.04876708984375,-0.052596673369407654,0.0312197208404541
1761370568478234400,11.825234375,0.04969501495361328,-0.031569838523864746,0.006795406341552734
1761370568496847400,11.843847412109374,0.025094032287597656,-0.02379012107849121,-0.009872198104858398
1761370568515458600,11.86245849609375,0.007899284362792969,-0.021842777729034424,-0.05438864231109619
1761370568534071300,11.8810712890625,-0.013629913330078125,-0.013350024819374084,-0.05840110778808594
1761370568552682500,11.8996826171875,-0.029237747192382812,0.019156023859977722,-0.018213987350463867
1761370568571295200,11.918295166015625,-0.0021524429321289062,0.030484825372695923,0.010823488235473633
1761370568589906400,11.936906494140626,0.014544486999511719,0.022305160760879517,0.021373271942138672
1761370568608519400,11.95551953125,0.0233001708984375,-0.009596139192581177,0.013440370559692383
1761370568627130600,11.974130615234374,-0.0056667327880859375,0.006074011325836182,0.035902976989746094
1761370568645743400,11.992743408203125,-0.005171775817871094,0.028584063053131104,0.05654752254486084
1761370568664354600,12.0113544921875,-0.02100372314453125,0.03014238178730011,0.08993327617645264
1761370568682967300,12.02996728515625,-0.012630462646484375,0.037272676825523376,0.09307444095611572
1761370568701578500,12.04857861328125,-0.0048999786376953125,0.025693610310554504,0.022953152656555176
1761370568720191200,12.067191162109374,-0.004494667053222656,-0.01157940924167633,-0.05151641368865967
1761370568738802400,12.085802490234375,0.0073394775390625,-0.02713198959827423,-0.07505178451538086
1761370568757415400,12.10441552734375,-0.0021085739135742188,-0.01577131450176239,-0.061917901039123535
1761370568776026600,12.123026611328125,0.002796173095703125,-0.003898605704307556,-0.04020559787750244
1761370568794639400,12.141639404296875,0.03066539764404297,-0.0030051767826080322,-0.04397857189178467
1761370568813250600,12.16025048828125,0.010494232177734375,-0.015230551362037659,-0.04496598243713379
1761370568831863300,12.17886328125,-0.008976936340332031,-0.02232794463634491,-0.025577425956726074
1761370568850474500,12.197474609375,-0.011316299438476562,-0.013864874839782715,0.015059709548950195
1761370568869087200,12.216087158203125,0.0098724365234375,-0.003119155764579773,0.050360679626464844
1761370568887698400,12.234698486328124,0.03514289855957031,0.0018804818391799927,0.0697488784790039
1761370568906311400,12.2533115234375,0.03422832489013672,-0.005496993660926819,0.057735323905944824
1761370568924922600,12.271922607421875,0.0010156631469726562,-0.0031512975692749023,0.02265012264251709
1761370568943535400,12.290535400390626,-0.02857494354248047,-0.002559870481491089,0.01742684841156006
1761370568962146600,12.309146484375,-0.010540962219238281,0.010045409202575684,0.011731982231140137
1761370568980759300,12.32775927734375,0.010951995849609375,0.0033048391342163086,-0.029067516326904297
1761370568999370500,12.34637060546875,-0.003414154052734375,-0.01781947910785675,-0.04934060573577881
1761370569017983200,12.364983154296874,0.0013818740844726562,-0.012236937880516052,-0.05266904830932617
1761370569036594400,12.383594482421875,0.024550437927246094,-0.008083537220954895,-0.018884897232055664
1761370569055207400,12.40220751953125,0.009081840515136719,-0.011042818427085876,-0.015023469924926758
1761370569073818600,12.420818603515626,0.001384735107421875,0.0163424015045166,-0.0025295019149780273
1761370569092431400,12.439431396484375,0.01727008819580078,0.04018689692020416,0.02538919448852539
1761370569111042600,12.45804248046875,-0.0139923095703125,0.045556604862213135,0.030028104782104492
1761370569129655300,12.4766552734375,-0.05018901824951172,0.06460496783256531,0.04875051975250244
1761370569148266500,12.4952666015625,0.025078773498535156,0.0684485137462616,0.06270265579223633
1761370569166879500,12.51387939453125,0.033898353576660156,-0.02874472737312317,0.015839457511901855
