time,seconds_elapsed,z,y,x
1761311035749738500,0.209738525390625,-0.2748812735080719,-0.38964420557022095,-0.26342788338661194
1761311035768349700,0.228349609375,-0.3023693859577179,-0.37437301874160767,-0.21211670339107513
1761311035786962400,0.24696240234375,-0.31031039357185364,-0.35116082429885864,-0.16996824741363525
1761311035805573600,0.26557373046875,-0.33291175961494446,-0.3694862425327301,-0.13148486614227295
1761311035824186400,0.284186279296875,-0.390942245721817,-0.44400960206985474,-0.12781979143619537
1761311035842797600,0.302797607421875,-0.42759308218955994,-0.48188212513923645,-0.1626380831003189
1761311035861410300,0.321410400390625,-0.37139514088630676,-0.5118136405944824,-0.21822518110275269
1761311035880021500,0.340021484375,-0.2602209448814392,-0.4721085727214813,-0.24632415175437927
1761311035898634200,0.35863427734375,-0.1692046970129013,-0.3578801453113556,-0.20967331528663635
1761311035917245400,0.377245361328125,-0.12339114397764206,-0.1471378356218338,-0.1382041871547699
1761311035935858200,0.395858154296875,-0.12339114397764206,-0.031076854094862938,-0.07956285774707794
1761311035954469600,0.4144697265625,-0.1569877415895462,-0.14102935791015625,-0.09239064902067184
1761311035973082000,0.43308203125,-0.24189551174640656,-0.3682645559310913,-0.22066856920719147
1761311035991693300,0.451693359375,-0.3408527672290802,-0.4745519757270813,-0.3996468186378479
1761311036010306300,0.470306396484375,-0.44958359003067017,-0.3584909737110138,-0.5468609929084778
1761311036028917500,0.48891748046875,-0.4862344264984131,-0.022524992004036903,-0.6116108298301697
1761311036047530200,0.5075302734375,-0.41171106696128845,0.13201937079429626,-0.6952968835830688
1761311036066141400,0.526141357421875,-0.3176405727863312,0.01046075951308012,-0.8382351398468018
1761311036084754200,0.544754150390625,-0.3304683566093445,-0.20944425463676453,-0.8681666851043701
1761311036103365400,0.563365478515625,-0.4330907166004181,-0.3676536977291107,-0.747218906879425
1761311036121978000,0.58197802734375,-0.42576053738594055,-0.4776062071323395,-0.673306405544281
1761311036140589300,0.60058935546875,-0.2987042963504791,-0.6107708811759949,-0.7356128096580505
1761311036159202000,0.6192021484375,-0.10262233763933182,-0.45256146788597107,-0.7869240045547485
1761311036177813200,0.637813232421875,0.15149012207984924,0.10636378079652786,-0.8046385645866394
1761311036196426000,0.656426025390625,0.2351761907339096,0.6145886778831482,-0.7722636461257935
1761311036215037200,0.675037109375,0.0525328628718853,0.8106706738471985,-0.6861341595649719
1761311036233650000,0.69364990234375,-0.21257483959197998,0.49180838465690613,-0.654370129108429
1761311036252261000,0.71226123046875,-0.2736595869064331,0.1949366331100464,-0.6769714951515198
1761311036270873900,0.730873779296875,-0.1960819661617279,0.05688514932990074,-0.62627112865448
1761311036289485300,0.7494853515625,-0.10934165865182877,0.08009734749794006,-0.42041563987731934
1761311036308097800,0.768097900390625,-0.0659715011715889,0.1143047958612442,-0.17241163551807404
1761311036326709200,0.786709228515625,-0.13866232335567474,0.030007870867848396,0.018249060958623886
1761311036345322000,0.805322021484375,-0.2583884000778198,-0.09338327497243881,0.11781716346740723
1761311036363933200,0.82393310546875,-0.284654825925827,-0.1624090075492859,0.19111883640289307
1761311036382546000,0.8425458984375,-0.2211267054080963,-0.2686964273452759,0.2638096511363983
1761311036401157000,0.8611572265625,-0.24494975805282593,-0.3713187873363495,0.3939201235771179
1761311036419769900,0.879769775390625,-0.43981003761291504,-0.5460211038589478,0.5527403950691223
1761311036438381000,0.898381103515625,-0.6493306159973145,-0.8386169075965881,0.6345939636230469
1761311036456993800,0.916993896484375,-0.7886037826538086,-0.9986588954925537,0.6828508973121643
1761311036475605000,0.93560498046875,-0.7519529461860657,-0.8105179667472839,0.7885274291038513
1761311036494217700,0.9542177734375,-0.5558710098266602,-0.24304085969924927,0.9699490666389465
1761311036512829200,0.9728291015625,-0.45080527663230896,0.35558944940567017,1.2026818990707397
1761311036531442000,0.99144189453125,-0.45324867963790894,0.6866686940193176,1.3963204622268677
1761311036550053000,1.01005322265625,-0.4947862923145294,0.8082273006439209,1.4427448511123657
1761311036568665900,1.028665771484375,-0.5363239049911499,0.42339351773262024,1.3346248865127563
1761311036587277000,1.047277099609375,-0.7324058413505554,-0.4085804522037506,0.9693382382392883
1761311036605889800,1.065889892578125,-0.7892146706581116,-0.5478536486625671,0.2387649267911911
1761311036624501000,1.0845009765625,-0.4477510452270508,0.3897969126701355,-0.4387410581111908
1761311036643113700,1.10311376953125,0.054365407675504684,1.585301399230957,-0.705681324005127
1761311036661725000,1.121724853515625,0.43981003761291504,1.7001405954360962,-0.7264500856399536
1761311036680337700,1.140337646484375,0.4819584786891937,1.1032664775848389,-0.6439857482910156
1761311036698949000,1.15894921875,0.2651077210903168,0.4948626458644867,-0.6745280623435974
1761311036717561900,1.177561767578125,0.21562908589839935,-0.2131093442440033,-1.047144889831543
1761311036736173000,1.196173095703125,0.3286358118057251,-1.0365314483642578,-1.6427209377288818
1761311036754785800,1.214785888671875,0.13866232335567474,-1.6352381706237793,-1.9371494054794312
1761311036773397000,1.23339697265625,-0.47585001587867737,-1.8869072198867798,-1.6738742589950562
1761311036792009700,1.252009765625,-0.9785773158073425,-2.039008140563965,-1.0563076734542847
1761311036810621000,1.270620849609375,-1.0561549663543701,-1.7201459407806396,-0.2536543309688568
1761311036829233700,1.289233642578125,-1.0567657947540283,-0.6272637844085693,0.5557946562767029
1761311036847845000,1.30784521484375,-1.045770525932312,-0.035352785140275955,0.8105179667472839
1761311036866457900,1.326457763671875,-0.883895993232727,-0.10560022294521332,0.3554367423057556
1761311036885069000,1.345069091796875,-0.7617265582084656,-0.3193967640399933,-0.23899398744106293
1761311036903681800,1.363681884765625,-0.41171106696128845,-0.308401495218277,-0.5560237169265747
1761311036922293000,1.38229296875,-0.2223484069108963,-0.44339874386787415,-0.5615213513374329
1761311036940905700,1.40090576171875,-0.06413896381855011,-0.4134672284126282,-0.19379130005836487
1761311036959517000,1.419516845703125,-0.009773556143045425,-0.2796916961669922,0.37559470534324646
1761311036978129700,1.438129638671875,-0.00916270911693573,0.17050273716449738,1.0163735151290894
1761311036996740900,1.456740966796875,0.05864133685827255,0.5095229744911194,1.607062816619873
1761311037015353900,1.475353759765625,0.22662433981895447,0.47775891423225403,1.9821230173110962
1761311037033965000,1.493965087890625,0.28037887811660767,0.0892600566148758,2.1036815643310547
1761311037052577800,1.512577880859375,0.17836740612983704,0.01046075951308012,2.2362353801727295
1761311037071189000,1.53118896484375,0.09956810623407364,0.7514184713363647,2.5282204151153564
1761311037089801700,1.5498017578125,0.21623992919921875,1.4710729122161865,2.768359661102295
1761311037108413000,1.568412841796875,0.2742704153060913,1.5394878387451172,2.6552767753601074
1761311037127025700,1.587025634765625,0.08674030750989914,1.0012550354003906,2.023049831390381
1761311037145636900,1.605636962890625,0.06658235192298889,0.40934401750564575,1.0609652996063232
1761311037164249900,1.624249755859375,0.2852656841278076,-0.4482855200767517,0.03718532621860504
1761311037182861000,1.642861083984375,0.46485477685928345,-1.4268628358840942,-0.9457442760467529
1761311037201473800,1.661473876953125,0.497229665517807,-2.0848217010498047,-1.7593928575515747
1761311037220085000,1.6800849609375,0.48012593388557434,-2.2894554138183594,-2.2987709045410156
1761311037238697700,1.69869775390625,0.36223241686820984,-1.7867282629013062,-2.3250374794006348
1761311037257309000,1.717308837890625,0.10017894953489304,-0.5160895586013794,-1.9420361518859863
1761311037275921700,1.735921630859375,-0.26938363909721375,0.794788658618927,-1.562089204788208
1761311037294533000,1.754533203125,-0.5625903010368347,1.3226370811462402,-1.389830231666565
1761311037313145900,1.773145751953125,-0.5772506594657898,1.2578872442245483,-1.2688825130462646
1761311037331757000,1.791757080078125,-0.4593571424484253,0.8919133543968201,-1.0495883226394653
1761311037350369800,1.810369873046875,-0.3384093940258026,0.4979168772697449,-0.8321266770362854
1761311037368981000,1.82898095703125,-0.22845686972141266,0.271903395652771,-0.6879667043685913
1761311037387593700,1.84759375,-0.2235700935125351,0.2584647536277771,-0.49921491742134094
1761311037406205000,1.866204833984375,-0.38483378291130066,0.3867426812648773,-0.2530434727668762
1761311037424818000,1.88481787109375,-0.5943543910980225,0.558390736579895,0.007253811229020357
1761311037443429000,1.90342919921875,-0.6224533319473267,0.6231405735015869,0.2112767994403839
1761311037462041900,1.922041748046875,-0.4227063059806824,0.4539358615875244,0.35177165269851685
1761311037480653000,1.940653076171875,-0.15026842057704926,0.1527881771326065,0.5735092163085938
1761311037499265800,1.959265869140625,0.08063183724880219,-0.2674747407436371,1.0078216791152954
1761311037517877000,1.977876953125,0.21501824259757996,-0.49715331196784973,1.624166488647461
1761311037536489700,1.99648974609375,0.09040539711713791,-0.40491536259651184,2.1268937587738037
1761311037555101200,2.01510107421875,-0.1954711228609085,-0.5551838278770447,2.0859670639038086
1761311037573714000,2.0337138671875,-0.4856235682964325,-0.6901810169219971,1.5905698537826538
1761311037592325000,2.0523251953125,-0.6920899152755737,-0.7280535697937012,0.875878632068634
1761311037610937900,2.070937744140625,-0.7146912813186646,-0.5502970218658447,0.2381540685892105
1761311037629549000,2.089549072265625,-0.4691306948661804,-0.16912832856178284,-0.023364907130599022
1761311037648161800,2.108161865234375,-0.1178935244679451,-0.23143476247787476,0.10376767814159393
1761311037666773000,2.12677294921875,0.2644968628883362,-1.051802635192871,0.433625191450119
1761311037685386000,2.145385986328125,0.5589252710342407,-2.21065616607666,0.8166264295578003
1761311037703997200,2.1639970703125,0.61397784948349,-3.115931749343872,1.1434297561645508
1761311037722610000,2.18260986328125,0.41293275356292725,-3.5594069957733154,1.239332675933838
1761311037741221000,2.20122119140625,0.038483377546072006,-3.5392489433288574,0.8508338928222656
1761311037759833900,2.219833740234375,-0.5937435626983643,-3.2448205947875977,-0.27564483880996704
1761311037778445000,2.238445068359375,-1.300493836402893,-2.2057695388793945,-1.5871338844299316
1761311037797057800,2.257057861328125,-1.762905240058899,-0.8972582817077637,-2.3091554641723633
1761311037815669200,2.275669189453125,-1.9088976383209229,0.47714805603027344,-2.3238155841827393
1761311037834282000,2.294281982421875,-1.7793980836868286,1.589577317237854,-1.8174233436584473
1761311037852893200,2.31289306640625,-1.5124578475952148,2.034274101257324,-1.2175712585449219
1761311037871506000,2.331505859375,-1.2418525218963623,1.9359276294708252,-0.7270609736442566
1761311037890117000,2.3501171875,-1.0030112266540527,1.5633108615875244,-0.21333840489387512
1761311037908729900,2.368729736328125,-0.730573296546936,1.2646065950393677,0.4085804522037506
1761311037927341300,2.38734130859375,-0.3646758198738098,1.044625163078308,1.0780690908432007
1761311037945954000,2.4059541015625,-0.037261683493852615,0.8827506303787231,1.550864815711975
1761311037964565200,2.424565185546875,-0.017714571207761765,0.6854469776153564,1.578352928161621
1761311037983178000,2.443177978515625,-0.4190412163734436,0.3354314863681793,1.1336561441421509
1761311038001789200,2.4617890625,-1.0616525411605835,0.1808871477842331,0.7048413753509521
1761311038020402000,2.48040185546875,-1.822768211364746,-0.06100837141275406,0.3310028612613678
1761311038039013400,2.499013427734375,-2.3787155151367188,-0.18073442578315735,-0.17424418032169342
1761311038057626000,2.517626220703125,-2.613891839981079,0.6188646554946899,-0.48333290219306946
1761311038076237300,2.5362373046875,-2.5363142490386963,1.7074707746505737,-0.3080197274684906
1761311038094850000,2.55485009765625,-2.1893529891967773,1.8809514045715332,0.1862320601940155
1761311038113461200,2.573461181640625,-2.00785493850708,1.0495119094848633,0.7683694958686829
1761311038132074000,2.592073974609375,-2.0965042114257812,-0.3926984369754791,1.0035456418991089
1761311038150685400,2.610685546875,-2.199737310409546,-1.8630841970443726,0.723166823387146
1761311038169298200,2.629298095703125,-2.2858667373657227,-3.0976064205169678,0.02435753494501114
1761311038187909400,2.647909423828125,-2.3756613731384277,-3.765873432159424,-0.8192988634109497
1761311038206522000,2.666522216796875,-2.3866565227508545,-3.7041778564453125,-1.3183610439300537
1761311038225133300,2.68513330078125,-2.150258779525757,-2.8593759536743164,-1.1039537191390991
1761311038243746300,2.703746337890625,-1.5784293413162231,-2.056722640991211,-0.3312319219112396
1761311038262357500,2.722357421875,-1.0622633695602417,-1.582094430923462,0.769591212272644
1761311038280970200,2.74097021484375,-0.943759024143219,-1.5228421688079834,1.9686843156814575
1761311038299581400,2.75958154296875,-1.1276240348815918,-1.1696960926055908,2.90396785736084
1761311038318194200,2.778194091796875,-1.428771734237671,-0.4238516390323639,3.309570550918579
1761311038336805400,2.796805419921875,-1.6211886405944824,0.20165595412254333,3.2417664527893066
1761311038355418000,2.815418212890625,-1.673721432685852,0.007406522985547781,2.8538784980773926
1761311038374029600,2.834029541015625,-1.534448266029358,-0.5069268941879272,2.3865039348602295
1761311038392642300,2.852642333984375,-1.2418525218963623,-1.0682954788208008,1.8593426942825317
1761311038411253500,2.87125341796875,-1.1056334972381592,-1.656006932258606,1.1953517198562622
1761311038429866200,2.8898662109375,-1.0408837795257568,-2.2375335693359375,0.5502970218658447
1761311038448477400,2.9084775390625,-0.9608627557754517,-2.627254009246826,0.1477486789226532
1761311038467090400,2.92709033203125,-1.0274450778961182,-2.178281307220459,-0.04840964451432228
1761311038485701600,2.94570166015625,-1.009730577468872,-1.734195351600647,0.09155073016881943
1761311038504314400,2.964314453125,-1.0433270931243896,-1.2472738027572632,0.49654245376586914
1761311038522925600,2.982925537109375,-1.1117420196533203,-0.7066739201545715,0.801355242729187
1761311038541538300,3.001538330078125,-1.0060654878616333,-0.24976016581058502,0.5429668426513672
1761311038560149500,3.0201494140625,-0.4746283292770386,0.21692712604999542,-0.5688515305519104
1761311038578762500,3.038762451171875,0.7355364561080933,2.149113416671753,-1.6641006469726562
1761311038597373700,3.057373779296875,1.7550405263900757,3.6371371746063232,-2.0269439220428467
1761311038615986400,3.075986328125,2.075735330581665,2.6255741119384766,-1.870566964149475
1761311038634597600,3.09459765625,1.5925551652908325,0.8216659426689148,-2.0721466541290283
1761311038653210400,3.11321044921875,1.1710705757141113,0.9346726536750793,-2.5681545734405518
1761311038671821800,3.13182177734375,0.6744517087936401,1.3916627168655396,-3.5865132808685303
1761311038690434600,3.1504345703125,0.07513421028852463,0.22975492477416992,-4.1912522315979
1761311038709045800,3.169045654296875,-0.24250635504722595,-0.9980480670928955,-3.7380034923553467
1761311038727658500,3.187658447265625,-0.6737645268440247,-2.43300461769104,-3.0947813987731934
1761311038746269700,3.206269775390625,-1.0842539072036743,-3.4616713523864746,-3.1821324825286865
1761311038764882700,3.224882568359375,-1.0286667346954346,-3.190455198287964,-3.467398166656494
1761311038783494000,3.243493896484375,-0.7501204609870911,-2.319997787475586,-3.163196086883545
1761311038802106600,3.262106689453125,-0.2724378705024719,-1.5704883337020874,-2.342751979827881
1761311038820717800,3.2807177734375,0.21868331730365753,-0.9980480670928955,-1.4863440990447998
1761311038839330600,3.29933056640625,0.5143333673477173,-1.1690852642059326,-0.6922426819801331
1761311038857942000,3.31794189453125,0.5265503525733948,-1.4134242534637451,-0.08017370104789734
1761311038876554800,3.3365546875,-0.4569137394428253,-0.5252522826194763,-0.14309096336364746
1761311038895166000,3.355166015625,-1.6089717149734497,0.3922402858734131,-0.025808297097682953
1761311038913778700,3.37377880859375,-1.5625473260879517,-0.024968381971120834,0.6419241428375244
1761311038932390000,3.392389892578125,-0.8222004175186157,-0.509981095790863,1.4085373878479004
1761311038951003000,3.4110029296875,-0.13927318155765533,-0.9363524913787842,2.2453982830047607
1761311038969614000,3.429614013671875,0.13560809195041656,-0.745768129825592,2.8770906925201416
1761311038988226800,3.448226806640625,0.06169557198882103,-0.4507289230823517,3.2301602363586426
1761311039006838000,3.466838134765625,-0.23028941452503204,-0.8428928852081299,3.2790281772613525
1761311039025450800,3.48545068359375,-0.856407880783081,-1.4641245603561401,2.8996918201446533
1761311039044062000,3.50406201171875,-1.4397670030593872,-0.8746569156646729,2.1892001628875732
1761311039062675000,3.522675048828125,-1.0518789291381836,0.6432985067367554,1.8752247095108032
1761311039081286100,3.5412861328125,-0.12400199472904205,2.0446584224700928,2.197141170501709
1761311039099899000,3.55989892578125,0.288930743932724,2.1906509399414062,2.1519384384155273
1761311039118510000,3.578510009765625,-0.037261683493852615,1.6060701608657837,1.5313177108764648
1761311039137123000,3.597123046875,-0.26816195249557495,0.7446991801261902,0.41285640001296997
1761311039155734300,3.615734375,-0.038483377546072006,-0.1611873209476471,-1.3269129991531372
1761311039174347000,3.634346923828125,0.8143357634544373,-0.6877376437187195,-3.019036293029785
1761311039192958200,3.652958251953125,1.4801592826843262,-1.0841774940490723,-3.9426372051239014
1761311039211571000,3.671571044921875,1.5161992311477661,-1.4384689331054688,-3.9249227046966553
1761311039230182400,3.690182373046875,1.0348516702651978,-1.55338454246521,-3.368440866470337
1761311039248795100,3.708795166015625,0.5118899941444397,-1.3120235204696655,-2.795466184616089
1761311039267406300,3.72740625,0.16798299551010132,-0.8795437216758728,-2.4685864448547363
1761311039286019000,3.74601904296875,0.01832541823387146,-0.3591018319129944,-2.277391195297241
1761311039304630300,3.76463037109375,0.11606097966432571,0.06482616811990738,-2.0959696769714355
1761311039323243000,3.783242919921875,0.45202696323394775,0.18333053588867188,-1.8308619260787964
1761311039341854500,3.8018544921875,0.6793385148048401,0.2737359404563904,-1.2621631622314453
1761311039360467200,3.82046728515625,0.7098808884620667,0.217537984251976,-0.3984251320362091
1761311039379078400,3.839078369140625,0.5338805317878723,-0.013362283818423748,0.5521295666694641
1761311039397691100,3.857691162109375,0.18142163753509521,-0.4476746916770935,1.3285164833068848
1761311039416302600,3.876302490234375,-0.20585553348064423,-1.0353097915649414,1.6718125343322754
1761311039434915300,3.894915283203125,-0.4844018816947937,-1.2344459295272827,1.5557515621185303
1761311039453526500,3.913526611328125,-0.5638120174407959,-0.8972582817077637,1.346841812133789
1761311039472139300,3.93213916015625,-0.4709632396697998,-0.20944425463676453,1.2985849380493164
1761311039490750500,3.95075048828125,-0.3958290219306946,0.39773792028427124,1.2680425643920898
1761311039509363500,3.969363525390625,-0.5143333673477173,0.8638143539428711,1.199016809463501
1761311039527974700,3.987974609375,-0.6939224600791931,0.8564842343330383,1.1910758018493652
1761311039546587400,4.00658740234375,-0.8783983588218689,0.4838673770427704,1.115330696105957
1761311039565198600,4.025198486328125,-1.0854755640029907,-0.13125580549240112,0.8917606472969055
1761311039583811300,4.043811279296875,-1.294385313987732,-0.49409908056259155,0.5802285671234131
1761311039602422800,4.0624228515625,-1.5686557292938232,-0.5136461853981018,0.07689040154218674
1761311039621035500,4.081035400390625,-1.5124578475952148,-0.17645850777626038,-0.9115368127822876
1761311039639646700,4.099646728515625,-1.035996913909912,0.6683432459831238,-1.935316801071167
1761311039658259500,4.118259521484375,-0.7140804529190063,1.5468180179595947,-2.5559375286102295
1761311039676871000,4.136870849609375,-0.6591041684150696,1.8577392101287842,-2.766756296157837
1761311039695483600,4.155483642578125,-0.8814526200294495,1.4527474641799927,-2.692232847213745
1761311039714094800,4.1740947265625,-1.0946383476257324,0.4948626458644867,-2.2144739627838135
1761311039732707600,4.19270751953125,-1.2656755447387695,-0.6388698816299438,-1.6928104162216187
1761311039751318800,4.21131884765625,-1.2131426334381104,-1.1202175617218018,-1.4038797616958618
1761311039769931800,4.229931884765625,-1.2192511558532715,-0.9662840366363525,-1.2462811470031738
1761311039788543000,4.24854296875,-1.2278029918670654,-0.5961105823516846,-0.8590039610862732
1761311039807155700,4.26715576171875,-1.273005723953247,0.06482616811990738,-0.06184828653931618
1761311039825767000,4.285766845703125,-1.3249276876449585,0.5302917957305908,0.9693382382392883
1761311039844380000,4.3043798828125,-1.2516260147094727,0.47470468282699585,2.008389472961426
1761311039862991000,4.3229912109375,-1.0421054363250732,0.04772244393825531,2.9112980365753174
1761311039881603800,4.341603759765625,-0.7934905886650085,-0.3865899443626404,3.6345412731170654
1761311039900215000,4.360215087890625,-0.5008947253227234,-0.7524874806404114,4.1494855880737305
1761311039918828000,4.378828125,-0.469741553068161,-1.3114126920700073,4.307694911956787
1761311039937439200,4.397439208984375,-0.6511631608009338,-1.5387243032455444,4.093898296356201
1761311039956052000,4.416052001953125,-0.846023440361023,-1.3889902830123901,3.624767541885376
1761311039974663200,4.4346630859375,-0.8893936276435852,-1.2558256387710571,3.445789337158203
1761311039993276000,4.45327587890625,-0.8289197087287903,-0.8593857288360596,3.289412498474121
1761311040011887400,4.471887451171875,-0.8130376935005188,-0.2625879645347595,2.9345102310180664
1761311040030500000,4.4905,-0.9150491952896118,0.271903395652771,2.304039478302002
1761311040049111300,4.509111328125,-1.1190721988677979,0.21020781993865967,1.527652621269226
1761311040067724000,4.52772412109375,-1.2088667154312134,-0.9430717825889587,0.7451573014259338
1761311040086335500,4.54633544921875,-1.321873426437378,-2.247307062149048,0.21921780705451965
1761311040104948200,4.5649482421875,-1.4764177799224854,-2.5154690742492676,0.21677441895008087
1761311040123559400,4.583559326171875,-1.3780714273452759,-1.7409147024154663,0.5570163726806641
1761311040142172200,4.602172119140625,-1.0396620035171509,-0.9552887678146362,0.509981095790863
1761311040160783400,4.620783447265625,-0.6713211536407471,-0.7347729206085205,0.15568970143795013
1761311040179396400,4.639396240234375,-0.44958359003067017,-0.41591063141822815,-0.11499200016260147
1761311040198007600,4.658007568359375,-0.3695625960826874,-0.33650049567222595,-0.2939702570438385
1761311040216620300,4.676620361328125,-0.43919917941093445,-0.23265644907951355,-0.520594596862793
1761311040235231500,4.6952314453125,-0.5943543910980225,0.1289651244878769,-0.8229639530181885
1761311040253844500,4.713844482421875,-0.6823163628578186,0.36902809143066406,-1.0752438306808472
1761311040272455700,4.73245556640625,-0.5754181146621704,0.19921256601810455,-0.9604045748710632
1761311040291068400,4.751068359375,-0.41110020875930786,-0.06100837141275406,-0.6977402567863464
1761311040309679600,4.7696796875,-0.3817795515060425,-0.09032903611660004,-0.5877877473831177
1761311040328292600,4.788292724609375,-0.474017471075058,-0.05428905040025711,-0.7142331600189209
1761311040346903800,4.80690380859375,-0.4856235682964325,0.045889899134635925,-0.8516737818717957
1761311040365516500,4.8255166015625,-0.46302223205566406,0.194325789809227,-0.8131904006004333
1761311040384127700,4.844127685546875,-0.45141613483428955,0.2615189850330353,-0.6366555690765381
1761311040402740700,4.86274072265625,-0.4459185004234314,0.27740100026130676,-0.35505497455596924
1761311040421352000,4.88135205078125,-0.44042086601257324,-0.10254598408937454,0.0555107444524765
1761311040439964700,4.899964599609375,-0.4330907166004181,-0.3835357129573822,0.49226653575897217
1761311040458576000,4.918575927734375,-0.3823903799057007,-0.8428928852081299,0.8740460872650146
1761311040477188900,4.93718896484375,-0.2754921019077301,-1.646233320236206,1.0212602615356445
1761311040495800000,4.955800048828125,-0.0910162404179573,-2.172783613204956,0.9699490666389465
1761311040514412800,4.974412841796875,0.012827792204916477,-1.8429261445999146,1.139764666557312
1761311040533024000,4.99302392578125,-0.02993151545524597,-0.9497911334037781,1.1892433166503906
1761311040551637000,5.011636962890625,-0.129499614238739,-0.4330143630504608,0.3694862425327301
1761311040570248200,5.030248291015625,-0.6804838180541992,-0.546631932258606,-0.5725166201591492
1761311040588861000,5.04886083984375,-1.3053805828094482,-0.7023980021476746,-1.3837217092514038
1761311040607472000,5.06747216796875,-1.0054545402526855,0.6799493432044983,-1.3201936483383179
1761311040626085000,5.086085205078125,-0.1832541823387146,1.71846604347229,-0.48394373059272766
1761311040644696300,5.1046962890625,0.15454435348510742,1.0348516702651978,0.4617241621017456
1761311040663309000,5.12330908203125,-0.1423274129629135,-0.5289173722267151,0.8135721683502197
1761311040681920300,5.141920166015625,-0.30481278896331787,-1.3401225805282593,0.5557946562767029
1761311040700533200,5.160533203125,-0.10628741979598999,-1.4519076347351074,-0.0716218426823616
1761311040719144400,5.17914453125,0.007941014133393764,-1.0261470079421997,-0.964069664478302
1761311040737757200,5.197757080078125,-0.12705622613430023,-0.1874537467956543,-1.8693453073501587
1761311040756368400,5.216368408203125,-0.20707722008228302,0.44599485397338867,-2.3965065479278564
1761311040774981400,5.2349814453125,-0.446529358625412,0.697053074836731,-2.2639527320861816
1761311040793592600,5.253592529296875,-0.9920159578323364,0.7379798293113708,-1.65310537815094
1761311040812205300,5.272205322265625,-1.521620512008667,0.8711445331573486,-0.9475768208503723
1761311040830816500,5.29081640625,-1.6114150285720825,0.7953994870185852,-0.3752129375934601
1761311040849429500,5.309429443359375,-1.252847671508789,0.9175689220428467,0.18317782878875732
1761311040868040700,5.328040771484375,-0.7617265582084656,1.109375,0.7078956365585327
1761311040886653400,5.3466533203125,-0.499673068523407,0.9829295873641968,0.9949938058853149
1761311040905265000,5.365264892578125,-0.41537612676620483,0.669564962387085,0.9968263506889343
1761311040923877600,5.383877685546875,-0.4220954477787018,0.4050680994987488,1.0102649927139282
1761311040942488800,5.40248876953125,-0.3946073353290558,0.19615831971168518,1.2173422574996948
1761311040961101600,5.4211015625,-0.25350162386894226,0.06055023521184921,1.6369942426681519
1761311040979713000,5.439713134765625,-0.03298575058579445,0.009849912486970425,2.352907180786133
1761311040998325800,5.45832568359375,0.22906772792339325,-0.5790068507194519,2.800734758377075
1761311041016937000,5.47693701171875,0.4312581717967987,-1.3187428712844849,2.7402608394622803
1761311041035549700,5.4955498046875,0.46363306045532227,-1.9876970052719116,2.2515065670013428
1761311041054161200,5.5141611328125,0.2504473626613617,-2.0096874237060547,1.5209332704544067
1761311041072774000,5.53277392578125,-0.16859383881092072,-1.1232717037200928,0.8282325267791748
1761311041091385000,5.551385009765625,-0.342074453830719,0.004352286923676729,0.25892287492752075
1761311041109997800,5.569997802734375,-0.2779355049133301,0.6451310515403748,-0.39109495282173157
1761311041128609300,5.588609375,-0.10811996459960938,0.4973060190677643,-1.0966235399246216
1761311041147222000,5.607221923828125,0.15210096538066864,0.18394137918949127,-1.5010044574737549
1761311041165833200,5.625833251953125,0.1704263836145401,0.09170344471931458,-1.3977712392807007
1761311041184446200,5.6444462890625,0.11545012891292572,0.16134002804756165,-0.9665130972862244
1761311041203057400,5.663057373046875,0.054365407675504684,0.16256172955036163,-0.6311579346656799
1761311041221670100,5.681670166015625,0.011606098152697086,0.0758214145898819,-0.5725166201591492
1761311041240281300,5.70028125,-0.10078980028629303,-0.008475505746901035,-0.48638713359832764
1761311041258894300,5.718894287109375,-0.3035911023616791,-0.10682191699743271,-0.20661908388137817
1761311041277505500,5.737505615234375,-0.5045598149299622,-0.2137201875448227,0.09704835712909698
1761311041296118300,5.7561181640625,-0.679872989654541,-0.3432198166847229,0.2882435619831085
1761311041314729700,5.774729736328125,-0.7953231334686279,-0.4250733256340027,0.40125030279159546
1761311041333342500,5.793342529296875,-0.7806627750396729,-0.40063944458961487,0.5539621114730835
1761311041351953700,5.81195361328125,-0.6591041684150696,-0.3047364354133606,0.7683694958686829
1761311041370566400,5.83056640625,-0.5259394645690918,-0.23509983718395233,1.023703694343567
1761311041389177900,5.849177734375,-0.41415444016456604,-0.2925194799900055,1.1929082870483398
1761311041407790600,5.86779052734375,-0.34818294644355774,-0.4629458785057068,1.2173422574996948
1761311041426401800,5.88640185546875,-0.288930743932724,-0.7989118695259094,1.1202175617218018
1761311041445014800,5.905014892578125,-0.2357870489358902,-1.138542890548706,0.9956046938896179
1761311041463626000,5.9236259765625,-0.22601348161697388,-1.2167314291000366,0.9552887678146362
1761311041482238700,5.94223876953125,-0.19974705576896667,-1.1391538381576538,0.8850412964820862
1761311041500850000,5.960849853515625,-0.23151111602783203,-1.1128873825073242,0.6987329125404358
1761311041519463000,5.979462890625,-0.5155550837516785,-1.1501489877700806,0.4201865494251251
1761311041538074000,5.99807421875,-0.9547542929649353,-1.068906307220459,0.0231358390301466
1761311041556686800,6.016686767578125,-1.1856545209884644,-0.9394067525863647,-0.6042806506156921
1761311041575298300,6.03529833984375,-1.109298586845398,0.0165692325681448,-0.9475768208503723
1761311041593911000,6.0539111328125,-0.9095515608787537,0.905351996421814,-0.7716528177261353
1761311041612522200,6.072522216796875,-0.6578825116157532,0.7782957553863525,-0.22311195731163025
1761311041631135200,6.09113525390625,-0.7195780873298645,-0.4098021686077118,0.20883341133594513
1761311041649746400,6.109746337890625,-0.8637380003929138,-2.054279327392578,0.18989713490009308
1761311041668359200,6.128359130859375,-1.073258638381958,-2.886864185333252,-0.07711946964263916
1761311041686970600,6.146970703125,-1.3811256885528564,-2.7060532569885254,-0.5230379700660706
1761311041705583400,6.165583251953125,-1.8142163753509521,-2.0530576705932617,-1.2114628553390503
1761311041724194600,6.184194580078125,-1.9791451692581177,-1.2533822059631348,-1.9909039735794067
1761311041742807600,6.2028076171875,-1.674943208694458,-0.6260420680046082,-2.912137985229492
1761311041761418800,6.221418701171875,-1.290109395980835,-0.5411342978477478,-3.98234224319458
1761311041780031500,6.240031494140625,-0.8936695456504822,-0.5454102754592896,-5.357435703277588
1761311041798643000,6.258642822265625,-0.25289076566696167,-0.31145575642585754,-6.603564262390137
1761311041817255700,6.277255615234375,0.5351021885871887,0.30733251571655273,-6.467345237731934
1761311041835867000,6.295866943359375,1.2211600542068481,1.1484692096710205,-5.001235485076904
1761311041854480000,6.31447998046875,1.5870575904846191,1.4472498893737793,-2.821732521057129
1761311041873091000,6.333091064453125,1.294461727142334,0.5742727518081665,-0.7569924592971802
1761311041891703800,6.351703857421875,0.4282039403915405,-0.79707932472229,0.7885274291038513
1761311041910315300,6.370315185546875,-0.22540263831615448,-1.5582714080810547,1.6565414667129517
1761311041928928000,6.388927978515625,-0.3432961702346802,-1.5356700420379639,1.8446823358535767
1761311041947539200,6.407539306640625,-0.2498365342617035,-1.29736328125,1.3560045957565308
1761311041966152200,6.426152099609375,-0.19974705576896667,-0.9174162149429321,0.7811973094940186
1761311041984763400,6.444763427734375,-0.3261924386024475,-0.6064949631690979,0.7909708619117737
1761311042003376000,6.463376220703125,-0.6810947060585022,-0.5832827687263489,1.4225869178771973
1761311042021987600,6.481987548828125,-1.0030112266540527,-0.6321505308151245,2.0279364585876465
1761311042040600300,6.500600341796875,-1.1917630434036255,-0.3010713458061218,1.9839555025100708
1761311042059211500,6.51921142578125,-1.1532796621322632,0.21204034984111786,1.2668209075927734
1761311042077824500,6.537824462890625,-0.9046648144721985,0.8186116814613342,0.4623350203037262
1761311042096435700,6.556435791015625,-0.5570927262306213,1.109375,0.3218401372432709
1761311042115048700,6.575048583984375,-0.4709632396697998,0.405678927898407,0.6816291809082031
1761311042133660000,6.593659912109375,-0.7061394453048706,-0.5276956558227539,0.7836406826972961
1761311042152272600,6.612272705078125,-0.9486457705497742,-1.1147198677062988,0.17706935107707977
1761311042170884000,6.630884033203125,-1.0323318243026733,-1.4629027843475342,-0.9976662993431091
1761311042189496800,6.649496826171875,-1.0928057432174683,-1.6767756938934326,-2.212641477584839
1761311042208108000,6.66810791015625,-1.133732557296753,-1.5601038932800293,-2.9243547916412354
1761311042226721000,6.686720947265625,-1.1606098413467407,-1.3828818798065186,-3.100278854370117
1761311042245332200,6.705332275390625,-1.1667182445526123,-1.4274736642837524,-2.842501401901245
1761311042263945000,6.723945068359375,-1.1685508489608765,-1.2002384662628174,-2.302436113357544
1761311042282556400,6.742556396484375,-1.2100883722305298,-0.8502230048179626,-1.519940733909607
1761311042301169200,6.761169189453125,-1.3011046648025513,-0.8251782655715942,-0.5719057321548462
1761311042319780600,6.779780517578125,-1.4990191459655762,-0.8905389308929443,0.41041299700737
1761311042338393300,6.798393310546875,-1.7836740016937256,-0.981555163860321,1.346841812133789
1761311042357004500,6.817004638671875,-1.929666519165039,-1.0524134635925293,2.118952751159668
1761311042375617500,6.835617431640625,-1.9925837516784668,-1.25826895236969,2.5190577507019043
1761311042394228700,6.854228759765625,-2.0664963722229004,-1.3773841857910156,2.4176571369171143
1761311042412841700,6.872841796875,-2.004189968109131,-1.3407334089279175,1.9332551956176758
1761311042431453000,6.891452880859375,-1.8288767337799072,-1.04569411277771,1.184356451034546
1761311042450065700,6.910065673828125,-1.725643515586853,-0.6907919049263,0.3676536977291107
1761311042468677000,6.928677001953125,-1.7115939855575562,-0.3939201235771179,-0.1241547018289566
1761311042487289900,6.947289794921875,-1.6951011419296265,-0.14041851460933685,0.0231358390301466
1761311042505901300,6.9659013671875,-1.5875920057296753,-0.10621106624603271,0.6242095232009888
1761311042524514000,6.98451416015625,-1.4153331518173218,-0.4855472147464752,1.1495381593704224
1761311042543125200,7.003125244140625,-1.3328686952590942,-0.9693382382392883,1.4836716651916504
1761311042561738200,7.02173828125,-1.2559019327163696,-1.6529526710510254,1.5612492561340332
1761311042580349400,7.040349365234375,-1.0133955478668213,-1.7879499197006226,0.9064210057258606
1761311042598962200,7.058962158203125,-0.5900784730911255,-1.3138561248779297,-0.49738237261772156
1761311042617573600,7.07757373046875,-0.2736595869064331,-0.6602495312690735,-1.8058172464370728
1761311042636186400,7.096186279296875,-0.30786702036857605,-0.08849649876356125,-2.8492207527160645
1761311042654797800,7.1147978515625,-0.554649293422699,0.5706077218055725,-3.438077449798584
1761311042673410600,7.13341064453125,-0.726908266544342,0.974988579750061,-3.683638095855713
1761311042692021800,7.152021728515625,-1.0011786222457886,0.8870265483856201,-4.160099029541016
1761311042710634800,7.170634765625,-1.4354910850524902,0.5938199162483215,-4.882120132446289
1761311042729246000,7.189245849609375,-1.5472761392593384,0.35436776280403137,-5.43806791305542
1761311042747859000,7.20785888671875,-1.3750171661376953,0.6237514019012451,-5.439289569854736
1761311042766470100,7.22647021484375,-1.2259705066680908,1.2438377141952515,-4.983520984649658
1761311042785083100,7.245083251953125,-1.2681188583374023,1.986017107963562,-4.012273788452148
1761311042803694300,7.2636943359375,-1.6413465738296509,1.8278076648712158,-2.4667539596557617
1761311042822307000,7.28230712890625,-2.271817207336426,0.2706816792488098,-0.853506326675415
1761311042840918500,7.30091845703125,-2.6981887817382812,-1.453740119934082,0.7860840559005737
1761311042859531300,7.31953125,-2.3194634914398193,-1.897902488708496,2.550210952758789
1761311042878142700,7.338142822265625,-1.4574815034866333,-1.2533822059631348,4.050528049468994
1761311042896755500,7.35675537109375,-0.32191649079322815,-0.6174902319908142,5.064534664154053
1761311042915366700,7.37536669921875,0.5375455617904663,-0.7030088305473328,5.39019250869751
1761311042933979600,7.393979736328125,0.7813500165939331,-0.8001335263252258,4.866620063781738
1761311042952590800,7.4125908203125,0.5375455617904663,-0.03901786729693413,3.8837668895721436
1761311042971203800,7.431203857421875,0.20463383197784424,1.1710705757141113,3.0701184272766113
1761311042989815000,7.44981494140625,0.12339114397764206,2.273115396499634,2.7732465267181396
1761311043008428000,7.468427978515625,0.07391251623630524,2.4691972732543945,3.00536847114563
1761311043027039200,7.487039306640625,0.006108472589403391,1.778939962387085,3.416468620300293
1761311043045652200,7.50565234375,-0.2638860046863556,0.8570950627326965,3.752434730529785
1761311043064263400,7.524263427734375,-0.786771297454834,0.35558944940567017,3.908200740814209
1761311043082876200,7.542876220703125,-1.0970816612243652,0.26579490303993225,3.427464008331299
1761311043101487600,7.561487548828125,-1.0188932418823242,1.0678373575210571,2.5135600566864014
1761311043120100400,7.580100341796875,-0.6420004963874817,1.9866280555725098,1.4048722982406616
1761311043138711800,7.5987119140625,-0.15943112969398499,1.8583500385284424,0.27113983035087585
1761311043157324500,7.617324462890625,0.04947862774133682,0.5791595578193665,-0.9713998436927795
1761311043175936000,7.63593603515625,0.18814095854759216,0.023288551717996597,-2.2346320152282715
1761311043194548700,7.654548828125,0.5112791657447815,0.28106608986854553,-3.042248487472534
1761311043213160200,7.67316015625,0.6799493432044983,0.1656159609556198,-3.4832801818847656
1761311043231773000,7.69177294921875,0.3811686933040619,-0.33650049567222595,-3.941415548324585
1761311043250384400,7.71038427734375,-0.1459924876689911,-0.4531722962856293,-4.281657695770264
1761311043268997000,7.7289970703125,-0.648108959197998,-0.05673243850469589,-4.354959011077881
1761311043287608300,7.7476083984375,-0.9303203821182251,-0.27113983035087585,-4.223627090454102
1761311043306221300,7.76622119140625,-0.8203678727149963,-1.1751937866210938,-3.55719256401062
1761311043324832500,7.78483251953125,-0.5656445622444153,-1.7421363592147827,-2.1943161487579346
1761311043343445500,7.803445556640625,-0.48012593388557434,-1.4012072086334229,-0.36482852697372437
1761311043362056700,7.822056640625,-0.5815265774726868,-1.2020710706710815,1.2741509675979614
1761311043380669700,7.840669677734375,-0.5473191738128662,-1.144040584564209,2.184924364089966
1761311043399281000,7.859281005859375,-0.5021164417266846,-0.875267744064331,2.3785629272460938
1761311043417894000,7.877893798828125,-0.573585569858551,-0.08299887180328369,2.0474836826324463
1761311043436505000,7.896505126953125,-0.4459185004234314,0.7013289928436279,1.8202484846115112
1761311043455118000,7.9151181640625,-0.26816195249557495,0.9786536693572998,1.9937291145324707
1761311043473729300,7.933729248046875,-0.3787252902984619,1.105099081993103,2.2704429626464844
1761311043492342000,7.952342041015625,-0.6493306159973145,0.794788658618927,2.578310012817383
1761311043510953500,7.970953369140625,-0.6652126908302307,0.22670069336891174,2.8398289680480957
1761311043529566500,7.98956640625,-0.3518480062484741,-0.05184566229581833,3.060344696044922
1761311043548177700,8.008177734375,-0.2480039894580841,0.03489464893937111,3.142198324203491
1761311043566790400,8.026790283203125,-0.5192201733589172,0.22792237997055054,3.2814714908599854
1761311043585401900,8.04540185546875,-0.7898254990577698,0.0892600566148758,3.18190336227417
1761311043604014600,8.0640146484375,-0.7091936469078064,-0.0817771777510643,2.662606954574585
1761311043622626000,8.0826259765625,-0.4581354558467865,-0.08727480471134186,1.7273997068405151
1761311043641238800,8.10123876953125,-0.15515519678592682,-0.09949174523353577,0.6944569945335388
1761311043659850200,8.119850341796875,-0.10689827054738998,-0.1361425817012787,0.3444415032863617
1761311043678463000,8.138462890625,-0.24433889985084534,-0.3145099878311157,0.5283065438270569
1761311043697074400,8.157074462890625,-0.30908870697021484,-0.754930853843689,0.3432198166847229
1761311043715687200,8.175687255859375,-0.04459185153245926,-1.235056757926941,-0.2921377122402191
1761311043734298600,8.194298583984375,0.21746163070201874,-1.255214810371399,-0.7966975569725037
1761311043752911400,8.212911376953125,0.2608317732810974,-0.8630508184432983,-0.8486195802688599
1761311043771522800,8.231522705078126,0.3542914092540741,-0.7885274291038513,-0.3605526089668274
1761311043790135600,8.250135498046875,0.47829338908195496,-1.3303489685058594,0.3688753843307495
1761311043808747000,8.2687470703125,0.45019441843032837,-1.793447494506836,0.7195017337799072
1761311043827359700,8.28735986328125,0.4202629029750824,-1.2436087131500244,-0.4503471553325653
1761311043845971200,8.30597119140625,0.31947311758995056,0.36963894963264465,-2.2083654403686523
1761311043864584000,8.324583984375,-0.08002099394798279,1.6072918176651,-3.403870105743408
1761311043883195400,8.3431953125,-0.2498365342617035,2.306101083755493,-3.377603530883789
1761311043901808000,8.36180810546875,-0.3970507085323334,2.0287764072418213,-2.4429309368133545
1761311043920419600,8.380419677734375,-0.5705313682556152,1.0800542831420898,-0.9463551044464111
1761311043939032300,8.3990322265625,-0.6584933400154114,-0.05978667363524437,0.6975111961364746
1761311043957643800,8.417643798828125,-0.7043069005012512,-0.7879166007041931,1.906377911567688
1761311043976256500,8.436256591796875,-0.7837170362472534,-1.1281585693359375,2.341301202774048
1761311043994868000,8.454867919921876,-0.8600729703903198,-1.1422079801559448,2.2649452686309814
1761311044013480700,8.473480712890625,-0.8515210747718811,-0.9412392973899841,1.9283684492111206
1761311044032092200,8.492092041015624,-0.9565867781639099,-0.9626189470291138,1.6107279062271118
1761311044050705000,8.510704833984375,-0.9462023973464966,-0.9271897673606873,1.439079761505127
1761311044069316400,8.52931640625,-0.8258655071258545,-0.6584169864654541,1.1550358533859253
1761311044087929000,8.54792919921875,-0.22723518311977386,-0.3969743549823761,0.9143620133399963
1761311044106540500,8.56654052734375,-0.16065283119678497,-0.1990598440170288,0.9479585886001587
1761311044125153300,8.5851533203125,-0.0397050715982914,0.25296711921691895,1.1611442565917969
1761311044143764700,8.6037646484375,0.29259583353996277,0.6836144328117371,0.7653152346611023
1761311044162377500,8.62237744140625,0.4190412163734436,0.7587486505508423,-0.06856760382652283
1761311044180989000,8.640989013671875,0.7538618445396423,1.0922712087631226,-0.441795289516449
1761311044199601700,8.6596015625,1.0623397827148438,1.9432578086853027,-0.031916771084070206
1761311044218213000,8.678213134765626,1.048901081085205,2.5296711921691895,0.666968822479248
1761311044236825900,8.696825927734375,0.8558733463287354,1.5547590255737305,0.6181010603904724
1761311044255437300,8.715437255859374,0.31947311758995056,-0.4641675651073456,0.6382590532302856
1761311044274050000,8.734050048828125,-0.18691925704479218,-1.692657709121704,0.9455152153968811
1761311044292661500,8.75266162109375,-0.09895725548267365,-1.4293062686920166,0.9723924994468689
1761311044311274200,8.771274169921876,0.21868331730365753,-0.7060630917549133,0.676131546497345
1761311044329885700,8.7898857421875,0.29503923654556274,-0.5026509165763855,0.4488963782787323
1761311044348498400,8.80849853515625,0.06902574002742767,-0.9504019618034363,0.5264739990234375
1761311044367110000,8.82710986328125,-0.4337015450000763,-1.5753750801086426,0.588780403137207
1761311044385723000,8.845722900390625,-0.8038749694824219,-1.6260753870010376,0.4067479074001312
1761311044404334000,8.864333984375,-0.7916580438613892,-1.0035456418991089,0.11842801421880722
1761311044422946800,8.88294677734375,-0.4703523814678192,-0.1080436110496521,0.023746687918901443
1761311044441558300,8.901558349609376,-0.2339545041322708,0.5877113938331604,0.09216158092021942
1761311044460171300,8.920171142578125,-0.06291726976633072,0.6811710596084595,0.2118876427412033
1761311044478782500,8.938782470703124,-0.006719320081174374,0.42461520433425903,0.37803810834884644
1761311044497395500,8.9573955078125,0.06352811306715012,0.05199837312102318,0.4458421468734741
1761311044516006700,8.976006591796875,0.20035789906978607,-0.1349208950996399,0.41835400462150574
1761311044534619600,8.99461962890625,0.2761029601097107,-0.20761170983314514,0.28457847237586975
1761311044553230800,9.01323095703125,0.22601348161697388,-0.16668494045734406,0.09032903611660004
1761311044571843800,9.03184375,-0.04092676565051079,0.03245126083493233,0.00786465872079134
1761311044590455000,9.050455078125,-0.46485477685928345,0.39773792028427124,0.18195612728595734
1761311044609068000,9.069068115234375,-0.7849387526512146,0.6323032975196838,0.37742725014686584
1761311044627679200,9.08767919921875,-0.9358180165290833,0.7190435528755188,0.5478536486625671
1761311044646292200,9.106292236328125,-0.9223793745040894,0.7233195304870605,0.6345939636230469
1761311044664903400,9.1249033203125,-0.8050966858863831,0.5687751770019531,0.3444415032863617
1761311044683516400,9.143516357421875,-0.8203678727149963,0.20959696173667908,-0.23288552463054657
1761311044702127900,9.1621279296875,-0.7562289237976074,0.0165692325681448,-0.8657232522964478
1761311044720740600,9.18074072265625,-0.4074351191520691,0.3635304868221283,-1.4386980533599854
1761311044739352000,9.19935205078125,0.08674030750989914,1.209019422531128,-1.5999616384506226
1761311044757964800,9.21796484375,0.4984513521194458,2.1167385578155518,-1.1913049221038818
1761311044776576300,9.236576171875,0.743477463722229,1.7166335582733154,-0.8272398710250854
1761311044795189000,9.25518896484375,0.8332720398902893,0.1790546029806137,-0.728893518447876
1761311044813800400,9.273800537109375,0.8436564207077026,-1.0041565895080566,-0.8516737818717957
1761311044832413200,9.2924130859375,0.6915554404258728,-0.8935931921005249,-0.9469659924507141
1761311044851024600,9.311024658203126,0.6365792155265808,-0.2894652485847473,-1.186418056488037
1761311044869637400,9.329637451171875,0.6591805219650269,-0.0946049690246582,-1.474127173423767
1761311044888248800,9.348248779296876,0.5393781065940857,-0.5661790370941162,-1.446028232574463
1761311044906861800,9.36686181640625,0.009773556143045425,-0.9058101177215576,-0.9066500663757324
1761311044925473000,9.38547314453125,-0.6462764143943787,-0.8325084447860718,-0.29946786165237427
1761311044944086000,9.4040859375,-1.2400199174880981,0.12041326612234116,0.17584764957427979
1761311044962697200,9.422697265625,-1.4556490182876587,1.2566654682159424,0.3035147190093994
1761311044981310200,9.441310302734376,-1.4458754062652588,1.6787610054016113,0.17584764957427979
1761311044999921400,9.45992138671875,-1.5155121088027954,2.066038131713867,0.14469444751739502
1761311045018534400,9.478534423828124,-1.73969304561615,1.5052803754806519,0.5661790370941162
1761311045037145600,9.4971455078125,-1.7317520380020142,0.8045622110366821,0.954067051410675
1761311045055758600,9.515758544921875,-0.9969027042388916,-0.24548424780368805,1.18618905544281
1761311045074370000,9.5343701171875,-0.0659715011715889,-0.3975852131843567,0.9504019618034363
1761311045092982800,9.552982666015625,0.40132665634155273,0.5761052966117859,0.3664320111274719
1761311045111594200,9.57159423828125,0.30908870697021484,0.5168531537055969,-0.6537593007087708
1761311045130207000,9.59020703125,-0.11972606182098389,0.72026526927948,-1.6543270349502563
1761311045148818400,9.608818359375,-0.2773246467113495,0.960328221321106,-1.9328734874725342
1761311045167431200,9.62743115234375,0.2516690790653229,0.009239064529538155,-1.6060701608657837
1761311045186042600,9.646042724609375,0.5338805317878723,-0.5301390886306763,-0.3379512429237366
1761311045204655400,9.6646552734375,0.46729815006256104,-0.5405234694480896,0.9968263506889343
1761311045223266800,9.683266845703125,0.27976804971694946,-1.157479166984558,0.8709918260574341
1761311045241879800,9.7018798828125,-0.21440738439559937,-1.7635160684585571,-0.27320143580436707
1761311045260491000,9.720490966796875,-0.5277720093727112,-0.46600010991096497,-1.108229637145996
1761311045279104000,9.73910400390625,0.13927318155765533,0.2749576270580292,-1.5095562934875488
1761311045297715200,9.757715087890626,0.6872795224189758,-0.16424155235290527,-1.2035218477249146
1761311045316328200,9.776328125,0.5302154421806335,-0.8593857288360596,-0.1522536724805832
1761311045334939600,9.794939697265624,0.15149012207984924,-1.073182225227356,1.073182225227356
1761311045353552400,9.813552490234375,-0.16248537600040436,-0.7109498381614685,2.1226179599761963
1761311045372163800,9.832163818359374,-0.31947311758995056,-0.38781166076660156,2.4097161293029785
1761311045390776600,9.850776611328126,-0.1844758689403534,-0.7622610330581665,1.81413996219635
1761311045409388000,9.869387939453125,0.05070032179355621,-1.415867567062378,0.8538880944252014
1761311045428000800,9.888000732421874,0.19974705576896667,-2.8160059452056885,-0.2976353168487549
1761311045446612200,9.9066123046875,0.3176405727863312,-3.8611655235290527,-1.0630269050598145
1761311045465225200,9.92522509765625,0.11545012891292572,-3.4909920692443848,-1.3934953212738037
1761311045483836400,9.94383642578125,-0.2919849753379822,-2.484926700592041,-1.5168864727020264
1761311045502449400,9.962449462890625,-0.8631271719932556,-1.3706648349761963,-1.538877010345459
1761311045521060600,9.981060546875,-1.3212625980377197,-0.8025769591331482,-1.3751698732376099
1761311045539673600,9.999673583984375,-1.4910781383514404,-0.8496121764183044,-1.093569278717041
1761311045558285000,10.01828515625,-1.3945642709732056,-0.9039775729179382,-0.6562026739120483
1761311045576897800,10.036897705078125,-1.2894985675811768,-0.5661790370941162,-0.22494450211524963
1761311045595509200,10.05550927734375,-1.3628002405166626,0.14729054272174835,0.09949174523353577
1761311045614122000,10.0741220703125,-1.6034740209579468,0.7532510161399841,0.36215606331825256
1761311045632733400,10.0927333984375,-1.891793966293335,2.369018316268921,0.8080745935440063
1761311045651346200,10.11134619140625,-2.0861196517944336,3.7965683937072754,1.4916126728057861
1761311045669957600,10.12995751953125,-1.9040108919143677,3.0415611267089844,2.121396064758301
1761311045688570600,10.148570556640625,-1.332257866859436,0.8161683082580566,2.484239339828491
1761311045707181800,10.167181884765625,-0.4202629029750824,-0.37620556354522705,2.336414337158203
1761311045725794800,10.185794921875,0.1429382562637329,0.3873535096645355,2.125061273574829
1761311045744406300,10.20440625,-0.12644538283348083,0.3122192919254303,1.8269678354263306
1761311045763019000,10.22301904296875,-0.47829338908195496,-1.0151517391204834,1.5270417928695679
1761311045781630500,10.24163037109375,-0.6542174220085144,-2.2082128524780273,0.7928034067153931
1761311045800243200,10.2602431640625,-0.2492256760597229,-1.4653462171554565,0.03229855000972748
1761311045818854700,10.278854736328125,0.36223241686820984,-0.37315133213996887,-0.6977402567863464
1761311045837467600,10.297467529296876,0.5925218462944031,0.11063970625400543,-1.2175712585449219
1761311045856078800,10.316078857421875,0.6402443051338196,0.3928511440753937,-1.375780701637268
1761311045874691800,10.33469189453125,0.5161659121513367,0.32993388175964355,-1.5724735260009766
1761311045893303300,10.35330322265625,0.47890424728393555,-0.10071343928575516,-1.9218782186508179
1761311045911916000,10.371916015625,0.4611896872520447,-1.1134982109069824,-2.0000665187835693
1761311045930527500,10.390527587890626,0.546097457408905,-1.7940584421157837,-1.7007514238357544
1761311045949140200,10.40914013671875,0.569309651851654,-2.048781633377075,-1.3861651420593262
1761311045967751700,10.427751708984376,0.38483378291130066,-1.4555726051330566,-1.1998567581176758
1761311045986364700,10.44636474609375,0.20280128717422485,-0.644367516040802,-1.2224581241607666
1761311046004975900,10.464975830078124,0.07024743407964706,-0.3187859058380127,-1.209019422531128
1761311046023588900,10.4835888671875,0.016492875292897224,-0.5350258350372314,-1.094791054725647
1761311046042200300,10.502200439453125,0.18936264514923096,-0.5307499170303345,-0.6671979427337646
1761311046060813000,10.52081298828125,0.4337015450000763,-0.4727194309234619,-0.0594048947095871
1761311046079424500,10.539424560546875,0.40193748474121094,-0.7976901531219482,0.5124244689941406
1761311046098037200,10.558037353515624,0.0787992998957634,-0.8196806907653809,0.907642662525177
1761311046116648700,10.576648681640625,-0.29503923654556274,-0.6516976952552795,1.2063469886779785
1761311046135261700,10.59526171875,-0.499673068523407,-0.12697987258434296,1.3578370809555054
1761311046153873000,10.613872802734376,-0.5570927262306213,0.5932090282440186,1.2185639142990112
1761311046172486000,10.63248583984375,-0.577861487865448,1.0000332593917847,0.9925504326820374
1761311046191097300,10.651097412109374,-0.49295374751091003,1.0036983489990234,0.7885274291038513
1761311046209710000,10.6697099609375,-0.1979145109653473,1.0287431478500366,0.6859050989151001
1761311046228321500,10.688321533203125,0.2235700935125351,1.100823163986206,0.5674007534980774
1761311046246934300,10.706934326171876,0.6811710596084595,0.7868476510047913,0.32306185364723206
1761311046265545700,10.725545654296875,0.8625926971435547,0.43622130155563354,-0.0850604772567749
1761311046284158700,10.74415869140625,0.665289044380188,0.642076849937439,-0.8388460278511047
1761311046302770000,10.76277001953125,0.26755109429359436,1.1533559560775757,-1.3806675672531128
1761311046321383000,10.7813828125,0.06658235192298889,2.39528489112854,-1.320804476737976
1761311046339994400,10.799994384765625,-0.03298575058579445,3.875444173812866,-0.8987090587615967
1761311046358607000,10.818607177734375,0.09956810623407364,3.7819080352783203,-0.8559496998786926
1761311046377218600,10.837218505859376,0.37078428268432617,2.036717414855957,-1.2756017446517944
1761311046395831600,10.85583154296875,0.7673004865646362,-0.11354123055934906,-1.3953278064727783
1761311046414442800,10.87444287109375,0.6579588651657104,-1.0304229259490967,-0.7692093849182129
1761311046433055700,10.8930556640625,0.31031039357185364,-0.17096087336540222,0.06406260281801224
1761311046451667200,10.911667236328125,-0.337798535823822,0.5852680206298828,0.2405974566936493
1761311046470280000,10.930280029296876,-0.8063184022903442,-0.1086544543504715,-0.14431266486644745
1761311046488891400,10.948891357421875,-0.9938485026359558,-1.3896011114120483,-0.5932853817939758
1761311046507504400,10.96750439453125,-0.786160409450531,-1.7421363592147827,-0.681858241558075
1761311046526115600,10.986115478515625,-0.3249707520008087,-1.3071367740631104,-0.5456393361091614
1761311046544728600,11.004728515625,0.28098973631858826,-0.5399126410484314,-0.17118994891643524
1761311046563339800,11.02333984375,0.5369347333908081,0.11919157207012177,0.37498384714126587
1761311046581952800,11.041952880859375,0.19913621246814728,0.6402443051338196,1.013930082321167
1761311046600564200,11.060564208984376,-0.17470231652259827,0.5058578848838806,1.5740770101547241
1761311046619177000,11.079177001953125,-0.3689517378807068,0.2468586415052414,1.9155406951904297
1761311046637788400,11.097788330078124,-0.39766156673431396,0.22364644706249237,1.9088213443756104
1761311046656401400,11.1164013671875,-0.17836740612983704,0.46187686920166016,1.5117706060409546
1761311046675012600,11.1350126953125,0.06780404597520828,1.1784007549285889,1.0707389116287231
1761311046693625600,11.15362548828125,-0.20341213047504425,0.9267316460609436,1.1739721298217773
1761311046712237000,11.172237060546875,-0.10323318839073181,0.1020878478884697,1.1147198677062988
1761311046730849800,11.190849853515624,0.38788801431655884,-0.3560476005077362,1.1031137704849243
1761311046749461200,11.209461181640625,0.7227086424827576,-0.5783960223197937,1.070128083229065
1761311046768074200,11.22807421875,0.8241093158721924,-0.5496861934661865,0.722555935382843
1761311046786685400,11.246685546875,0.6341357827186584,-0.486768901348114,0.47149771451950073
