time,seconds_elapsed,z,y,x
1761370634494052000,0.206052001953125,0.08674907684326172,1.1396591663360596,-3.0943825244903564
1761370634512663000,0.2246630859375,-0.2848215103149414,0.3428182601928711,-2.1282644271850586
1761370634531275500,0.243275634765625,-1.23907470703125,-0.23205041885375977,-1.447828769683838
1761370634549886500,0.261886474609375,-1.08518648147583,0.2691648006439209,-1.0506956577301025
1761370634568499000,0.2804990234375,-0.0677194595336914,0.38941168785095215,-0.14991378784179688
1761370634587109600,0.299109619140625,0.30457496643066406,0.10368943214416504,0.3197746276855469
1761370634605722000,0.31772216796875,-0.2373638153076172,-0.296250581741333,0.517096996307373
1761370634624333000,0.3363330078125,-1.410538673400879,-0.8323290348052979,0.6541407108306885
1761370634642945500,0.354945556640625,-3.0758743286132812,-1.2084271907806396,0.6122419834136963
1761370634661556200,0.37355615234375,-3.2756476402282715,-0.8824052810668945,0.46625232696533203
1761370634680168700,0.392168701171875,-3.1577439308166504,-0.6694052219390869,0.6171387434005737
1761370634698779600,0.410779541015625,-2.935544490814209,-0.5149569511413574,0.5509288311004639
1761370634717392100,0.42939208984375,-2.7126240730285645,-0.38280320167541504,0.6221780776977539
1761370634736002800,0.4480029296875,-3.1442456245422363,-0.4582974910736084,0.8382108211517334
1761370634754615300,0.466615234375,-2.892096519470215,-0.40264391899108887,0.3679053783416748
1761370634773226200,0.485226318359375,-2.6352219581604004,-0.2054281234741211,-0.44777846336364746
1761370634791838700,0.503838623046875,-2.5081019401550293,-0.03319358825683594,-1.0969138145446777
1761370634810449700,0.52244970703125,-3.107386589050293,-1.118781566619873,-1.2855861186981201
1761370634829062000,0.541061767578125,-3.531190872192383,-0.9966744184494019,-1.3836251497268677
1761370634847672800,0.5596728515625,-2.514732837677002,-0.7956944704055786,-0.4178207516670227
1761370634866285300,0.578285400390625,0.23388242721557617,-0.8687000274658203,0.09331443905830383
1761370634884896300,0.596896240234375,5.020010948181152,-0.8824679851531982,0.7332862615585327
1761370634903508700,0.6155087890625,10.810096740722656,-1.3259660005569458,2.413423538208008
1761370634922119400,0.634119384765625,15.453304290771484,-1.984175443649292,3.9564177989959717
1761370634940732000,0.65273193359375,17.932254791259766,-2.037402391433716,5.705659866333008
1761370634959342800,0.6713427734375,17.100914001464844,-1.4786180257797241,6.975399971008301
1761370634977955300,0.689955322265625,14.734890937805176,-0.4870150089263916,6.238158702850342
1761370634996566000,0.70856591796875,12.136945724487305,0.22472167015075684,5.033839225769043
1761370635015178500,0.727178466796875,8.661259651184082,1.1016240119934082,3.5938892364501953
1761370635033789400,0.74578955078125,4.878537178039551,2.4598405361175537,2.4953408241271973
1761370635052402000,0.76440185546875,2.301563262939453,3.31386661529541,2.721910238265991
1761370635071012900,0.783012939453125,0.10180187225341797,3.4319159984588623,2.644533157348633
1761370635089625000,0.801625,-2.384341239929199,2.7563438415527344,1.9835119247436523
1761370635108236000,0.820236083984375,-3.918409824371338,0.8127380609512329,0.3008742332458496
1761370635126848500,0.8388486328125,-4.1496357917785645,-0.17063814401626587,-1.625247597694397
1761370635145459500,0.85745947265625,-5.758488655090332,-0.0929473340511322,-3.7112491130828857
1761370635164072000,0.876072021484375,-7.654087066650391,0.13620194792747498,-5.177513599395752
1761370635182682600,0.8946826171875,-8.652235984802246,0.4474416971206665,-6.021522521972656
1761370635201295000,0.913295166015625,-8.769639015197754,0.6618605852127075,-6.266747951507568
1761370635219906000,0.931906005859375,-8.370509147644043,0.753620982170105,-6.058185577392578
1761370635238518500,0.9505185546875,-8.023367881774902,0.48046135902404785,-5.607594013214111
1761370635257129500,0.96912939453125,-8.1658935546875,0.41166913509368896,-5.160521507263184
1761370635275741700,0.98774169921875,-8.567361831665039,0.31174635887145996,-3.8141825199127197
1761370635294352600,1.0063525390625,-8.876984596252441,-0.18836259841918945,-2.279951810836792
1761370635312965000,1.024965087890625,-8.1714448928833,-0.6548949480056763,-1.5822807550430298
1761370635331576000,1.043576171875,-6.039546966552734,-0.8843362331390381,-1.4752322435379028
1761370635350188300,1.062188232421875,-4.279212474822998,-1.0093083381652832,-0.5979883670806885
1761370635368799200,1.08079931640625,-2.8415403366088867,-0.7050046920776367,0.11315226554870605
1761370635387411700,1.09941162109375,-1.5913000106811523,-0.8499158620834351,0.4236912131309509
1761370635406022700,1.118022705078125,-0.3940134048461914,-0.961523175239563,-0.4011896848678589
1761370635424635100,1.13663525390625,1.9067821502685547,-0.43448758125305176,-1.0885885953903198
1761370635443246000,1.15524609375,5.878910064697266,0.29705166816711426,-1.2048735618591309
1761370635461858300,1.1738583984375,8.2356595993042,-0.9165419340133667,-1.6574137210845947
1761370635480469200,1.19246923828125,6.113481521606445,-1.3180348873138428,-2.8295722007751465
1761370635499081700,1.211081787109375,5.066338539123535,-0.26400279998779297,-2.88356351852417
1761370635517692700,1.229692626953125,5.721696853637695,1.1931939125061035,-2.088376998901367
1761370635536305000,1.248304931640625,8.748064994812012,0.8248474597930908,-1.0142149925231934
1761370635554915800,1.266915771484375,10.564041137695312,0.3470940589904785,-1.0026991367340088
1761370635573528300,1.2855283203125,9.499042510986328,-0.695082426071167,1.078367829322815
1761370635592139300,1.30413916015625,6.995536804199219,-0.41528749465942383,2.1536645889282227
1761370635610751700,1.322751708984375,2.687337875366211,0.3535574674606323,2.3706259727478027
1761370635629362700,1.34136279296875,-0.4991188049316406,0.7928853034973145,2.9567627906799316
1761370635647975000,1.359974853515625,-3.4933853149414062,1.4841535091400146,1.6733953952789307
1761370635666585900,1.3785859375,-5.1793670654296875,1.9887759685516357,-0.10388219356536865
1761370635685198300,1.3971982421875,-4.003641605377197,1.5756220817565918,-0.13277816772460938
1761370635703809300,1.415809326171875,-2.0764904022216797,1.6022698879241943,0.3790561556816101
1761370635722421800,1.434421875,-2.1168575286865234,1.9561727046966553,0.13974201679229736
1761370635741032400,1.453032470703125,-4.207496166229248,2.042851448059082,0.3696958124637604
1761370635759645000,1.47164501953125,-5.594078063964844,2.364691972732544,0.6191021203994751
1761370635778256000,1.490255859375,-6.22036075592041,1.9823633432388306,0.2590022087097168
1761370635796868400,1.508868408203125,-5.946915149688721,1.3099206686019897,0.00466427206993103
1761370635815479300,1.527479248046875,-5.06333065032959,0.6764175295829773,-0.1225988119840622
1761370635834091500,1.546091552734375,-4.268449306488037,-0.09668779373168945,0.01420333981513977
1761370635852702500,1.564702392578125,-3.1676626205444336,-0.676405668258667,0.4784722328186035
1761370635871315000,1.58331494140625,-2.668424129486084,-1.1298326253890991,1.0109738111495972
1761370635889926000,1.60192578125,-2.679732322692871,-1.3953380584716797,0.8512810468673706
1761370635908538400,1.620538330078125,-2.5545883178710938,-1.4078212976455688,0.20981186628341675
1761370635927149300,1.6391494140625,-1.737257957458496,-1.7366636991500854,0.17384251952171326
1761370635945761500,1.657761474609375,0.20585155487060547,-2.2946536540985107,0.26939117908477783
1761370635964372500,1.67637255859375,2.774496078491211,-2.5795657634735107,0.7977210879325867
1761370635982985000,1.69498486328125,3.162599563598633,-2.31886887550354,2.3876495361328125
1761370636001596000,1.713595947265625,2.5424652099609375,-1.1620244979858398,0.39203816652297974
1761370636020208000,1.7322080078125,0.31386756896972656,0.1233983039855957,-2.640033721923828
1761370636038819000,1.750819091796875,1.3905868530273438,2.6346492767333984,-3.2160768508911133
1761370636057431600,1.769431640625,6.649300575256348,2.446962356567383,0.9482414722442627
1761370636076042500,1.78804248046875,14.432324409484863,0.5866532325744629,6.345444679260254
1761370636094655000,1.806655029296875,18.156654357910156,-0.6667554378509521,7.923601150512695
1761370636113266000,1.825265869140625,14.5519380569458,-0.6540887355804443,5.310123920440674
1761370636131878100,1.843878173828125,7.771300315856934,-0.16344451904296875,2.9465386867523193
1761370636150489000,1.862489013671875,2.843332290649414,0.11495780944824219,2.344245672225952
1761370636169101600,1.8811015625,0.5551385879516602,0.3864428997039795,2.3861119747161865
1761370636187712500,1.89971240234375,-0.6687402725219727,0.37030649185180664,2.8494768142700195
1761370636206324700,1.91832470703125,-1.9974074363708496,0.4175424575805664,2.714662551879883
1761370636224935700,1.936935791015625,-3.5415472984313965,0.5824548006057739,1.7619078159332275
1761370636243548200,1.955548095703125,-4.946444988250732,0.8564034700393677,0.4454672336578369
1761370636262159000,1.9741591796875,-6.01475715637207,0.9770398139953613,-0.8594040870666504
1761370636280771600,1.992771484375,-6.229290008544922,1.0711323022842407,-1.7786669731140137
1761370636299382500,2.011382568359375,-6.298168182373047,1.0698720216751099,-1.741719365119934
1761370636317994800,2.029994873046875,-6.338373184204102,1.4087334871292114,-1.82005774974823
1761370636336605700,2.048605712890625,-6.63262939453125,1.4164624214172363,-1.7411266565322876
1761370636355218200,2.06721826171875,-7.264863014221191,0.9915509223937988,-1.437319040298462
1761370636373829000,2.0858291015625,-7.720457077026367,0.7898601293563843,-1.577061414718628
1761370636392441600,2.104441650390625,-7.584715366363525,0.4519822597503662,-1.8894078731536865
1761370636411052500,2.123052490234375,-6.980136871337891,-0.09831404685974121,-2.065965175628662
1761370636429664800,2.141664794921875,-5.492053508758545,-0.45453107357025146,-2.0230069160461426
1761370636448275700,2.160275634765625,-3.4846534729003906,-0.3596632480621338,-1.768049955368042
1761370636466888200,2.17888818359375,-1.3673653602600098,-0.5875685214996338,-1.7390260696411133
1761370636485499100,2.1974990234375,1.0175485610961914,-0.541245698928833,-2.1771037578582764
1761370636504111400,2.216111328125,1.0329909324645996,0.2602267265319824,-2.549823760986328
1761370636522722300,2.234722412109375,-1.594132423400879,1.0429987907409668,-3.0309276580810547
1761370636541334800,2.253334716796875,-3.3441359996795654,2.607827663421631,-4.068387031555176
1761370636559945700,2.27194580078125,-2.2597599029541016,4.9780192375183105,-3.9747183322906494
1761370636578558200,2.29055810546875,3.186319351196289,5.188794136047363,0.20502471923828125
1761370636597169200,2.309169189453125,10.97038459777832,2.5955970287323,6.831048965454102
1761370636615781400,2.327781494140625,13.958636283874512,-0.18327045440673828,9.618179321289062
1761370636634392300,2.346392333984375,12.132712364196777,-0.16382598876953125,5.709245681762695
1761370636653004800,2.3650048828125,8.490723609924316,2.0661065578460693,3.5237298011779785
1761370636671615700,2.38361572265625,4.454445838928223,2.2783565521240234,6.4377970695495605
1761370636690228000,2.40222802734375,3.346710205078125,1.1532574892044067,5.988821983337402
1761370636708839000,2.4208388671875,3.078592300415039,0.9351306557655334,2.7563986778259277
1761370636727451400,2.439451416015625,1.3151378631591797,1.3292137384414673,1.2664799690246582
1761370636746062300,2.458062255859375,-0.6192531585693359,1.74308443069458,1.3541860580444336
1761370636764674800,2.4766748046875,-2.579133987426758,1.8343095779418945,-0.4118332862854004
1761370636783285800,2.49528564453125,-3.298790454864502,1.5284254550933838,-3.2002696990966797
1761370636801898000,2.51389794921875,-2.6826162338256836,0.9404623508453369,-5.295544147491455
1761370636820509000,2.532509033203125,-1.4283223152160645,0.6495041847229004,-6.2826619148254395
1761370636839121400,2.551121337890625,-0.7351465225219727,0.537622332572937,-5.211165904998779
1761370636857732400,2.569732421875,-1.242701530456543,0.40575292706489563,-3.070223331451416
1761370636876344800,2.5883447265625,-2.240302085876465,0.36236831545829773,-1.8219857215881348
1761370636894955500,2.60695556640625,-3.4689202308654785,0.3114437460899353,-1.6002521514892578
1761370636913568000,2.625568115234375,-4.134743690490723,0.10773718357086182,-1.6445729732513428
1761370636932179000,2.644178955078125,-3.8340163230895996,-0.3002309799194336,-1.3156771659851074
1761370636950791400,2.66279150390625,-3.260438919067383,-0.7001949548721313,-0.7502892017364502
1761370636969402000,2.681402099609375,-2.3857502937316895,-1.2344155311584473,-0.21698760986328125
1761370636988014600,2.7000146484375,-0.9604334831237793,-1.9548183679580688,0.2374558448791504
1761370637006625500,2.71862548828125,-0.0024480819702148438,-2.711263418197632,0.5187892913818359
1761370637025238000,2.737238037109375,-0.34107494354248047,-2.770080327987671,-0.06783390045166016
1761370637043849000,2.755848876953125,-0.08070659637451172,-2.337825298309326,-0.16952228546142578
1761370637062461200,2.774461181640625,2.1144495010375977,-1.46302330493927,0.6226809024810791
1761370637081072000,2.793072021484375,3.8175525665283203,-0.28360486030578613,0.5869970321655273
1761370637099684600,2.8116845703125,4.470772743225098,2.1586477756500244,0.48836517333984375
1761370637118295600,2.830295654296875,4.506415367126465,3.2852282524108887,3.2089552879333496
1761370637136908000,2.848907958984375,6.856156349182129,3.3144209384918213,8.72021484375
1761370637155518700,2.867518798828125,7.996262550354004,2.0231592655181885,11.467342376708984
1761370637174131200,2.886131103515625,5.86544132232666,1.3650481700897217,7.323623180389404
1761370637192742100,2.9047421875,2.055116653442383,1.1607041358947754,3.0368142127990723
1761370637211354600,2.923354736328125,-0.7367525100708008,1.0222152471542358,1.5609683990478516
1761370637229965600,2.941965576171875,-2.250309944152832,0.9282234907150269,1.524312973022461
1761370637248577800,2.960577880859375,-3.3079347610473633,0.9646518230438232,0.7750225067138672
1761370637267188700,2.979188720703125,-3.2987499237060547,1.1493923664093018,-1.150465726852417
1761370637285801200,2.99780126953125,-1.9687085151672363,1.2814806699752808,-1.9001109600067139
1761370637304412200,3.016412109375,-0.7264642715454102,1.4015343189239502,-1.3381993770599365
1761370637323024600,3.035024658203125,-0.9995918273925781,1.628007411956787,-1.091374158859253
1761370637341635300,3.05363525390625,-3.3043713569641113,1.7826316356658936,-1.6567292213439941
1761370637360247800,3.072247802734375,-5.505361080169678,1.6043617725372314,-2.9508376121520996
1761370637378858800,3.090858642578125,-7.024808406829834,1.4050178527832031,-4.547031879425049
1761370637397471200,3.10947119140625,-8.297483444213867,0.6279058456420898,-5.105164527893066
1761370637416082200,3.128082275390625,-7.806509971618652,0.4740941524505615,-4.209620952606201
1761370637434694400,3.1466943359375,-5.968443870544434,-0.21468591690063477,-2.4343950748443604
1761370637453305300,3.165305419921875,-4.137134075164795,-0.9531913995742798,-1.103616714477539
1761370637471917800,3.183917724609375,-3.038017749786377,-1.4170539379119873,-0.7847776412963867
1761370637490528800,3.20252880859375,-1.9627857208251953,-1.4316014051437378,-1.3549363613128662
1761370637509141000,3.22114111328125,-0.5548033714294434,-1.0919601917266846,-1.4773869514465332
1761370637527752000,3.239751953125,1.2786540985107422,-0.5513393878936768,0.019931793212890625
1761370637546364400,3.258364501953125,3.133554458618164,-0.0003790855407714844,1.7310051918029785
1761370637564975400,3.276975341796875,4.96995735168457,-0.1471543312072754,3.1862010955810547
1761370637583587800,3.295587890625,6.127241134643555,0.029961585998535156,4.627091884613037
1761370637602198800,3.31419873046875,6.60128927230835,1.4618630409240723,5.051462173461914
1761370637620811000,3.33281103515625,6.087356090545654,2.54017972946167,5.361510276794434
1761370637639422000,3.351421875,3.6607837677001953,3.7600317001342773,5.240971565246582
1761370637658034400,3.370034423828125,1.668449878692627,3.6929855346679688,5.386499404907227
1761370637676645400,3.388645263671875,1.0178189277648926,2.4176652431488037,5.322086811065674
1761370637695257900,3.4072578125,0.083587646484375,0.9280886650085449,4.643524646759033
1761370637713868500,3.42586865234375,-0.44379520416259766,-0.19279742240905762,1.8940958976745605
1761370637732481000,3.44448095703125,1.685460090637207,-1.1479393243789673,-0.5344743728637695
1761370637751092000,3.463092041015625,4.686676025390625,-0.6825400590896606,-1.6637306213378906
1761370637769704400,3.481704345703125,5.575521469116211,-0.3866767883300781,-2.398611545562744
1761370637788315400,3.5003154296875,4.389178276062012,-0.2923436164855957,-3.749619722366333
1761370637806927600,3.518927734375,2.918031692504883,0.24163365364074707,-5.003293514251709
1761370637825538600,3.53753857421875,1.1127195358276367,0.9558777809143066,-4.680883407592773
1761370637844151000,3.556151123046875,-2.0861244201660156,1.052948236465454,-3.399862051010132
1761370637862762000,3.574761962890625,-4.731457710266113,1.7405447959899902,-3.159045934677124
1761370637881374200,3.593374267578125,-6.007817268371582,1.5968914031982422,-2.375276803970337
1761370637899985200,3.611985107421875,-5.827145576477051,1.4737982749938965,-0.5841484069824219
1761370637918597600,3.63059765625,-4.66099739074707,1.2139906883239746,0.5317792892456055
1761370637937208600,3.64920849609375,-3.035491943359375,0.6921055316925049,1.060986042022705
1761370637955821000,3.667821044921875,-1.3917303085327148,-0.2846531867980957,1.4828639030456543
1761370637974431700,3.686431640625,-0.6936373710632324,-1.5289251804351807,1.8826608657836914
1761370637993044200,3.705044189453125,-1.784219741821289,-2.711191415786743,1.8361310958862305
1761370638011655200,3.7236552734375,-2.9735560417175293,-3.420210361480713,1.1665058135986328
1761370638030267600,3.742267578125,-2.81298828125,-3.8711462020874023,0.43613719940185547
1761370638048878300,3.76087841796875,-2.349903106689453,-3.7504982948303223,-0.1154320240020752
1761370638067490800,3.77949072265625,-1.6169366836547852,-3.0539560317993164,-0.49249792098999023
1761370638086101800,3.798101806640625,-0.6148624420166016,-2.3290421962738037,-1.6312185525894165
1761370638104714200,3.81671435546875,1.5223445892333984,-1.4726142883300781,-3.0146830081939697
1761370638123325200,3.8353251953125,4.391613006591797,0.28780126571655273,-5.394744396209717
1761370638141937400,3.8539375,6.9103899002075195,2.168480396270752,-5.643954277038574
1761370638160548400,3.87254833984375,6.810204029083252,2.6519837379455566,-2.2609498500823975
1761370638179160800,3.891160888671875,8.46284294128418,2.369011402130127,3.7661101818084717
1761370638197771800,3.909771728515625,7.504354000091553,1.6013426780700684,6.919987678527832
1761370638216384300,3.92838427734375,2.9731760025024414,1.8009638786315918,3.911627769470215
1761370638234995200,3.9469951171875,-0.7223129272460938,1.2944483757019043,0.6044044494628906
1761370638253607400,3.965607421875,-1.3320870399475098,-0.27567386627197266,0.43274879455566406
1761370638272218400,3.98421826171875,0.3423614501953125,0.02250051498413086,2.2383108139038086
1761370638290830800,4.002830810546875,-0.0369720458984375,0.4686129093170166,1.9761834144592285
1761370638309441800,4.02144189453125,-1.5536518096923828,0.6688392162322998,-1.1717159748077393
1761370638328054000,4.040053955078125,-2.144956111907959,0.7304770946502686,-2.9584014415740967
1761370638346665000,4.0586650390625,-1.0466675758361816,0.9038026332855225,-1.8615334033966064
1761370638365277400,4.07727734375,-0.8820576667785645,1.1865999698638916,-1.29886794090271
1761370638383888400,4.095888427734375,-2.214564323425293,1.3084545135498047,-1.343116283416748
1761370638402500900,4.1145009765625,-3.9786300659179688,1.142256498336792,-1.2347590923309326
1761370638421111800,4.13311181640625,-4.871190071105957,0.6042401790618896,-1.428356409072876
1761370638439724000,4.15172412109375,-4.998140335083008,-0.14774346351623535,-1.4707152843475342
1761370638458335000,4.1703349609375,-4.5961995124816895,-1.0396833419799805,-1.2911522388458252
1761370638476947500,4.188947509765625,-4.274528980255127,-1.7888379096984863,-1.0224320888519287
1761370638495558400,4.207558349609375,-4.253552436828613,-2.494007110595703,-0.9879453182220459
1761370638514170600,4.226170654296875,-4.0904645919799805,-2.9369053840637207,-1.1857006549835205
1761370638532781600,4.244781494140625,-3.3456006050109863,-3.049981117248535,-1.0918848514556885
1761370638551394000,4.26339404296875,-2.2387161254882812,-2.623333692550659,-0.29026174545288086
1761370638570005000,4.2820048828125,-0.4573383331298828,-1.812312126159668,0.7853219509124756
1761370638588617500,4.300617431640625,2.1747140884399414,-0.4869260787963867,1.1590495109558105
1761370638607228400,4.319228515625,4.881857872009277,1.0588092803955078,2.1642940044403076
1761370638625840600,4.337840576171875,5.884160041809082,1.3730859756469727,3.4173007011413574
1761370638644451600,4.35645166015625,5.390786647796631,2.7489166259765625,2.334182024002075
1761370638663064000,4.37506396484375,4.296806812286377,4.463534355163574,0.46855998039245605
1761370638681675000,4.393675048828125,4.256554126739502,5.005550384521484,0.49595093727111816
1761370638700287500,4.41228759765625,5.037358283996582,4.246926307678223,3.1136105060577393
1761370638718898200,4.430898193359375,5.793401718139648,2.236558437347412,5.456337928771973
1761370638737510700,4.4495107421875,6.0423688888549805,1.3931803703308105,4.6714019775390625
1761370638756121600,4.46812158203125,4.973010063171387,2.1196532249450684,0.8870234489440918
1761370638774734000,4.486734130859375,1.6813468933105469,2.6322460174560547,-0.8617289066314697
1761370638793345000,4.505344970703125,-1.5729761123657227,1.7567532062530518,1.379469394683838
1761370638811957200,4.523957275390625,-2.88148832321167,1.1307780742645264,2.7155637741088867
1761370638830568200,4.542568115234375,-2.5161385536193848,1.2554473876953125,1.4613947868347168
1761370638849180700,4.5611806640625,-1.4743056297302246,1.6570346355438232,-0.6865720748901367
1761370638867791600,4.57979150390625,-2.2580580711364746,1.3165979385375977,-2.267277479171753
1761370638886404000,4.598404052734375,-3.621741771697998,0.8273506164550781,-3.2345995903015137
1761370638905015000,4.61701513671875,-4.566493034362793,0.3054158687591553,-3.5327653884887695
1761370638923627500,4.63562744140625,-4.800590991973877,-0.18545007705688477,-3.1004605293273926
1761370638942238200,4.65423828125,-4.5646467208862305,-0.8188817501068115,-2.612008810043335
1761370638960850700,4.6728505859375,-3.7970809936523438,-1.6024885177612305,-2.578664541244507
1761370638979461600,4.691461669921875,-2.9864535331726074,-2.5874364376068115,-2.813366413116455
1761370638998074000,4.71007421875,-2.422781467437744,-3.3919625282287598,-2.8978664875030518
1761370639016685000,4.72868505859375,-2.1400976181030273,-4.048583984375,-2.290950059890747
1761370639035297500,4.747297607421875,-2.3039445877075195,-4.609311580657959,-1.651430606842041
1761370639053908200,4.765908203125,-2.83712100982666,-4.231049537658691,-2.23144268989563
1761370639072520700,4.784520751953125,-2.3148446083068848,-3.2611942291259766,-3.113861083984375
1761370639091131600,4.803131591796875,-0.3816547393798828,-2.4879698753356934,-2.816436290740967
1761370639109744000,4.821744140625,1.9997124671936035,-1.096691608428955,-0.4825930595397949
1761370639128355000,4.84035498046875,4.991853713989258,-0.5363264083862305,4.289525508880615
1761370639146967300,4.85896728515625,5.922089576721191,-0.8381357192993164,6.844734191894531
1761370639165578200,4.877578125,4.907619476318359,2.7567038536071777,3.30224609375
1761370639184190700,4.896190673828125,2.0366196632385254,5.500288009643555,-0.613008975982666
1761370639202801700,4.9148017578125,1.065077304840088,6.8439621925354,-2.709775447845459
1761370639221414100,4.9334140625,3.803657054901123,5.648746490478516,0.3628716468811035
1761370639240025000,4.952025146484375,8.591306686401367,2.181575298309326,7.53730583190918
1761370639258637600,4.970637451171875,11.345744132995605,0.7542941570281982,9.946369171142578
1761370639277248300,4.989248291015625,8.404596328735352,1.5382168292999268,6.855591297149658
1761370639295860700,5.00786083984375,3.108438491821289,2.531081438064575,2.6674211025238037
1761370639314471700,5.0264716796875,-1.8644795417785645,3.0866289138793945,-0.472531795501709
1761370639333084200,5.045084228515625,-5.524272918701172,2.8918659687042236,-2.837925434112549
1761370639351695000,5.063695068359375,-5.887381553649902,3.0429530143737793,-5.048230171203613
1761370639370307600,5.0823076171875,-4.672362327575684,2.1368277072906494,-4.1847004890441895
1761370639388918500,5.10091845703125,-3.3994483947753906,1.34812331199646,-1.7883561849594116
1761370639407530800,5.11953076171875,-2.284219741821289,1.1127588748931885,0.22914361953735352
1761370639426141700,5.1381416015625,-2.9255919456481934,0.7227277755737305,0.8976767063140869
1761370639444754200,5.156754150390625,-4.775572299957275,0.160125732421875,0.05945777893066406
1761370639463365000,5.175365234375,-6.214603424072266,-0.7117249965667725,-1.1919841766357422
1761370639481977600,5.1939775390625,-6.786683559417725,-1.5634760856628418,-1.8351187705993652
1761370639500588500,5.212588623046875,-6.5271830558776855,-2.3822264671325684,-0.9855544567108154
1761370639519201000,5.231200927734375,-6.183066368103027,-2.987919807434082,0.21246576309204102
1761370639537812000,5.24981201171875,-5.977360248565674,-3.25077223777771,0.5295007228851318
1761370639556424200,5.268424072265625,-5.983687877655029,-3.160454750061035,-0.9901573657989502
1761370639575035100,5.28703515625,-5.061179161071777,-2.0672125816345215,-2.629211902618408
1761370639593647600,5.305647705078125,-2.4529223442077637,-0.8340325355529785,-2.2010498046875
1761370639612258600,5.324258544921875,0.3045010566711426,0.3231339454650879,-0.20755863189697266
1761370639630871000,5.34287109375,3.673659324645996,0.6761565208435059,3.4665684700012207
1761370639649482000,5.36148193359375,6.504161357879639,0.40669965744018555,5.518396854400635
1761370639668094500,5.380094482421875,6.6905717849731445,1.9950404167175293,3.376358985900879
1761370639686705200,5.398705078125,3.6977791786193848,4.638510227203369,-0.23575639724731445
1761370639705317600,5.417317626953125,0.9782242774963379,5.80924129486084,-1.1820056438446045
1761370639723928600,5.435928466796875,1.3699870109558105,2.7960305213928223,3.3187813758850098
1761370639742541000,5.454541015625,3.9858131408691406,-1.0513629913330078,6.696155548095703
1761370639761152000,5.473152099609375,6.087125778198242,-2.889026165008545,5.864168167114258
1761370639779764500,5.491764404296875,4.563429832458496,-1.1762316226959229,2.208754539489746
1761370639798375400,5.51037548828125,0.8684673309326172,-0.2496652603149414,-1.9218357801437378
1761370639816988000,5.52898779296875,-2.2889699935913086,0.2961244583129883,-5.751222610473633
1761370639835598600,5.5475986328125,-4.177765369415283,1.3347184658050537,-7.8214311599731445
1761370639854211000,5.566211181640625,-1.6902122497558594,2.672194480895996,-7.0534162521362305
1761370639872822000,5.584822021484375,2.5217742919921875,2.772430181503296,-3.2112555503845215
1761370639891434500,5.6034345703125,5.0991716384887695,1.9578206539154053,0.8849217891693115
1761370639910045400,5.62204541015625,4.911223411560059,2.221850633621216,2.3432161808013916
1761370639928658000,5.640657958984375,1.5389318466186523,2.5891060829162598,1.7610418796539307
1761370639947268900,5.659268798828125,-1.7865328788757324,2.5882911682128906,0.9421885013580322
1761370639965881300,5.67788134765625,-3.287466526031494,1.869028091430664,0.5625076293945312
1761370639984492000,5.696491943359375,-3.704094886779785,1.1688483953475952,0.13870859146118164
1761370640003104500,5.7151044921875,-4.494760513305664,0.6578643321990967,0.5137455463409424
1761370640021715500,5.733715576171875,-4.550679683685303,0.3053239583969116,1.4087576866149902
1761370640040328000,5.752327880859375,-3.990540027618408,-0.05321383476257324,2.087190628051758
1761370640058939000,5.77093896484375,-2.6386194229125977,-0.5288288593292236,1.9209909439086914
1761370640077551400,5.78955126953125,-1.1534452438354492,-0.9226174354553223,1.4517707824707031
1761370640096162300,5.808162353515625,1.3236808776855469,-2.052468776702881,2.4616434574127197
1761370640114774800,5.82677490234375,5.064889907836914,-2.787020444869995,4.820372581481934
1761370640133385700,5.8453857421875,7.10670280456543,-2.318587303161621,5.232397556304932
1761370640151998200,5.863998291015625,6.9628143310546875,-2.607903003692627,4.347160339355469
1761370640170609000,5.88260888671875,6.08791446685791,-1.7779459953308105,0.8266496658325195
1761370640189221400,5.901221435546875,4.967972755432129,0.5477924346923828,-2.9980719089508057
1761370640207832300,5.919832275390625,4.465298175811768,2.356532096862793,-3.391289234161377
1761370640226444800,5.93844482421875,5.127696514129639,2.716275691986084,-1.0272865295410156
1761370640245055700,5.9570556640625,4.486685752868652,1.623845100402832,1.1638720035552979
1761370640263668200,5.975668212890625,3.429194450378418,0.20475244522094727,1.9208369255065918
1761370640282279200,5.994279052734375,2.061582565307617,-0.7683930397033691,2.1687941551208496
1761370640300891600,6.0128916015625,0.5010461807250977,-1.4188849925994873,0.8250513076782227
1761370640319502600,6.031502685546875,-0.0830068588256836,-1.1005403995513916,-1.2683899402618408
1761370640338114800,6.05011474609375,-0.832188606262207,-0.5754096508026123,-2.106639862060547
1761370640356725800,6.068725830078125,-1.9442071914672852,0.14364933967590332,-2.791510581970215
1761370640375338200,6.087338134765625,-3.215878963470459,0.9269611835479736,-3.322667121887207
1761370640393949200,6.10594921875,-3.9788641929626465,1.8599879741668701,-3.2722530364990234
1761370640412561700,6.124561767578125,-4.193435192108154,2.0174167156219482,-2.046262264251709
1761370640431172600,6.143172607421875,-3.735569953918457,1.753373622894287,-0.798465371131897
1761370640449785000,6.16178515625,-3.8913521766662598,1.5970752239227295,-0.6461681127548218
1761370640468396000,6.18039599609375,-4.9174113273620605,1.040776014328003,-0.9265559911727905
1761370640487008500,6.199008544921875,-6.03917932510376,-0.5110664367675781,-1.032339334487915
1761370640505619500,6.217619384765625,-5.661389350891113,-1.3670146465301514,-1.2699865102767944
1761370640524231700,6.236231689453125,-4.3211517333984375,-1.1672194004058838,-1.3620388507843018
1761370640542842600,6.254842529296875,-3.2095775604248047,-0.9367401599884033,-0.10870790481567383
1761370640561455000,6.273455078125,-2.5558953285217285,-1.598404884338379,1.5395922660827637
1761370640580066000,6.292066162109375,-2.083085060119629,-2.353264570236206,2.2344908714294434
1761370640598678500,6.310678466796875,-1.9166502952575684,-1.6819696426391602,2.078684091567993
1761370640617289500,6.32928955078125,-1.657949447631836,-0.5187172889709473,1.0396289825439453
1761370640635902000,6.34790185546875,-0.3232583999633789,0.7718191146850586,-0.13794755935668945
1761370640654513000,6.366512939453125,1.769068717956543,2.2736034393310547,-0.22831058502197266
1761370640673125400,6.38512548828125,4.040574550628662,3.5195274353027344,1.5406699180603027
1761370640691736300,6.403736328125,5.5014448165893555,3.917229652404785,4.595784664154053
1761370640710348500,6.4223486328125,5.653176307678223,5.674228191375732,4.752314567565918
1761370640728959500,6.44095947265625,2.8344359397888184,6.138910293579102,4.25682258605957
1761370640747572000,6.459572021484375,0.058985233306884766,4.462386608123779,3.9656662940979004
1761370640766183000,6.478182861328125,-0.5403151512145996,2.1947226524353027,3.6878855228424072
1761370640784795400,6.49679541015625,0.3688387870788574,-0.7883872985839844,3.7225069999694824
1761370640803406300,6.51540625,-0.44965696334838867,-3.5942037105560303,2.7351644039154053
1761370640822018800,6.534018798828125,-1.4316840171813965,-3.48592472076416,-0.7691414952278137
1761370640840629800,6.552629638671875,-0.3777456283569336,-1.9099669456481934,-3.282050132751465
1761370640859242200,6.5712421875,0.4677238464355469,-1.8275606632232666,-2.3320841789245605
1761370640877853200,6.589853271484375,-0.0872488021850586,-1.8479125499725342,-0.4823722243309021
1761370640896465700,6.608465576171875,-1.6010370254516602,-1.3516919612884521,0.2384718656539917
1761370640915076600,6.62707666015625,-2.7675905227661133,-0.7465589046478271,-0.2246711254119873
1761370640933689000,6.645689208984375,-2.92988920211792,-0.12085151672363281,-1.0580703020095825
1761370640952300000,6.664300048828125,-2.3455147743225098,-0.05449342727661133,-0.9624618291854858
1761370640970912300,6.682912353515625,-2.6545891761779785,-0.4369382858276367,-0.31083357334136963
1761370640989523200,6.701523193359375,-3.4451394081115723,-1.034360647201538,0.1598719358444214
1761370641008135700,6.7201357421875,-3.8553857803344727,-1.5773577690124512,0.05668175220489502
1761370641026746600,6.73874658203125,-3.516244411468506,-2.236137628555298,-0.4827169179916382
1761370641045359000,6.757359130859375,-3.5139098167419434,-3.0538253784179688,-0.8529531359672546
1761370641063970000,6.775969970703125,-3.3595800399780273,-3.435080051422119,-1.3556174039840698
1761370641082582500,6.79458251953125,-2.439908504486084,-3.365267753601074,-1.449972152709961
1761370641101193500,6.813193359375,-1.0519328117370605,-3.316518545150757,-0.31324976682662964
1761370641119806000,6.831805908203125,-0.1584920883178711,-3.429159164428711,1.3973861932754517
1761370641138417000,6.8504169921875,0.4499349594116211,-2.183331251144409,1.4475599527359009
1761370641157029000,6.869029052734375,1.587015151977539,-0.5002737045288086,0.3737444281578064
1761370641175640000,6.88764013671875,5.178717613220215,1.1679725646972656,0.11109453439712524
1761370641194252500,6.90625244140625,8.393484115600586,0.6962780952453613,2.283323287963867
1761370641212863500,6.924863525390625,10.012067794799805,1.882824420928955,0.7524636387825012
1761370641231476000,6.94347607421875,9.258563995361328,4.417575836181641,-1.3717021942138672
1761370641250087000,6.9620869140625,6.602256774902344,5.366004943847656,-1.493241310119629
1761370641268699400,6.980699462890625,4.586721420288086,5.333049297332764,0.27386176586151123
1761370641287310300,6.999310302734375,2.8597164154052734,3.4327306747436523,2.597228527069092
1761370641305922800,7.0179228515625,3.192410469055176,2.264902114868164,1.7880730628967285
1761370641324533800,7.03653369140625,5.568175315856934,2.734239101409912,0.9411712884902954
1761370641343146200,7.055146240234375,5.699892044067383,2.3948192596435547,2.3911662101745605
1761370641361757200,7.073757080078125,3.98245906829834,1.9006085395812988,3.044013738632202
1761370641380369700,7.09236962890625,1.3918333053588867,1.435258150100708,2.451486349105835
1761370641398980600,7.110980712890625,-1.5825867652893066,0.846182107925415,0.9768106937408447
1761370641417592800,7.1295927734375,-3.835965156555176,0.40816831588745117,-0.40346574783325195
1761370641436203800,7.148203857421875,-5.382617473602295,-0.1934652328491211,-0.807443380355835
1761370641454816300,7.166816162109375,-6.111232757568359,-0.9551925659179688,-0.11306905746459961
1761370641473427200,7.18542724609375,-6.577296257019043,-1.5349152088165283,0.8829314708709717
1761370641492039700,7.204039794921875,-7.069271087646484,-2.764881134033203,1.3143978118896484
1761370641510650600,7.222650634765625,-7.716940402984619,-3.3515784740448,0.9496667385101318
1761370641529263000,7.24126318359375,-8.150580406188965,-3.470197916030884,0.2757068872451782
1761370641547874000,7.2598740234375,-7.970028877258301,-4.058705806732178,-0.1648973822593689
1761370641566486500,7.278486572265625,-7.039509296417236,-4.252498626708984,-0.6983328461647034
1761370641585097500,7.297097412109375,-5.444182872772217,-3.9243593215942383,-1.4659172296524048
1761370641603709700,7.315709716796875,-3.7930469512939453,-3.3216090202331543,-1.4235411882400513
1761370641622320600,7.334320556640625,-1.869645595550537,-2.8272314071655273,-0.9929563999176025
1761370641640933000,7.35293310546875,0.30591583251953125,-1.532247543334961,-0.949055552482605
1761370641659544000,7.3715439453125,2.7088937759399414,-0.25485706329345703,-0.4281924068927765
1761370641678156500,7.390156494140625,4.778780460357666,0.607813835144043,0.2468198537826538
1761370641696767500,7.408767578125,5.330288887023926,1.770578384399414,0.10264509916305542
1761370641715380000,7.4273798828125,3.9673943519592285,2.3108391761779785,-0.17299124598503113
1761370641733991000,7.445990966796875,1.6567635536193848,3.095155715942383,-0.40951210260391235
1761370641752603400,7.464603271484375,1.1085572242736816,6.009411811828613,-1.6133651733398438
1761370641771214300,7.48321435546875,1.8554949760437012,7.557109355926514,-2.4205288887023926
1761370641789826800,7.501826904296875,1.8879404067993164,5.353732585906982,0.3838080167770386
1761370641808437800,7.520437744140625,0.9653224945068359,0.5751504898071289,3.435323715209961
1761370641827050200,7.53905029296875,3.6953020095825195,0.7549762725830078,0.9797114133834839
1761370641845661200,7.5576611328125,6.278939247131348,1.6641297340393066,-0.9710036516189575
1761370641864273400,7.5762734375,6.147588729858398,1.511052131652832,-0.6017738580703735
1761370641882884400,7.59488427734375,3.051558494567871,-0.008629322052001953,1.1949787139892578
1761370641901496800,7.613496826171875,-0.2895517349243164,-0.0073089599609375,0.8472756147384644
1761370641920107800,7.632107666015625,-2.793950080871582,-0.07555913925170898,-0.4174400866031647
1761370641938720300,7.65072021484375,-3.9658102989196777,0.017983436584472656,-2.220778465270996
1761370641957331200,7.669331298828125,-4.339306831359863,-0.06352043151855469,-3.6003687381744385
1761370641975943700,7.687943603515625,-4.301045894622803,-0.8032746315002441,-2.88271164894104
1761370641994554600,7.7065546875,-4.062483787536621,-1.4437355995178223,-1.420014500617981
1761370642013167000,7.7251669921875,-3.649028778076172,-1.8775782585144043,-0.12932482361793518
1761370642031778000,7.743778076171875,-3.425417900085449,-2.277456521987915,0.47734493017196655
1761370642050390500,7.762390625,-3.256007671356201,-2.362222909927368,0.1504262536764145
1761370642069001500,7.78100146484375,-3.1226754188537598,-2.581969976425171,-0.4735475778579712
1761370642087613700,7.79961376953125,-2.3865513801574707,-3.1093668937683105,-0.7770006060600281
1761370642106224600,7.818224609375,-1.378159999847412,-3.244542121887207,-0.836480975151062
1761370642124837000,7.836837158203125,-0.48429441452026367,-2.815232515335083,-0.525810182094574
1761370642143448000,7.855447998046875,0.5375628471374512,-2.212390899658203,0.6103808879852295
1761370642162060500,7.874060546875,2.207737445831299,-1.44256591796875,2.203216075897217
1761370642180671500,7.89267138671875,4.358105182647705,-0.18303251266479492,1.55020272731781
1761370642199284000,7.911283935546875,5.535406589508057,0.9610743522644043,0.13751013576984406
1761370642217895000,7.92989501953125,6.288851737976074,1.4046010971069336,0.4038677215576172
1761370642236507400,7.94850732421875,7.091038227081299,1.9942107200622559,-1.0033296346664429
1761370642255118300,7.967118408203125,6.360793113708496,3.189149856567383,-2.2787063121795654
1761370642273730800,7.985730712890625,4.680056571960449,4.789450168609619,-1.4498679637908936
1761370642292341800,8.004341796875,2.055236339569092,2.640005588531494,1.7860652208328247
1761370642310954200,8.022954345703125,0.41061973571777344,-0.6420412063598633,2.5521371364593506
1761370642329565200,8.041565185546874,4.400151252746582,2.337064266204834,-1.4935896396636963
1761370642348177400,8.060177490234375,6.259123802185059,4.2082343101501465,-1.9004677534103394
1761370642366788400,8.078788330078124,4.727670669555664,2.2665438652038574,1.8281996250152588
1761370642385400800,8.09740087890625,1.2568273544311523,2.0324158668518066,4.407834053039551
1761370642404011800,8.11601171875,-3.587700843811035,-0.0769948959350586,5.4408159255981445
1761370642422624300,8.134624267578126,-6.988012313842773,-0.9585440158843994,3.060028314590454
1761370642441235200,8.153235107421875,-7.5039825439453125,-0.31633424758911133,-0.5787599682807922
1761370642459847700,8.17184765625,-5.9111328125,-0.618894100189209,-2.381232261657715
1761370642478458600,8.190458740234375,-3.080437660217285,-1.6267387866973877,-2.469116687774658
1761370642497071000,8.209071044921876,-1.9262046813964844,-2.344846248626709,-0.8417675495147705
1761370642515682000,8.22768212890625,-2.900139808654785,-3.0208635330200195,0.5312330722808838
1761370642534294500,8.24629443359375,-4.318983554840088,-3.204887866973877,0.6573914289474487
1761370642552905500,8.264905517578125,-5.2234039306640625,-3.724557399749756,0.10476768016815186
1761370642571518000,8.28351806640625,-5.594951629638672,-3.9696784019470215,0.14031434059143066
1761370642590129000,8.30212890625,-5.755228042602539,-4.2178521156311035,0.18264693021774292
1761370642608741000,8.3207412109375,-5.450395584106445,-4.115829944610596,0.2269512414932251
1761370642627352000,8.33935205078125,-4.319109916687012,-2.7813591957092285,0.05461078882217407
1761370642645964500,8.357964599609375,-2.5517001152038574,-0.9764065742492676,-0.388770192861557
1761370642664575500,8.376575439453125,-0.1697697639465332,0.059986114501953125,-0.3439682722091675
1761370642683188000,8.39518798828125,2.746857166290283,0.7992520332336426,-0.3525868058204651
1761370642701799000,8.413798828125,5.204687595367432,2.232875347137451,-0.9799467325210571
1761370642720411400,8.432411376953125,7.043694496154785,2.2482991218566895,-0.5499848127365112
1761370642739022300,8.451022216796876,7.998863220214844,1.3994221687316895,-0.03746294975280762
1761370642757634800,8.469634765625,8.292774200439453,3.620455265045166,-1.3419283628463745
1761370642776245800,8.488245849609376,7.181401252746582,5.631777763366699,-2.1237294673919678
1761370642794858200,8.506858154296875,4.9620161056518555,5.388364791870117,-0.3468587398529053
1761370642813469200,8.52546923828125,5.456512451171875,6.202688694000244,0.8929488658905029
1761370642832081700,8.54408154296875,4.933842658996582,3.9983553886413574,2.774724006652832
1761370642850692600,8.562692626953124,2.142096996307373,2.258821487426758,2.0804176330566406
1761370642869305000,8.58130517578125,-1.0091619491577148,1.1573457717895508,0.7910220623016357
1761370642887915800,8.599915771484374,-2.5578842163085938,0.37631654739379883,0.6893129348754883
1761370642906528300,8.6185283203125,-2.5266213417053223,-0.39314985275268555,0.9886372089385986
1761370642925139200,8.63713916015625,-2.090754985809326,-0.9390602111816406,0.8325707912445068
1761370642943751700,8.655751708984376,-2.042752265930176,-1.2025279998779297,-0.033585309982299805
1761370642962362600,8.674362548828125,-1.847764015197754,-1.0916626453399658,-0.9537469744682312
1761370642980975000,8.69297509765625,-1.9652652740478516,-0.9075736999511719,-1.473844051361084
1761370642999586000,8.7115859375,-2.191141128540039,-0.862727165222168,-1.467000126838684
1761370643018198500,8.730198486328124,-2.7286691665649414,-1.0695481300354004,-1.0918996334075928
1761370643036809500,8.7488095703125,-3.4624524116516113,-1.5585060119628906,-0.60386061668396
1761370643055422000,8.767421875,-4.021355152130127,-2.090216636657715,-0.26446855068206787
1761370643074033000,8.786032958984375,-4.260256767272949,-2.2042901515960693,-0.6110948920249939
1761370643092645400,8.804645263671874,-4.5677266120910645,-2.8457133769989014,-0.6658357381820679
1761370643111256300,8.82325634765625,-4.766095161437988,-3.499765396118164,-0.4344261884689331
1761370643129868500,8.84186865234375,-4.854331970214844,-3.6282126903533936,0.04157602787017822
1761370643148479500,8.8604794921875,-4.096914291381836,-2.916569232940674,0.3590109348297119
1761370643167092000,8.879092041015625,-1.8804750442504883,-1.1997365951538086,-0.18871212005615234
1761370643185703000,8.897702880859375,0.9020876884460449,-0.5477776527404785,-0.2902534008026123
1761370643204315400,8.9163154296875,2.8345932960510254,-0.7810802459716797,-0.8231726884841919
1761370643222926300,8.93492626953125,4.564511775970459,0.5262174606323242,-0.9588871002197266
1761370643241538800,8.953538818359375,5.084794521331787,0.8772392272949219,0.6370711326599121
1761370643260149800,8.972149658203126,4.779147624969482,1.8665032386779785,1.2174816131591797
1761370643278762200,8.99076220703125,3.726388931274414,3.9450531005859375,0.1261284351348877
1761370643297373200,9.009373291015624,3.1444320678710938,5.848894119262695,-0.9438036680221558
1761370643315985700,9.027985595703125,1.650503158569336,5.707893371582031,-0.8408399820327759
1761370643334596600,9.0465966796875,1.1739387512207031,5.570607662200928,0.9120988845825195
1761370643353209000,9.065208984375,1.9169182777404785,3.21291446685791,3.9372031688690186
1761370643371820000,9.083820068359374,1.7414608001708984,-0.2371044158935547,4.421438217163086
1761370643390432300,9.102432373046875,1.752091407775879,-2.143876314163208,2.1734936237335205
1761370643409043200,9.121043212890624,4.240825653076172,-0.7107045650482178,-0.35396361351013184
1761370643427655700,9.13965576171875,6.080597877502441,0.14797329902648926,0.9966530799865723
1761370643446266600,9.1582666015625,5.011003494262695,0.17654752731323242,3.3562426567077637
1761370643464879000,9.176879150390626,0.6907539367675781,-0.45684194564819336,3.513836622238159
1761370643483490000,9.195489990234375,-3.0844526290893555,-1.17136812210083,1.68729829788208
1761370643502102500,9.2141025390625,-4.762609004974365,-1.1469573974609375,-0.8205500245094299
1761370643520713500,9.23271337890625,-4.834695816040039,-0.8213844299316406,-2.128359317779541
1761370643539326000,9.251325927734374,-4.672667503356934,-1.2083091735839844,-1.4894587993621826
1761370643557937000,9.26993701171875,-4.9411940574646,-2.5598044395446777,-0.9890606999397278
1761370643576549400,9.28854931640625,-5.081229209899902,-3.6277694702148438,-0.8760565519332886
1761370643595160000,9.30716015625,-4.818979263305664,-3.9670677185058594,-0.9542434215545654
1761370643613772500,9.3257724609375,-4.179683685302734,-4.311326503753662,-0.8157448768615723
1761370643632383500,9.344383544921875,-3.502232074737549,-4.515138626098633,-0.6053728461265564
1761370643650996000,9.362995849609375,-2.6113710403442383,-3.9347660541534424,-0.2247227430343628
1761370643669607000,9.38160693359375,-2.1543445587158203,-3.095329761505127,0.23271626234054565
1761370643688219400,9.400219482421875,-1.994704246520996,-1.4853901863098145,-0.014069020748138428
1761370643706830300,9.418830322265626,-0.869020938873291,-0.11284446716308594,-0.9164891839027405
1761370643725442800,9.43744287109375,1.2180495262145996,0.6381072998046875,-1.8256330490112305
1761370643744053800,9.4560537109375,3.8781604766845703,2.231888771057129,-1.484520435333252
1761370643762666200,9.474666259765625,6.001290798187256,3.439286231994629,1.133085012435913
1761370643781277200,9.493277099609376,5.590862274169922,3.496053695678711,2.285252094268799
1761370643799889700,9.5118896484375,3.949129581451416,5.54295539855957,-0.33938729763031006
1761370643818500600,9.53050048828125,2.209712028503418,8.155226707458496,-1.8101422786712646
1761370643837112800,9.54911279296875,2.806286334991455,10.243176460266113,-1.6529408693313599
1761370643855723800,9.567723876953124,1.848830223083496,6.088291645050049,1.0609803199768066
1761370643874336300,9.586336181640625,0.7252087593078613,2.8522677421569824,1.5343964099884033
1761370643892947200,9.604947265625,0.4289207458496094,0.7616143226623535,-0.2543719410896301
1761370643911559700,9.6235595703125,1.9455537796020508,0.5127129554748535,-1.8111655712127686
1761370643930170600,9.642170654296875,3.884669303894043,0.3963336944580078,-0.8316406011581421
1761370643948783000,9.660783203125,3.373530387878418,-0.023755550384521484,0.688061535358429
1761370643967394000,9.67939404296875,0.44329357147216797,-0.5156874656677246,0.7138669490814209
1761370643986006500,9.698006591796876,-2.96834135055542,-0.723487138748169,0.12917891144752502
1761370644004617500,9.716617431640625,-5.0552449226379395,-1.0886986255645752,-0.848503828048706
1761370644023230000,9.73522998046875,-5.115487098693848,-1.348933458328247,-1.0469343662261963
1761370644041841000,9.7538408203125,-4.72964334487915,-1.9064068794250488,-0.5417814254760742
1761370644060453400,9.772453369140624,-4.9635772705078125,-2.82694673538208,0.18088799715042114
1761370644079064000,9.79106396484375,-5.292909145355225,-3.1763219833374023,0.388808012008667
1761370644097676500,9.809676513671874,-5.206416130065918,-3.543748378753662,0.1795981526374817
1761370644116287500,9.82828759765625,-4.986557483673096,-4.200777053833008,-0.01873961091041565
1761370644134900000,9.84689990234375,-4.4623517990112305,-4.800502300262451,0.137526273727417
1761370644153511000,9.865510986328125,-4.049370765686035,-4.994755268096924,0.3097909688949585
1761370644172123400,9.884123291015625,-3.571087121963501,-4.041227340698242,-0.05824697017669678
1761370644190734300,9.902734375,-3.5113186836242676,-3.049325466156006,0.118613600730896
1761370644209346800,9.921346923828125,-3.0869269371032715,-1.798013687133789,-0.25723665952682495
1761370644227957800,9.939957763671876,-1.6633296012878418,-0.07158851623535156,-0.8040622472763062
1761370644246570200,9.9585703125,-0.2640829086303711,2.086465358734131,-0.09308731555938721
1761370644265181200,9.97718115234375,1.151212215423584,3.734255313873291,1.1081219911575317
1761370644283793700,9.995793701171875,3.0814852714538574,3.676751136779785,2.4236016273498535
1761370644302404600,10.014404541015624,5.215307235717773,4.8359785079956055,1.5300371646881104
1761370644321016800,10.033016845703125,4.149024486541748,7.376448631286621,0.15787923336029053
1761370644339627800,10.051627685546874,2.080411911010742,8.171232223510742,-0.06888425350189209
1761370644358240300,10.070240234375,2.2028188705444336,7.751153945922852,1.766268253326416
1761370644376851200,10.088851318359374,2.343099594116211,4.007291793823242,4.526092529296875
1761370644395463700,10.107463623046876,2.3350696563720703,-0.19556856155395508,4.150747299194336
1761370644414074600,10.12607470703125,4.117693901062012,-0.746680736541748,0.1079748272895813
1761370644432687000,10.14468701171875,6.167123794555664,0.6280219554901123,-1.7741363048553467
1761370644451298000,10.163298095703125,5.261226654052734,0.6922166347503662,-0.09623146057128906
1761370644469910500,10.18191064453125,2.786463737487793,0.43611741065979004,0.9277917146682739
1761370644488521500,10.200521484375,-1.2017459869384766,-0.608283281326294,0.6597295999526978
1761370644507133700,10.2191337890625,-4.168493747711182,-0.5241513252258301,-0.4015629291534424
1761370644525744600,10.23774462890625,-5.498427391052246,-0.20084428787231445,-1.4190728664398193
1761370644544357000,10.256357177734374,-5.128997802734375,-0.6652796268463135,-1.7089784145355225
1761370644562968000,10.274968017578125,-4.233128070831299,-1.3281676769256592,-1.1699769496917725
1761370644581580500,10.29358056640625,-3.534834861755371,-2.1832993030548096,-0.45029759407043457
1761370644600191500,10.31219140625,-3.205130100250244,-2.755856990814209,0.46364080905914307
1761370644618804000,10.330803955078125,-3.547400951385498,-3.5078768730163574,0.9876315593719482
1761370644637415000,10.349414794921875,-3.981375217437744,-3.660064697265625,0.3366457223892212
1761370644656027400,10.36802734375,-4.421969413757324,-3.252174139022827,-0.7432892918586731
1761370644674638300,10.386638427734376,-4.432666778564453,-2.336927652359009,-1.420614242553711
1761370644693250800,10.405250732421875,-3.8951845169067383,-0.8883771896362305,-1.2445197105407715
1761370644711861800,10.42386181640625,-2.3603286743164062,0.43163299560546875,-0.9411457777023315
1761370644730474000,10.442473876953125,0.6570420265197754,1.916341781616211,-0.7330174446105957
1761370644749085000,10.4610849609375,4.177777290344238,3.2401790618896484,0.17946046590805054
1761370644767697400,10.479697509765625,5.153871536254883,2.9528703689575195,1.5761679410934448
1761370644786308400,10.498308349609376,4.7375874519348145,4.278512477874756,1.010561466217041
1761370644804920800,10.5169208984375,2.871072769165039,5.123256683349609,1.750368595123291
1761370644823531800,10.53553173828125,2.1359996795654297,4.17686128616333,3.256539821624756
1761370644842144300,10.554144287109375,3.176443099975586,2.59078311920166,3.2802085876464844
1761370644860755200,10.572755126953124,4.033708572387695,1.2128405570983887,2.186870574951172
1761370644879367700,10.59136767578125,3.3376073837280273,-0.11527013778686523,0.7815839052200317
1761370644897978600,10.609978515625,1.272994041442871,-1.055330753326416,-0.6629021167755127
1761370644916591000,10.628591064453126,-1.1303839683532715,-1.4604573249816895,-2.7104547023773193
1761370644935202000,10.6472021484375,-2.6752161979675293,-1.3846957683563232,-4.241940021514893
1761370644953814300,10.665814208984376,-3.0312228202819824,-1.6249547004699707,-4.78694486618042
1761370644972425200,10.68442529296875,-2.327548027038574,-1.1246092319488525,-4.749221324920654
1761370644991037700,10.70303759765625,-2.5397186279296875,-2.019740343093872,-2.087052822113037
1761370645009648600,10.721648681640625,-2.404818534851074,-2.226612091064453,0.21967732906341553
1761370645028261000,10.74026123046875,-1.8514299392700195,-2.4809441566467285,1.4222325086593628
1761370645046872000,10.7588720703125,-0.9983463287353516,-2.703690767288208,1.4581520557403564
1761370645065484500,10.777484619140624,-0.2492227554321289,-2.357393741607666,0.4704843759536743
1761370645084095500,10.796095458984375,-0.8313121795654297,-2.097480058670044,-0.029045939445495605
1761370645102708000,10.8147080078125,-1.5145869255065918,-1.7386105060577393,-0.7039607167243958
1761370645121319000,10.83331884765625,-0.022695541381835938,-0.4714956283569336,-0.7371485829353333
1761370645139931400,10.851931396484375,1.1875181198120117,0.25288915634155273,-0.09835505485534668
1761370645158542300,10.870542236328125,0.5094575881958008,1.149155616760254,-0.1875063180923462
1761370645177154600,10.889154541015625,-0.7726955413818359,2.0724453926086426,-0.9456797242164612
1761370645195765500,10.907765625,-2.2901721000671387,3.1387200355529785,-1.6016229391098022
1761370645214378000,10.9263779296875,-2.784296989440918,3.7235264778137207,-1.716523289680481
1761370645232989000,10.944989013671876,-1.3079042434692383,3.316805362701416,-1.069684624671936
1761370645251601400,10.963601318359375,1.038309097290039,2.6368422508239746,0.1228402853012085
1761370645270212400,10.98221240234375,3.0769882202148438,2.893045425415039,1.7866015434265137
1761370645288824800,11.000824951171875,2.83746337890625,2.8104734420776367,3.2502238750457764
1761370645307435800,11.019435791015624,1.0835371017456055,2.527750015258789,2.8188869953155518
1761370645326048300,11.03804833984375,-0.18183517456054688,1.2667078971862793,0.976240873336792
1761370645344659200,11.0566591796875,-0.03737449645996094,0.5197262763977051,-1.4885382652282715
