time,seconds_elapsed,z,y,x
1761753319938450200,0.0744501953125,0,0,0
1761753319976110800,0.11211083984375,-1.0277538299560547,-0.3749316334724426,-0.9711915254592896
1761753320013771300,0.149771240234375,-0.35435009002685547,0.15809741616249084,0.6694965362548828
1761753320051432000,0.187431884765625,0.5296554565429688,0.3748927116394043,-0.3268597424030304
1761753320089092600,0.225092529296875,0.5855817794799805,-0.5304516553878784,1.1186752319335938
1761753320126753000,0.2627529296875,-0.8096170425415039,1.0529210567474365,-1.0917116403579712
1761753320164413700,0.30041357421875,-0.6075611114501953,0.6270370483398438,-2.43308162689209
1761753320202074400,0.338074462890625,-0.038498878479003906,-0.9944567680358887,1.8234446048736572
1761753320239735000,0.375735107421875,1.2253236770629883,0.24165290594100952,3.6196370124816895
1761753320277395500,0.4133955078125,2.077423095703125,-0.8306864500045776,0.6678590178489685
1761753320315056000,0.45105615234375,2.049654006958008,-1.9292540550231934,1.1527019739151
1761753320352716500,0.488716552734375,1.823923110961914,-1.1875932216644287,1.8531838655471802
1761753320390377200,0.526377197265625,0.5181951522827148,-1.6484463214874268,1.9045231342315674
1761753320428037600,0.56403759765625,-0.7191905975341797,-1.143263339996338,1.9272009134292603
1761753320465698300,0.6016982421875,-1.9208879470825195,-0.4164670407772064,2.0318667888641357
1761753320503359000,0.63935888671875,-0.6704282760620117,-0.913741946220398,1.1425753831863403
1761753320541019400,0.677019287109375,0.3654766082763672,-0.9658706188201904,0.8407971858978271
1761753320578680000,0.71468017578125,-2.3772878646850586,-0.2525572180747986,-0.5258452892303467
1761753320616340500,0.752340576171875,-0.2796478271484375,-0.5114743113517761,1.482212781906128
1761753320654001200,0.790001220703125,-2.419978141784668,-0.11632173508405685,-0.21699011325836182
1761753320691661600,0.82766162109375,-2.7513113021850586,-0.29631900787353516,-0.15546870231628418
1761753320729322200,0.865322265625,-1.618360996246338,-0.5396175384521484,0.12045276165008545
1761753320766983000,0.90298291015625,-2.480001449584961,-0.03449224308133125,-0.6923682689666748
1761753320804643600,0.9406435546875,-3.0896825790405273,-0.01879720576107502,-0.9914817810058594
1761753320842304000,0.978303955078125,-3.912952423095703,0.20341292023658752,-0.1632918119430542
1761753320879964400,1.01596435546875,-0.7782955169677734,-0.4183885455131531,-0.5669717788696289
1761753320917625000,1.053625,6.047196388244629,-0.3528776168823242,1.0697206258773804
1761753320955285800,1.09128564453125,14.31225872039795,-2.862715482711792,1.791238784790039
1761753320992946200,1.1289462890625,12.44123363494873,-2.4028232097625732,4.1191840171813965
1761753321030606800,1.16660693359375,10.443283081054688,-0.4774186611175537,1.1088714599609375
1761753321068267300,1.204267333984375,7.051520347595215,0.2873455286026001,-1.0365655422210693
1761753321105928000,1.241927978515625,-2.750490188598633,1.0431594848632812,-0.6883120536804199
1761753321143588400,1.27958837890625,-5.170844554901123,1.5627185106277466,-3.3262054920196533
1761753321181249000,1.3172490234375,-8.616154670715332,1.7280009984970093,-7.021208763122559
1761753321218909700,1.35490966796875,-12.469350814819336,2.0122570991516113,-4.3041839599609375
1761753321256570000,1.392570068359375,-10.633316040039062,1.9017572402954102,-4.074738502502441
1761753321294230500,1.43023046875,-7.82740592956543,1.4871066808700562,-2.9723501205444336
1761753321331891200,1.46789111328125,-8.063857078552246,1.5974096059799194,-0.779068112373352
1761753321369552000,1.5055517578125,-6.035145282745361,1.1685855388641357,0.3361281156539917
1761753321407212300,1.54321240234375,-4.311029434204102,-0.45431816577911377,0.12070178985595703
1761753321444873000,1.580873046875,5.705873489379883,-3.330998659133911,0.5663143992424011
1761753321482533400,1.618533447265625,0.8304386138916016,0.18485873937606812,4.5599799156188965
1761753321520194000,1.656194091796875,29.295257568359375,-3.5964958667755127,3.0573973655700684
1761753321557854700,1.693854736328125,23.152999877929688,-4.8003034591674805,7.019548416137695
1761753321595515100,1.73151513671875,8.758040428161621,2.9429733753204346,-0.16059353947639465
1761753321633175600,1.769175537109375,11.653861999511719,0.04644131660461426,-10.098724365234375
1761753321670836200,1.806836181640625,-8.182491302490234,2.200859546661377,-0.6838358640670776
1761753321708497000,1.844496826171875,-16.20659065246582,0.3136846423149109,1.0996776819229126
1761753321746157300,1.8821572265625,-17.182531356811523,-0.7096307277679443,-1.5878865718841553
1761753321783817700,1.919817626953125,-14.572330474853516,-0.7292363047599792,-0.09879371523857117
1761753321821478400,1.957478515625,-10.030375480651855,-1.1015291213989258,0.40746718645095825
1761753321859139000,1.99513916015625,-8.165292739868164,-0.7174153327941895,-0.16863638162612915
1761753321896799500,2.032799560546875,-8.067489624023438,-0.7731223702430725,-0.636030375957489
1761753321934460000,2.0704599609375,-1.1201591491699219,-1.8289201259613037,1.022369146347046
1761753321972120600,2.10812060546875,6.561020851135254,-2.062727212905884,2.712855339050293
1761753322009781000,2.145781005859375,10.409296989440918,-0.5422055721282959,4.632776737213135
1761753322047441700,2.183441650390625,20.88225746154785,-1.2591438293457031,6.344340801239014
1761753322085102300,2.221102294921875,21.50409698486328,-2.196901798248291,4.230172634124756
1761753322122762800,2.2587626953125,12.95510482788086,-0.14408612251281738,1.5256716012954712
1761753322160423200,2.296423095703125,0.23843002319335938,1.9276483058929443,-5.11974573135376
1761753322198083800,2.334083740234375,4.543564796447754,1.8797886371612549,-5.411337375640869
1761753322235744300,2.371744140625,-15.044888496398926,0.5169093012809753,0.2453581988811493
1761753322273405000,2.409405029296875,-16.14957618713379,-0.4382583498954773,0.5791136026382446
1761753322311065300,2.4470654296875,-12.079080581665039,-1.4058732986450195,0.4706111550331116
1761753322348726000,2.48472607421875,-11.838794708251953,-1.5707252025604248,1.440680742263794
1761753322386386400,2.522386474609375,-9.15529727935791,-1.4025436639785767,1.6105563640594482
1761753322424047000,2.560047119140625,-7.819133758544922,-1.0528507232666016,1.044140100479126
1761753322461707500,2.59770751953125,-6.952615261077881,-0.3988523483276367,1.7111619710922241
1761753322499368200,2.6353681640625,3.417941093444824,-0.6581522226333618,-0.23586615920066833
1761753322537028600,2.673028564453125,10.48947811126709,2.655198335647583,1.9815199375152588
1761753322574689300,2.710689208984375,21.759445190429688,-0.35780030488967896,0.8418680429458618
1761753322612349700,2.748349609375,17.3304443359375,0.20845162868499756,2.7541720867156982
1761753322650010000,2.786010009765625,14.423440933227539,0.9711058139801025,1.2685920000076294
1761753322687670800,2.8236708984375,3.020907402038574,-0.19410407543182373,-3.3853659629821777
1761753322725331200,2.861331298828125,-3.252779483795166,0.004583597183227539,-1.597019076347351
1761753322762991900,2.898991943359375,-5.594163417816162,-0.08265572786331177,-2.418706178665161
1761753322800652300,2.93665234375,-8.334333419799805,-0.19885051250457764,-3.5075249671936035
1761753322838313000,2.97431298828125,-12.8095121383667,0.8986179232597351,-0.662625253200531
1761753322875973400,3.011973388671875,-10.750035285949707,0.30076977610588074,0.5042637586593628
1761753322913634000,3.049634033203125,-8.93364143371582,0.44707179069519043,0.7640594840049744
1761753322951294500,3.08729443359375,-9.364983558654785,0.7917635440826416,0.6759170889854431
1761753322988955100,3.124955078125,-7.546749591827393,0.5573843717575073,0.7556306719779968
1761753323026615600,3.162615478515625,1.9700260162353516,-0.15639138221740723,0.1894855499267578
1761753323064276000,3.20027587890625,8.972566604614258,0.31793832778930664,-0.6652566194534302
1761753323101936600,3.2379365234375,18.813262939453125,-1.6824723482131958,3.5536844730377197
1761753323139597000,3.27559716796875,24.97081756591797,-2.7122883796691895,3.58984112739563
1761753323177257700,3.3132578125,9.264116287231445,1.227054476737976,6.5203447341918945
1761753323214918100,3.350918212890625,7.4233245849609375,-0.2204355001449585,2.448141098022461
1761753323252578600,3.38857861328125,0.6956892013549805,-0.5891987085342407,-6.525508880615234
1761753323290239200,3.4262392578125,-6.644974708557129,0.6437400579452515,-2.8311283588409424
1761753323327899600,3.463899658203125,-11.560504913330078,1.235663652420044,-0.7608900666236877
1761753323365560300,3.501560302734375,-13.040372848510742,1.294323205947876,-0.8556147813796997
1761753323403220700,3.539220703125,-10.24577808380127,0.2635946273803711,0.1852089911699295
1761753323440881200,3.576881103515625,-9.49775218963623,-0.05584096908569336,0.38442498445510864
1761753323478541800,3.614541748046875,-7.886788368225098,0.032087743282318115,-1.1937934160232544
1761753323516202200,3.6522021484375,-8.080455780029297,0.2254355549812317,0.9651700854301453
1761753323553863000,3.68986279296875,-6.0920257568359375,-0.06496894359588623,0.8365286588668823
1761753323591523300,3.7275234375,0.7111845016479492,-0.39331406354904175,3.0803258419036865
1761753323629184000,3.76518408203125,6.28013801574707,1.299356460571289,6.014029026031494
1761753323666844400,3.802844482421875,13.742093086242676,1.9511327743530273,1.5973265171051025
1761753323704504800,3.8405048828125,25.261131286621094,-4.838348388671875,-7.224649906158447
1761753323742165500,3.87816552734375,14.707884788513184,-1.8726439476013184,-2.9160187244415283
1761753323779826000,3.915825927734375,10.942367553710938,0.05241382122039795,-4.780594348907471
1761753323817486600,3.953486572265625,2.2380123138427734,4.369541168212891,-2.499443531036377
1761753323855147000,3.99114697265625,-6.079698085784912,0.7841835618019104,-2.505401849746704
1761753323892807400,4.028807373046875,-13.70901107788086,-0.5075986385345459,-0.7392898797988892
1761753323930468000,4.066468017578125,-15.042261123657227,0.22262930870056152,0.5719321370124817
1761753323968128500,4.10412841796875,-9.234408378601074,-0.3515866994857788,-0.33499109745025635
1761753324005789200,4.1417890625,-11.170560836791992,0.035976290702819824,-1.1568087339401245
1761753324043449600,4.17944970703125,-9.392277717590332,-0.08438634872436523,-0.09251150488853455
1761753324081110000,4.217110107421875,-4.070857524871826,-0.31419843435287476,-0.44646552205085754
1761753324118770400,4.2547705078125,3.785426139831543,-0.18696773052215576,0.7564820051193237
1761753324156431000,4.29243115234375,9.088391304016113,0.881935715675354,2.1877634525299072
1761753324194091500,4.330091552734375,19.66056251525879,-1.05660080909729,3.6462807655334473
1761753324231752200,4.367752197265625,17.667640686035156,-0.7259989380836487,3.7192814350128174
1761753324269412600,4.40541259765625,12.305387496948242,0.8150242567062378,3.5295794010162354
1761753324307073000,4.443072998046875,9.502097129821777,-1.3868893384933472,-7.109775543212891
1761753324344733700,4.480733642578125,-6.185535430908203,0.16265922784805298,-4.7396464347839355
1761753324382394000,4.51839404296875,-12.918961524963379,1.4697595834732056,0.7699118852615356
1761753324420054500,4.556054443359375,-11.813762664794922,0.005162551999092102,-4.259871482849121
1761753324457715200,4.593715087890625,-14.157419204711914,0.8699232935905457,-1.3338282108306885
1761753324495375600,4.631375732421875,-11.360335350036621,0.5423324108123779,0.4329555034637451
1761753324533036300,4.669036376953125,-8.462141036987305,0.2459033727645874,-1.0289100408554077
1761753324570696700,4.70669677734375,-7.503427505493164,0.4810747504234314,1.1302157640457153
1761753324608357000,4.744357177734375,-2.6250972747802734,-0.4739472270011902,-0.08907799422740936
1761753324646017500,4.782017578125,5.2197370529174805,-0.39779502153396606,2.5444867610931396
1761753324683678200,4.81967822265625,15.042288780212402,-0.6800612807273865,1.3624694347381592
1761753324721338600,4.857338623046875,30.320362091064453,-4.446824073791504,2.670819044113159
1761753324758999300,4.894999267578125,15.249755859375,-1.1881487369537354,4.726173400878906
1761753324796659700,4.93265966796875,8.909855842590332,0.372022420167923,0.7745999693870544
1761753324834320100,4.970320068359375,2.164583206176758,-1.9358294010162354,-5.141328811645508
1761753324871980500,5.00798046875,-13.847790718078613,-0.224033921957016,-1.2007468938827515
1761753324909641200,5.04564111328125,-16.20069122314453,-0.026453077793121338,-2.99855637550354
1761753324947301600,5.083301513671875,-14.080228805541992,-0.25580188632011414,-3.9230566024780273
1761753324984962300,5.12096240234375,-13.028971672058105,0.07785764336585999,0.4977036118507385
1761753325022622700,5.158622802734375,-8.334426879882812,-0.19060079753398895,-0.6994563341140747
1761753325060283100,5.196283203125,-7.149008750915527,-0.33376243710517883,0.8598405122756958
1761753325097943600,5.233943603515625,-6.340205669403076,-1.03681218624115,0.6775047779083252
1761753325135604200,5.271604248046875,1.8650579452514648,-2.138522148132324,-0.3331153988838196
1761753325173264600,5.3092646484375,4.666192054748535,-0.28849107027053833,2.810724973678589
1761753325210925000,5.346925048828125,13.683518409729004,-1.241512656211853,3.5520265102386475
1761753325248585700,5.384585693359375,28.838375091552734,-4.279291152954102,0.1763983964920044
1761753325286246100,5.42224609375,16.914567947387695,0.609764039516449,2.503530979156494
1761753325323906600,5.459906494140625,8.061307907104492,1.406578540802002,-0.9304020404815674
1761753325361567200,5.497567138671875,-2.127591133117676,0.6246583461761475,-4.426876544952393
1761753325399227600,5.5352275390625,-10.434566497802734,1.6295554637908936,-0.42807817459106445
1761753325436888000,5.57288818359375,-12.585956573486328,1.3799824714660645,-3.9444801807403564
1761753325474548500,5.610548583984375,-12.951074600219727,1.16110360622406,-4.485360145568848
1761753325512209200,5.648209228515625,-11.530251502990723,0.28026747703552246,-2.681424617767334
1761753325549869600,5.68586962890625,-7.601799011230469,-0.64824378490448,-2.9469709396362305
1761753325587530000,5.723530029296875,-6.713046073913574,-0.7596219182014465,-1.5529043674468994
1761753325625190700,5.761190673828125,-6.924886703491211,-0.9979111552238464,-0.413490891456604
1761753325662851000,5.79885107421875,-1.7828216552734375,-1.2673498392105103,2.148747682571411
1761753325700511500,5.836511474609375,10.491150856018066,0.9795773029327393,4.432100772857666
1761753325738172000,5.874171875,23.959491729736328,-3.3603079319000244,3.7356796264648438
1761753325775832300,5.911832275390625,22.71634292602539,-3.952982187271118,-0.4631776213645935
1761753325813493000,5.949492919921875,11.422135353088379,0.39578747749328613,3.372581958770752
1761753325851153400,5.9871533203125,6.622989654541016,1.0035699605941772,1.9143816232681274
1761753325888813800,6.024813720703125,-1.4092092514038086,2.8546831607818604,1.55479097366333
1761753325926474500,6.062474609375,-10.55237102508545,-0.7577532529830933,-5.834861755371094
1761753325964135000,6.100135009765625,-15.835492134094238,0.7888001203536987,0.2345496416091919
1761753326001795300,6.13779541015625,-14.709074974060059,-0.6605873107910156,-2.769974708557129
1761753326039455700,6.175455810546875,-10.77953815460205,-1.9830060005187988,-4.405226707458496
1761753326077116200,6.2131162109375,-8.251291275024414,-1.5143169164657593,-2.4016876220703125
1761753326114776800,6.25077685546875,-7.673402786254883,-0.9486775398254395,-0.8356270790100098
1761753326152437200,6.288437255859375,-4.354832172393799,-0.6241363883018494,1.0397295951843262
1761753326190097700,6.32609765625,10.416857719421387,-1.4246152639389038,1.3091970682144165
1761753326227758300,6.36375830078125,10.10127067565918,-1.010908842086792,3.4735941886901855
1761753326265418800,6.401418701171875,13.1528959274292,-0.6156097650527954,5.298965930938721
1761753326303079200,6.4390791015625,19.669706344604492,-3.942901611328125,0.0586252324283123
1761753326340739600,6.476739501953125,13.392250061035156,-0.8487575054168701,0.7262448072433472
1761753326378400300,6.514400146484375,2.908670425415039,-0.4672923684120178,-0.1717400848865509
1761753326416060400,6.552060302734375,-2.656991481781006,-0.38556522130966187,-3.2350857257843018
1761753326453721000,6.58972119140625,-8.617515563964844,0.3095244765281677,-1.5004208087921143
1761753326491381500,6.627381591796875,-12.848604202270508,0.2968198359012604,-2.724938154220581
1761753326529042000,6.6650419921875,-12.756444931030273,0.2511258125305176,-3.269577980041504
1761753326566702300,6.702702392578125,-10.388677597045898,0.00929233431816101,-1.060515284538269
1761753326604363000,6.740363037109375,-7.614659309387207,-0.2115226686000824,-0.39614337682724
1761753326642023400,6.7780234375,-6.252033233642578,-0.9329057931900024,0.915093183517456
1761753326679683800,6.815683837890625,-4.997882843017578,-1.0093928575515747,0.8827695846557617
1761753326717344300,6.85334423828125,5.595663070678711,-2.3788909912109375,1.691641926765442
1761753326755005000,6.8910048828125,10.450638771057129,-0.8333654403686523,3.355231523513794
1761753326792665300,6.928665283203125,23.508041381835938,-3.827779531478882,2.66060471534729
1761753326830325800,6.96632568359375,16.79593849182129,-3.8094732761383057,2.1368236541748047
1761753326867986200,7.003986083984375,11.691620826721191,-1.6486444473266602,1.533980131149292
1761753326905646600,7.041646484375,2.005146026611328,-0.7614234685897827,-1.9893386363983154
1761753326943307000,7.07930712890625,-6.031929016113281,-0.2945824861526489,-3.884552478790283
1761753326980967400,7.116967529296875,-8.513100624084473,-0.9276703000068665,-2.6591298580169678
1761753327018628000,7.154628173828125,-13.659991264343262,-0.06974291801452637,-2.779456615447998
1761753327056288500,7.19228857421875,-11.491949081420898,-0.37817180156707764,-1.2450485229492188
1761753327093949000,7.229948974609375,-8.85709285736084,-1.4061946868896484,0.02933812141418457
1761753327131609300,7.267609375,-8.742430686950684,-2.119088888168335,0.5395374894142151
1761753327169269800,7.305269775390625,-8.665406227111816,-2.007146120071411,1.3861117362976074
1761753327206930400,7.342930419921875,-3.7704172134399414,-2.447885513305664,-0.9096487760543823
1761753327244590800,7.3805908203125,5.039616584777832,-1.5160011053085327,-0.947584331035614
1761753327282251300,7.418251220703125,6.559389114379883,1.589355707168579,0.05088813602924347
1761753327319911700,7.45591162109375,17.650428771972656,0.20051375031471252,3.476902484893799
1761753327357572000,7.493572021484375,23.086353302001953,-3.9965975284576416,-4.412891864776611
1761753327395232500,7.531232421875,11.101068496704102,1.2329462766647339,-2.2350120544433594
1761753327432893000,7.568892822265625,0.005404472351074219,1.9220046997070312,2.9971323013305664
1761753327470553300,7.60655322265625,-1.7175989151000977,1.12985360622406,-1.064244031906128
1761753327508214000,7.644214111328125,-7.285564422607422,-0.06274355947971344,-2.115480422973633
1761753327545874400,7.68187451171875,-10.773911476135254,0.24396848678588867,-2.6292295455932617
1761753327583534800,7.719534912109375,-11.36618709564209,0.11717785894870758,-1.868628740310669
1761753327621195300,7.7571953125,-8.696562767028809,-0.552664577960968,-2.660149097442627
1761753327658855700,7.794855712890625,-7.105669975280762,-0.06529489159584045,-1.9382672309875488
1761753327696516400,7.832516357421875,-8.184563636779785,0.3839344382286072,-0.18528354167938232
1761753327734176800,7.8701767578125,-3.9543800354003906,-0.674930214881897,-0.09956181049346924
1761753327771837200,7.907837158203125,0.9000358581542969,-1.0977933406829834,1.6737627983093262
1761753327809497600,7.94549755859375,11.71267318725586,-1.866490125656128,0.5634099841117859
1761753327847158000,7.983157958984375,19.856653213500977,-2.5212035179138184,1.3003886938095093
1761753327884818400,8.020818359375,14.891656875610352,-2.1097991466522217,1.7222719192504883
1761753327922478800,8.058478759765626,6.464241981506348,0.5060571432113647,-1.5769999027252197
1761753327960139300,8.09613916015625,1.205810546875,0.9780743718147278,-4.0801568031311035
1761753327997800000,8.133800048828125,-2.684891700744629,1.267138123512268,-1.8534693717956543
1761753328035460400,8.17146044921875,-5.91033411026001,1.1902064085006714,-3.46596360206604
1761753328073120800,8.209120849609375,-9.792531967163086,0.8170300126075745,-2.5132737159729004
1761753328110781200,8.24678125,-10.306541442871094,2.123384952545166,-1.1170891523361206
1761753328148441600,8.284441650390624,-5.406858444213867,0.7112964987754822,-0.5447160005569458
1761753328186102000,8.32210205078125,-7.013921737670898,0.5059660077095032,-1.4725587368011475
1761753328223762400,8.359762451171875,-9.05126667022705,0.3560183048248291,-0.048392653465270996
1761753328261422800,8.3974228515625,-5.075396537780762,0.27062928676605225,-0.26800814270973206
1761753328299083300,8.435083251953126,10.125345230102539,-1.4123356342315674,-0.7232343554496765
1761753328336743700,8.47274365234375,4.911558151245117,0.2716383934020996,-0.005582153797149658
1761753328374404000,8.510404052734375,19.641765594482422,-2.993391275405884,2.5464963912963867
1761753328412064500,8.548064453125,17.42523956298828,-2.6265430450439453,1.646873950958252
1761753328449725200,8.58572509765625,7.8222455978393555,0.5640050172805786,1.7564867734909058
1761753328487385600,8.623385498046876,0.2310333251953125,1.4499725103378296,0.33814144134521484
1761753328525046000,8.6610458984375,-3.146973133087158,1.0420347452163696,-0.28066277503967285
1761753328562706400,8.69870654296875,-6.128700256347656,1.0709474086761475,-2.258847951889038
1761753328600366800,8.736366943359375,-8.041675567626953,1.1630886793136597,-3.016402244567871
1761753328638027300,8.77402734375,-10.775467872619629,1.3426365852355957,-0.27761101722717285
1761753328675687700,8.811687744140626,-10.538068771362305,1.232665777206421,0.8978588581085205
1761753328713348000,8.84934814453125,-7.418964862823486,1.5103802680969238,1.2082417011260986
1761753328751008500,8.887008544921875,-4.8994622230529785,0.48166000843048096,0.7814075946807861
1761753328788669000,8.9246689453125,-2.280329704284668,0.11269437521696091,-2.1747963428497314
1761753328826329300,8.962329345703125,1.2066011428833008,-1.0533448457717896,-2.1599843502044678
1761753328863989800,8.99998974609375,3.227529525756836,0.07315538823604584,1.6603572368621826
1761753328901650200,9.037650146484374,5.502094268798828,-1.460809350013733,5.0074567794799805
1761753328939310800,9.075310791015625,11.473719596862793,-5.435061931610107,4.093827247619629
1761753328976971300,9.11297119140625,11.224946975708008,-3.267944574356079,-0.024621248245239258
1761753329014631700,9.150631591796875,2.1290340423583984,0.8808043003082275,0.574500322341919
1761753329052292000,9.1882919921875,-0.1796112060546875,0.8666129112243652,0.6400907039642334
1761753329089952500,9.225952392578124,-1.1273317337036133,0.7631540298461914,-0.6140737533569336
