time,seconds_elapsed,z,y,x
1761369738245921300,0.19492138671875,0.3198280334472656,0.17772436141967773,-0.06290078163146973
1761369738264531200,0.21353125,0.1681346893310547,0.24065208435058594,-0.18910282850265503
1761369738283142400,0.232142333984375,-0.013303756713867188,0.2779426574707031,-0.32858747243881226
1761369738301752000,0.250751953125,-0.2494668960571289,0.08246850967407227,-0.4766954779624939
1761369738320363300,0.26936328125,-0.4936857223510742,0.15032100677490234,-0.36992669105529785
1761369738338973200,0.28797314453125,-0.7085676193237305,0.08544397354125977,-0.35895442962646484
1761369738357584400,0.30658447265625,-0.6241035461425781,0.00895833969116211,-0.17471015453338623
1761369738376194000,0.325194091796875,-0.4224576950073242,0.04210805892944336,-0.041933417320251465
1761369738394805200,0.34380517578125,-0.2390003204345703,0.10533666610717773,0.00689852237701416
1761369738413415200,0.362415283203125,-0.17284679412841797,0.2403421401977539,-0.015639662742614746
1761369738432026400,0.3810263671875,0.0028638839721679688,0.0031991004943847656,-0.04962646961212158
1761369738450636000,0.399635986328125,0.10573768615722656,0.11818122863769531,-0.03551054000854492
1761369738469247200,0.418247314453125,0.1399383544921875,0.07245206832885742,-0.18417656421661377
1761369738487857200,0.436857177734375,0.0578460693359375,0.09961175918579102,-0.16599595546722412
1761369738506468400,0.45546826171875,-0.02850055694580078,0.09010553359985352,-0.19572603702545166
1761369738525078000,0.474078125,-0.3689446449279785,0.013746261596679688,-0.16232025623321533
1761369738543689500,0.492689453125,-0.568336009979248,0.06708574295043945,-0.2294366955757141
1761369738562299100,0.511299072265625,-0.5223197937011719,0.0839090347290039,-0.29369843006134033
1761369738580910300,0.529910400390625,-0.2146596908569336,0.16030120849609375,-0.3002256751060486
1761369738599520300,0.548520263671875,-0.08217334747314453,0.1296825408935547,-0.2907596230506897
1761369738618131500,0.56713134765625,-0.02699565887451172,0.15026092529296875,-0.24794113636016846
1761369738636741000,0.5857412109375,-0.04758644104003906,0.06848955154418945,-0.06321239471435547
1761369738655352300,0.604352294921875,-0.07222938537597656,0.06276369094848633,-0.024276018142700195
1761369738673962200,0.622962158203125,0.14668560028076172,0.24506282806396484,-0.05613309144973755
1761369738692573400,0.641573486328125,0.38460636138916016,0.0924224853515625,-0.0807914137840271
1761369738711183000,0.66018310546875,0.6269197463989258,-0.0723428726196289,0.14229261875152588
1761369738729794600,0.678794677734375,0.6229066848754883,0.06088590621948242,0.20409977436065674
1761369738748404200,0.697404296875,0.49445152282714844,0.06245613098144531,0.21715062856674194
1761369738767015400,0.716015380859375,0.2844419479370117,-0.002738475799560547,0.17800092697143555
1761369738785625000,0.734625,0.16796302795410156,-0.06862592697143555,0.3390657901763916
1761369738804236500,0.753236572265625,0.25098609924316406,-0.029417991638183594,0.24402862787246704
1761369738822846200,0.77184619140625,0.059825897216796875,0.05474042892456055,0.10090577602386475
1761369738841457400,0.79045751953125,-0.2883286476135254,-0.04630899429321289,-0.013414382934570312
1761369738860067300,0.8090673828125,-0.37555503845214844,0.074859619140625,-0.1356012225151062
1761369738878678500,0.827678466796875,-0.3583993911743164,0.04781961441040039,-0.12999778985977173
1761369738897288200,0.8462880859375,-0.4193596839904785,-0.0521998405456543,-0.1058661937713623
1761369738915899600,0.864899658203125,-0.34744691848754883,0.07969903945922852,-0.19727087020874023
1761369738934509300,0.88350927734375,-0.23129892349243164,0.06040334701538086,-0.17768460512161255
1761369738953120500,0.90212060546875,-0.16321992874145508,0.06830835342407227,-0.12457656860351562
1761369738971730400,0.92073046875,-0.11760711669921875,0.0839228630065918,-0.10631048679351807
1761369738990341600,0.939341552734375,0.004733085632324219,0.10460281372070312,-0.09111946821212769
1761369739008951300,0.957951416015625,0.08148670196533203,0.08195972442626953,-0.026536166667938232
1761369739027562800,0.976562744140625,0.1615915298461914,0.029727458953857422,0.14533895254135132
1761369739046172400,0.99517236328125,0.26296520233154297,0.053997039794921875,0.1597411036491394
1761369739064783600,1.01378369140625,0.2594032287597656,0.09497690200805664,0.10712647438049316
1761369739083393500,1.0323935546875,0.09216690063476562,0.042962074279785156,0.05822443962097168
1761369739102004700,1.051004638671875,0.03820514678955078,0.06024503707885742,-0.035164833068847656
1761369739120614400,1.069614501953125,-0.027774810791015625,0.04849386215209961,-0.07453203201293945
1761369739139225900,1.088225830078125,-0.14482879638671875,0.014302730560302734,-0.059858083724975586
1761369739157835500,1.10683544921875,-0.16727638244628906,0.03318071365356445,-0.11904323101043701
1761369739176446700,1.12544677734375,-0.09392452239990234,0.027248859405517578,-0.0612984299659729
1761369739195056400,1.144056396484375,0.008497238159179688,-0.002852916717529297,0.14547866582870483
1761369739213667800,1.162667724609375,0.08651542663574219,-0.01053476333618164,0.11358046531677246
1761369739232277500,1.181277587890625,0.10368919372558594,0.007769584655761719,0.11054384708404541
1761369739250888700,1.199888671875,0.2082204818725586,0.0024814605712890625,0.23005783557891846
1761369739269498600,1.21849853515625,0.1786508560180664,0.03268146514892578,0.16221660375595093
1761369739288109800,1.23710986328125,0.14342689514160156,0.05134248733520508,0.13293004035949707
1761369739306719500,1.255719482421875,0.1625223159790039,0.019260406494140625,0.16854560375213623
1761369739325331000,1.2743310546875,0.10815143585205078,0.010561943054199219,0.11663973331451416
1761369739343940600,1.292940673828125,0.061860084533691406,0.02306222915649414,0.06170231103897095
1761369739362551800,1.3115517578125,-0.022403717041015625,0.03211212158203125,-0.012734055519104004
1761369739381161700,1.33016162109375,-0.10292625427246094,0.022329330444335938,-0.05515080690383911
1761369739399773000,1.34877294921875,-0.11069869995117188,0.05437755584716797,-0.08493292331695557
1761369739418382600,1.367382568359375,-0.035996437072753906,0.017964839935302734,-0.05199623107910156
1761369739436994000,1.385994140625,0.010402679443359375,-0.011761665344238281,0.02289414405822754
1761369739455603700,1.404603759765625,0.022920608520507812,0.0006480216979980469,0.03382235765457153
1761369739474215000,1.42321484375,0.1009521484375,0.04813051223754883,-0.02115023136138916
1761369739492824800,1.441824951171875,0.14687728881835938,0.023986339569091797,0.034765541553497314
1761369739511436000,1.46043603515625,0.07629108428955078,-0.01519155502319336,0.057282090187072754
1761369739530045700,1.479045654296875,-0.04093170166015625,0.005389213562011719,0.005946815013885498
1761369739548657200,1.4976572265625,-0.10151195526123047,0.016438961029052734,-0.004960298538208008
1761369739567266800,1.516266845703125,-0.15004825592041016,0.00854349136352539,0.013819098472595215
1761369739585878000,1.5348779296875,-0.10036659240722656,0.02370452880859375,-0.059741318225860596
1761369739604488000,1.553488037109375,-0.09169149398803711,-0.0012145042419433594,-0.06175422668457031
1761369739623099100,1.57209912109375,0.0017118453979492188,0.02648019790649414,-0.05948317050933838
1761369739641708800,1.590708740234375,0.05403709411621094,0.016106128692626953,-0.03422516584396362
1761369739660320000,1.609320068359375,0.07530879974365234,-0.0012826919555664062,0.006517171859741211
1761369739678930000,1.627929931640625,0.11356830596923828,-0.003604412078857422,0.06676888465881348
1761369739697541000,1.646541015625,0.1501922607421875,0.009790420532226562,0.020453035831451416
1761369739716150800,1.66515087890625,0.10619354248046875,0.012228012084960938,0.03672027587890625
1761369739734762200,1.68376220703125,0.029272079467773438,-0.009034156799316406,0.020823180675506592
1761369739753372000,1.702371826171875,0.013254165649414062,-0.00983285903930664,-0.023918330669403076
1761369739771983000,1.720983154296875,-0.09675025939941406,-0.029261112213134766,-0.030898869037628174
1761369739790593000,1.739593017578125,-0.1325550079345703,-0.005883216857910156,-0.07556396722793579
1761369739809204200,1.758204345703125,-0.1789846420288086,0.050348758697509766,-0.08263307809829712
1761369739827814000,1.77681396484375,-0.22211217880249023,-0.06120109558105469,-0.08775198459625244
1761369739846425300,1.79542529296875,-0.2538580894470215,0.0029048919677734375,-0.1247449517250061
1761369739865035000,1.814034912109375,-0.22992897033691406,0.021074771881103516,-0.16405075788497925
1761369739883646200,1.832646240234375,-0.19057846069335938,0.02624654769897461,-0.0937376618385315
1761369739902256000,1.851256103515625,-0.07002544403076172,0.06413459777832031,-0.02398371696472168
1761369739920867300,1.869867431640625,0.11134719848632812,0.05346250534057617,0.0673108696937561
1761369739939477000,1.88847705078125,0.2650728225708008,0.04543733596801758,0.22295314073562622
1761369739958088400,1.90708837890625,0.32158660888671875,0.009005069732666016,0.31237804889678955
1761369739976698000,1.925697998046875,0.2987489700317383,-0.014615535736083984,0.3397183418273926
1761369739995309300,1.944309326171875,0.3112039566040039,-0.01190805435180664,0.2635915279388428
1761369740013919200,1.962919189453125,0.30640411376953125,0.011394500732421875,0.14963269233703613
1761369740032530400,1.981530517578125,0.2403707504272461,0.039969444274902344,0.025272607803344727
1761369740051140000,2.00014013671875,0.07524299621582031,-0.011412620544433594,-0.031634747982025146
1761369740069751600,2.01875146484375,-0.11086463928222656,-0.005471706390380859,-0.1026679277420044
1761369740088361200,2.037361328125,-0.1647958755493164,-0.009765148162841797,-0.12128394842147827
1761369740106972400,2.055972412109375,-0.1863555908203125,-0.015834808349609375,-0.10935103893280029
1761369740125582300,2.074582275390625,-0.2160501480102539,0.0022644996643066406,-0.13932067155838013
1761369740144193500,2.093193603515625,-0.19577550888061523,0.022850513458251953,-0.16799455881118774
1761369740162803200,2.11180322265625,-0.1714611053466797,0.023319244384765625,-0.15303784608840942
1761369740181414700,2.13041455078125,-0.10073661804199219,0.04541587829589844,-0.13251018524169922
1761369740200024300,2.1490244140625,-0.0685873031616211,0.008709430694580078,-0.048087894916534424
1761369740218635500,2.167635498046875,0.1098318099975586,0.03401613235473633,0.04326796531677246
1761369740237245400,2.186245361328125,0.35755252838134766,0.027191638946533203,0.13948345184326172
1761369740255856600,2.204856689453125,0.3218212127685547,0.010524272918701172,0.22810912132263184
1761369740274466300,2.22346630859375,0.2023630142211914,-0.046000003814697266,0.25095653533935547
1761369740293077500,2.242077392578125,0.08617687225341797,-0.056676387786865234,0.17867052555084229
1761369740311687400,2.2606875,-0.05931282043457031,-0.04029417037963867,0.11255121231079102
1761369740330298600,2.279298583984375,-0.12779903411865234,0.0004673004150390625,0.04590773582458496
1761369740348908300,2.297908203125,-0.12629413604736328,-0.006000995635986328,0.03733956813812256
1761369740367519700,2.316519775390625,-0.13817977905273438,0.0017991065979003906,0.0657033920288086
1761369740386129400,2.33512939453125,-0.05902385711669922,0.00968790054321289,0.047800660133361816
1761369740404740600,2.35374072265625,0.03931903839111328,0.015334129333496094,0.059018492698669434
1761369740423350500,2.3723505859375,0.051537513732910156,0.010458946228027344,0.045400381088256836
1761369740441961700,2.390961669921875,0.1186227798461914,0.00240325927734375,0.05889439582824707
1761369740460571400,2.4095712890625,0.09918880462646484,0.012904167175292969,0.020824909210205078
1761369740479182600,2.4281826171875,0.027596473693847656,-0.0037517547607421875,-0.017711758613586426
1761369740497792500,2.44679248046875,0.005011558532714844,-0.031031131744384766,-0.035923004150390625
1761369740516403700,2.46540380859375,-0.07346153259277344,-0.0139617919921875,-0.05088627338409424
1761369740535013400,2.484013427734375,-0.146484375,-0.020435333251953125,-0.05437427759170532
1761369740553624800,2.502624755859375,-0.09042549133300781,-0.011539459228515625,-0.05235469341278076
1761369740572234500,2.521234375,-0.045088768005371094,0.04110002517700195,-0.050276756286621094
1761369740590846000,2.539845947265625,-0.004119873046875,0.031005382537841797,-0.006218314170837402
1761369740609455600,2.55845556640625,0.0805206298828125,0.006063938140869141,0.09158718585968018
1761369740628066800,2.57706689453125,0.08921051025390625,-0.01396799087524414,0.15710186958312988
1761369740646676700,2.5956767578125,0.05006122589111328,-0.0028467178344726562,0.0993279218673706
1761369740665288000,2.614287841796875,-0.024529457092285156,0.030042648315429688,0.004294753074645996
1761369740683897600,2.632897705078125,-0.14853477478027344,0.029862403869628906,-0.03158533573150635
1761369740702508800,2.6515087890625,-0.1575794219970703,0.016806602478027344,-0.02875387668609619
1761369740721118700,2.67011865234375,-0.10033226013183594,-0.016097068786621094,-0.04065239429473877
1761369740739730000,2.68872998046875,0.017093658447265625,-0.004108905792236328,-0.026570439338684082
1761369740758339600,2.707339599609375,0.060288429260253906,-0.01032400131225586,0.021135807037353516
1761369740776951000,2.725950927734375,0.13120651245117188,0.0035071372985839844,0.08892369270324707
1761369740795560700,2.744560791015625,0.22529125213623047,0.03155183792114258,0.08321487903594971
1761369740814172000,2.763171875,0.24233722686767578,0.032695770263671875,0.09800934791564941
1761369740832781800,2.78178173828125,0.15450477600097656,0.03623771667480469,0.05181276798248291
1761369740851393000,2.80039306640625,-0.01584148406982422,0.015095710754394531,0.026592135429382324
1761369740870002700,2.819002685546875,-0.12042808532714844,0.0070133209228515625,-0.02777886390686035
1761369740888614000,2.83761376953125,-0.16939353942871094,0.021518707275390625,-0.06105828285217285
1761369740907223800,2.856223876953125,-0.21181201934814453,0.01971912384033203,-0.09236377477645874
1761369740925835000,2.8748349609375,-0.1966238021850586,-0.008841514587402344,-0.1059274673461914
1761369740944444700,2.893444580078125,-0.13277721405029297,-0.02357196807861328,-0.07980841398239136
1761369740963056000,2.91205615234375,-0.055568695068359375,0.02007007598876953,-0.04346346855163574
1761369740981665800,2.930665771484375,0.05659294128417969,-0.007913589477539062,-0.0325390100479126
1761369741000277000,2.949277099609375,0.10735702514648438,0.00874471664428711,0.04906904697418213
1761369741018887000,2.967886962890625,0.19328022003173828,0.01520681381225586,0.11030137538909912
1761369741037498000,2.986498046875,0.22984886169433594,0.015273571014404297,0.11927640438079834
1761369741056107800,3.005107666015625,0.16953468322753906,-0.02128314971923828,0.10060286521911621
1761369741074719200,3.02371923828125,0.06401634216308594,-0.01685190200805664,0.07847273349761963
1761369741093329000,3.042328857421875,0.025933265686035156,-0.03525829315185547,0.08920407295227051
1761369741111940000,3.060940185546875,-0.029473304748535156,-0.04451608657836914,0.06981587409973145
1761369741130549800,3.0795498046875,-0.16831064224243164,-0.009758472442626953,-0.030587315559387207
1761369741149161200,3.0981611328125,-0.20670604705810547,0.030660629272460938,-0.15443360805511475
1761369741167771000,3.11677099609375,-0.20750761032104492,0.004089832305908203,-0.11494296789169312
1761369741186382000,3.135382080078125,-0.1731414794921875,-0.020284652709960938,-0.035021185874938965
1761369741204992000,3.153991943359375,-0.11372566223144531,0.030413150787353516,-0.05778658390045166
1761369741223603200,3.172603271484375,-0.10419654846191406,0.06537914276123047,-0.0887526273727417
1761369741242212900,3.191212890625,-0.018555641174316406,0.023412227630615234,0.0012329816818237305
1761369741260824000,3.209823974609375,0.09045600891113281,-0.025187015533447266,0.10749483108520508
1761369741279434000,3.22843408203125,0.1319751739501953,-0.03539609909057617,0.14403152465820312
1761369741298045200,3.247045166015625,0.19073867797851562,-0.0043964385986328125,0.08584856986999512
1761369741316654800,3.26565478515625,0.15385913848876953,0.017335891723632812,0.047249436378479004
1761369741335266300,3.284266357421875,0.01633930206298828,-0.027144432067871094,-0.0031549930572509766
1761369741353876000,3.3028759765625,-0.10868263244628906,-0.014254570007324219,-0.04796719551086426
1761369741372487200,3.321487060546875,-0.15431928634643555,0.012722015380859375,-0.04039144515991211
1761369741391097000,3.34009716796875,-0.19626712799072266,-0.011718273162841797,-0.029200077056884766
1761369741409708300,3.358708251953125,-0.14275360107421875,-0.018415451049804688,-0.02532517910003662
1761369741428318000,3.37731787109375,-0.08089447021484375,0.019262313842773438,-0.026966214179992676
1761369741446929200,3.39592919921875,-0.04617786407470703,0.027646541595458984,-0.03185272216796875
1761369741465539000,3.4145390625,0.019906044006347656,0.013620853424072266,0.03566741943359375
1761369741484150300,3.433150390625,0.11725997924804688,0.02642202377319336,0.09077727794647217
1761369741502760000,3.451760009765625,0.14107418060302734,0.016742706298828125,0.1295163631439209
1761369741521371400,3.470371337890625,0.15235137939453125,-0.007731437683105469,0.12327253818511963
1761369741539981000,3.48898095703125,0.1819925308227539,0.018375873565673828,0.08651530742645264
1761369741558592300,3.50759228515625,0.15225982666015625,0.0019812583923339844,0.053249359130859375
1761369741577202200,3.5262021484375,0.06668949127197266,0.027311325073242188,-0.03213000297546387
1761369741595813400,3.5448134765625,-0.03518962860107422,0.018673419952392578,-0.07368528842926025
1761369741614423000,3.563423095703125,-0.14156055450439453,0.0031614303588867188,-0.09534931182861328
1761369741633034500,3.582034423828125,-0.13407135009765625,0.018639087677001953,-0.11972284317016602
1761369741651644200,3.60064404296875,-0.12341594696044922,0.007454395294189453,-0.03606367111206055
1761369741670255400,3.61925537109375,-0.048607826232910156,0.005092144012451172,-0.013633131980895996
1761369741688865300,3.637865234375,-0.0137786865234375,0.02359628677368164,-0.0017268657684326172
1761369741707476500,3.6564765625,-0.017238616943359375,-0.016654491424560547,0.04910087585449219
1761369741726086100,3.675086181640625,0.03770637512207031,-0.027401447296142578,0.07957720756530762
1761369741744697300,3.693697265625,0.10105323791503906,0.005050182342529297,0.1045304536819458
1761369741763307300,3.712307373046875,0.10516071319580078,0.03196907043457031,0.09182894229888916
1761369741781918500,3.73091845703125,0.061051368713378906,-0.048653602600097656,0.12676465511322021
1761369741800528100,3.749528076171875,-0.023278236389160156,-0.04279899597167969,0.08901786804199219
1761369741819139600,3.7681396484375,-0.07785797119140625,-0.014424800872802734,0.027726173400878906
1761369741837749200,3.786749267578125,-0.047756195068359375,0.0026574134826660156,-0.006005764007568359
1761369741856360400,3.8053603515625,-0.014471054077148438,0.003600597381591797,-0.013315677642822266
1761369741874970400,3.823970458984375,0.03176403045654297,0.004713535308837891,-0.02629673480987549
1761369741893581600,3.84258154296875,-0.019300460815429688,0.029578208923339844,-0.06964969635009766
1761369741912191200,3.861191162109375,-0.07595634460449219,-0.006580352783203125,-0.028018474578857422
1761369741930802400,3.879802490234375,-0.05364704132080078,-0.01328420639038086,0.0077440738677978516
1761369741949412400,3.898412353515625,0.06139659881591797,0.01648092269897461,0.019101738929748535
1761369741968023600,3.9170234375,0.0966024398803711,-0.008139610290527344,-0.008312225341796875
1761369741986633200,3.93563330078125,0.06958198547363281,-0.009952545166015625,-0.03819096088409424
1761369742005244400,3.954244384765625,0.06953239440917969,-0.012059688568115234,-0.06677114963531494
1761369742023854300,3.972854248046875,0.03505134582519531,0.006344795227050781,-0.05780601501464844
1761369742042465500,3.991465576171875,-0.04106903076171875,-0.013756275177001953,-0.006882429122924805
1761369742061075200,4.0100751953125,0.02298736572265625,0.010615825653076172,0.01513969898223877
1761369742079686700,4.028686767578125,0.04793548583984375,-0.03766775131225586,0.0642857551574707
1761369742098296300,4.04729638671875,0.023787498474121094,-0.03414773941040039,0.09251952171325684
1761369742116907500,4.065907470703125,-0.0042724609375,0.012432098388671875,0.008227109909057617
1761369742135517400,4.084517333984375,-0.01233673095703125,-0.017230510711669922,-0.023430824279785156
1761369742154128600,4.103128662109375,-0.04858970642089844,-0.018823623657226562,0.000531315803527832
1761369742172738300,4.12173828125,-0.04319286346435547,-0.023389816284179688,-0.00862431526184082
1761369742191349800,4.140349853515625,-0.05511283874511719,0.013468742370605469,-0.02653217315673828
1761369742209959400,4.15895947265625,-0.018372535705566406,0.01751708984375,-0.03787672519683838
1761369742228570600,4.177570556640625,0.05280113220214844,0.006493568420410156,0.001155853271484375
1761369742247180300,4.19618017578125,0.07853984832763672,-0.03403043746948242,0.06072354316711426
1761369742265791700,4.214791748046875,0.017617225646972656,-0.039467811584472656,0.05470538139343262
1761369742284401400,4.2334013671875,-0.005869865417480469,-0.007459163665771484,0.009226322174072266
1761369742303012600,4.2520126953125,0.06988048553466797,0.004624843597412109,0.011335015296936035
1761369742321622500,4.27062255859375,0.06442546844482422,0.003845691680908203,0.0526653528213501
1761369742340233700,4.289233642578125,-0.0038623809814453125,-0.008699893951416016,0.06761670112609863
1761369742358843400,4.307843505859375,-0.07021427154541016,-0.017938613891601562,0.06551158428192139
1761369742377454800,4.326454833984375,-0.02455902099609375,0.015175342559814453,0.03688812255859375
1761369742396064500,4.345064453125,0.057773590087890625,0.013399600982666016,0.08487927913665771
1761369742414675700,4.36367578125,-0.0007181167602539062,-0.019085407257080078,0.04442119598388672
1761369742433285400,4.382285400390625,-0.08359622955322266,-0.007554054260253906,0.012602925300598145
1761369742451896800,4.400896728515625,-0.10380935668945312,0.03288412094116211,-0.041852355003356934
1761369742470506500,4.419506591796875,-0.11063098907470703,0.0017232894897460938,-0.03830063343048096
1761369742489117700,4.43811767578125,-0.1661539077758789,0.01037454605102539,-0.03413820266723633
1761369742507727600,4.4567275390625,-0.09075355529785156,0.009537220001220703,-0.027478933334350586
1761369742526338800,4.4753388671875,-0.007526397705078125,0.008181571960449219,-0.0012745857238769531
1761369742544948500,4.493948486328125,0.09204578399658203,-0.014345169067382812,0.04094207286834717
1761369742563559700,4.5125595703125,0.11002826690673828,-0.02138376235961914,0.0827721357345581
1761369742582169600,4.531169677734375,0.09425067901611328,-0.0002541542053222656,0.029815673828125
1761369742600780800,4.54978076171875,0.03107929229736328,0.011423110961914062,0.03951406478881836
1761369742619390500,4.568390380859375,0.033555030822753906,0.01203298568725586,0.024855732917785645
1761369742638002000,4.587001953125,-0.030941009521484375,0.01595020294189453,0.03951764106750488
1761369742656611600,4.605611572265625,-0.06540203094482422,-0.010989665985107422,0.05049324035644531
1761369742675222800,4.624222900390625,-0.0927886962890625,0.0020813941955566406,-0.0024770498275756836
1761369742693832700,4.642832763671875,-0.11208438873291016,0.019765377044677734,-0.07768535614013672
1761369742712444000,4.66144384765625,-0.049736976623535156,0.03663063049316406,-0.09003114700317383
1761369742731053600,4.680053466796875,-0.041495323181152344,0.030295372009277344,-0.009436488151550293
1761369742749664800,4.698664794921875,0.027599334716796875,0.016499996185302734,0.010671734809875488
1761369742768274700,4.717274658203125,0.04325389862060547,0.02841472625732422,0.0025826692581176758
1761369742786886000,4.735885986328125,0.08270072937011719,0.03860759735107422,-0.0012398958206176758
1761369742805495600,4.75449560546875,0.12013626098632812,0.008975505828857422,0.057825565338134766
1761369742824107000,4.77310693359375,0.07120609283447266,-0.014716148376464844,0.07383489608764648
1761369742842716700,4.791716552734375,0.015082359313964844,-0.005661964416503906,0.01967763900756836
1761369742861328000,4.810327880859375,-0.04182910919189453,0.017604827880859375,-0.03628981113433838
1761369742879937500,4.8289375,-0.09080219268798828,0.01665782928466797,-0.07200837135314941
1761369742898549000,4.847549072265625,-0.1116495132446289,0.0043468475341796875,-0.05781078338623047
1761369742917158700,4.86615869140625,-0.07659053802490234,-0.003688812255859375,-0.01194465160369873
1761369742935769900,4.884769775390625,-0.0035905838012695312,-0.02086782455444336,0.05947375297546387
1761369742954379800,4.9033798828125,0.05630207061767578,-0.022457122802734375,0.10011780261993408
1761369742972991000,4.921990966796875,0.0823822021484375,-0.02905416488647461,0.14715051651000977
1761369742991600600,4.9406005859375,-0.026871681213378906,-0.006308078765869141,0.10130715370178223
1761369743010212000,4.959212158203125,0.00044536590576171875,0.010721683502197266,0.00859534740447998
1761369743028821800,4.97782177734375,0.010354995727539062,0.013463973999023438,-0.01121675968170166
1761369743047433000,4.996432861328125,0.0033140182495117188,-0.0045490264892578125,0.017731189727783203
1761369743066043000,5.01504296875,-0.01317596435546875,0.013842582702636719,-0.022573471069335938
1761369743084654000,5.033654052734375,-0.06225109100341797,0.0017251968383789062,-0.03144216537475586
1761369743103263700,5.052263671875,-0.01833343505859375,-0.019045352935791016,-0.0004341602325439453
1761369743121875000,5.070875,0.026383399963378906,0.004832267761230469,-0.012684464454650879
1761369743140484900,5.08948486328125,0.03281879425048828,0.010648250579833984,0.004027843475341797
1761369743159096000,5.108095947265625,0.004082679748535156,0.02052164077758789,-0.018809199333190918
1761369743177705700,5.126705810546875,-0.028036117553710938,0.006717205047607422,-0.05070829391479492
1761369743196317200,5.145317138671875,-0.03134346008300781,0.017586231231689453,-0.05786561965942383
1761369743214926800,5.1639267578125,-0.030630111694335938,-0.008060455322265625,-0.042375802993774414
1761369743233538000,5.1825380859375,0.011788368225097656,-0.01590108871459961,0.021269559860229492
1761369743252148000,5.20114794921875,0.07921791076660156,-0.0034394264221191406,0.05597996711730957
1761369743270759200,5.21975927734375,0.044891357421875,0.0025081634521484375,0.03028881549835205
1761369743289368800,5.238368896484375,0.005225181579589844,-0.008173942565917969,0.021384477615356445
1761369743307980000,5.25697998046875,0.022939682006835938,0.0024013519287109375,0.01239156723022461
1761369743326590000,5.27558984375,0.0007371902465820312,-0.015850543975830078,0.0368807315826416
1761369743345201200,5.294201171875,-0.0067691802978515625,-0.01862049102783203,-0.032293081283569336
1761369743363810800,5.312810791015625,-0.024229049682617188,0.0004506111145019531,0.009992361068725586
1761369743382422000,5.331422119140625,-0.025463104248046875,0.008046627044677734,0.026091575622558594
1761369743401032000,5.350031982421875,-0.03371715545654297,0.008251190185546875,0.018584370613098145
1761369743419643100,5.36864306640625,-0.046217918395996094,-0.03162097930908203,0.050159454345703125
1761369743438252800,5.387252685546875,-0.04509449005126953,-0.01407003402709961,0.05875289440155029
1761369743456864300,5.4058642578125,0.019433975219726562,0.019493579864501953,-0.016253232955932617
1761369743475474000,5.424473876953125,0.05121421813964844,0.004429340362548828,-0.003195643424987793
1761369743494085000,5.443085205078125,0.014308929443359375,-0.005078315734863281,-0.03815770149230957
1761369743512695000,5.461695068359375,-0.028311729431152344,-0.00008344650268554688,-0.02809739112854004
1761369743531306200,5.48030615234375,0.06356334686279297,0.011496543884277344,-0.018125295639038086
1761369743549916000,5.498916015625,0.07612323760986328,0.018595218658447266,0.0059822797775268555
1761369743568527400,5.51752734375,0.023324012756347656,-0.012224197387695312,-0.018120646476745605
1761369743587137000,5.536136962890625,-0.025156021118164062,-0.013586997985839844,-0.027936697006225586
1761369743605748200,5.554748291015625,-0.05416393280029297,-0.02586507797241211,-0.037926435470581055
1761369743624358100,5.573358154296875,-0.06213092803955078,-0.007884025573730469,-0.056699395179748535
1761369743642969300,5.59196923828125,0.015314102172851562,-0.017311573028564453,-0.0022200345993041992
1761369743661579000,5.6105791015625,0.0251312255859375,0.0038552284240722656,-0.018305301666259766
1761369743680190200,5.629190185546875,0.053839683532714844,-0.0276031494140625,0.03732120990753174
1761369743698800000,5.647800048828125,0.02850627899169922,-0.02860546112060547,0.04436206817626953
1761369743717411300,5.666411376953125,0.0017881393432617188,-0.020648956298828125,0.02900862693786621
1761369743736021000,5.68502099609375,-0.03383922576904297,0.0018601417541503906,0.0025734901428222656
1761369743754632200,5.703632080078125,-0.027190208435058594,0.004115581512451172,-0.014982342720031738
1761369743773242000,5.7222421875,0.1057882308959961,-0.025913238525390625,-0.03204810619354248
1761369743791853300,5.740853271484375,0.14698028564453125,-0.05316162109375,0.05242466926574707
1761369743810463000,5.759462890625,0.07135200500488281,-0.04574441909790039,0.09090602397918701
1761369743829074400,5.778074462890625,-0.0034332275390625,-0.016376972198486328,0.03219473361968994
1761369743847684000,5.79668408203125,-0.02701282501220703,-0.07365226745605469,0.11653447151184082
1761369743866295300,5.81529541015625,-0.029221534729003906,-0.04006481170654297,0.08435416221618652
1761369743884905200,5.8339052734375,-0.022027015686035156,-0.010285377502441406,0.06518793106079102
1761369743903516400,5.852516357421875,-0.0012874603271484375,-0.037158966064453125,0.162195086479187
1761369743922126000,5.8711259765625,-0.02580547332763672,-0.023647785186767578,0.10091686248779297
1761369743940737300,5.8897373046875,-0.033145904541015625,-0.003983497619628906,0.07850706577301025
1761369743959347200,5.90834716796875,-0.031151771545410156,-0.026960372924804688,0.09841585159301758
1761369743977958400,5.92695849609375,-0.008331298828125,-0.025845050811767578,0.05754351615905762
1761369743996568000,5.945568115234375,-0.016748428344726562,0.006127834320068359,0.01331186294555664
1761369744015179500,5.964179443359375,0.030954360961914062,0.0069732666015625,-0.0103379487991333
1761369744033789200,5.9827890625,0.08268165588378906,-0.012000560760498047,0.04523336887359619
1761369744052400400,6.001400390625,0.08478450775146484,-0.015580177307128906,0.05655193328857422
1761369744071010300,6.02001025390625,0.031139373779296875,-0.012665271759033203,0.02998805046081543
1761369744089621500,6.03862158203125,-0.036902427673339844,0.014011859893798828,-0.01861274242401123
1761369744108231200,6.057231201171875,-0.1249837875366211,-0.0351567268371582,0.030262112617492676
1761369744126842400,6.07584228515625,-0.08083343505859375,0.008028030395507812,0.0005563497543334961
1761369744145452300,6.094452392578125,0.02934741973876953,0.040345191955566406,0.018833160400390625
1761369744164063500,6.1130634765625,0.07593441009521484,0.049651145935058594,0.04171454906463623
1761369744182673200,6.131673095703125,0.035836219787597656,0.026661396026611328,0.049445152282714844
1761369744201284400,6.150284423828125,-0.02797985076904297,-0.013002872467041016,0.07247602939605713
1761369744219894300,6.168894287109375,-0.09028148651123047,-0.017890453338623047,0.006708860397338867
1761369744238505500,6.18750537109375,-0.04176902770996094,0.003918647766113281,-0.00915384292602539
1761369744257115100,6.206115234375,0.02115345001220703,0.03935861587524414,-0.03458881378173828
1761369744275726600,6.2247265625,0.025556564331054688,0.022778987884521484,-0.022523880004882812
1761369744294336300,6.243336181640625,-0.012173652648925781,-0.0000019073486328125,-0.029602646827697754
1761369744312947500,6.261947509765625,-0.03246879577636719,-0.01427316665649414,-0.025437116622924805
1761369744331557400,6.280557373046875,0.0486297607421875,0.02512502670288086,-0.015877604484558105
1761369744350168600,6.29916845703125,0.05794525146484375,0.010614395141601562,0.008473753929138184
1761369744368778200,6.3177783203125,0.039772987365722656,-0.007317543029785156,0.02621757984161377
1761369744387389700,6.3363896484375,-0.014713287353515625,-0.029944896697998047,0.038759589195251465
1761369744405999400,6.354999267578125,-0.03738880157470703,-0.004912376403808594,-0.014441490173339844
1761369744424610600,6.373610595703125,-0.10731649398803711,0.006928443908691406,-0.061568379402160645
1761369744443220500,6.392220458984375,-0.16047954559326172,0.012721061706542969,-0.07792723178863525
1761369744461831700,6.410831787109375,-0.021327972412109375,0.01049041748046875,-0.015868782997131348
1761369744480441300,6.42944140625,0.13521385192871094,-0.012708187103271484,0.07619261741638184
1761369744499052500,6.448052490234375,0.1561117172241211,-0.00951242446899414,0.0963519811630249
1761369744517662500,6.466662353515625,0.03129291534423828,-0.0019278526306152344,0.03489387035369873
1761369744536273700,6.485273681640625,-0.019418716430664062,0.015079021453857422,-0.029952168464660645
1761369744554883300,6.50388330078125,-0.06007957458496094,-0.006705284118652344,-0.017104029655456543
1761369744573494500,6.52249462890625,-0.08174467086791992,-0.011809349060058594,-0.026455044746398926
1761369744592104400,6.5411044921875,-0.07609891891479492,0.008557319641113281,-0.02201700210571289
1761369744610715600,6.559715576171875,-0.13071680068969727,0.01837158203125,0.01303398609161377
1761369744629325300,6.5783251953125,-0.10039520263671875,0.013613700866699219,0.02256333827972412
1761369744647936800,6.596936767578125,0.033614158630371094,0.02514028549194336,0.03850853443145752
1761369744666546400,6.61554638671875,0.06845664978027344,0.006567955017089844,0.042003750801086426
1761369744685157600,6.63415771484375,-0.011568069458007812,-0.014708518981933594,0.02362346649169922
1761369744703767600,6.652767578125,-0.051459312438964844,-0.013921737670898438,0.008510947227478027
1761369744722378800,6.671378662109375,-0.00388336181640625,-0.0011696815490722656,-0.015171170234680176
1761369744740988400,6.689988525390625,-0.014253616333007812,0.011833667755126953,-0.03191208839416504
1761369744759599600,6.708599609375,0.0011911392211914062,0.015422821044921875,0.001325845718383789
1761369744778209500,6.72720947265625,0.04899024963378906,0.020822525024414062,-0.0037943124771118164
1761369744796820700,6.74582080078125,0.028520584106445312,-0.0037097930908203125,0.03577589988708496
1761369744815430400,6.764430419921875,-0.05978107452392578,-0.021419048309326172,0.03699040412902832
1761369744834041600,6.78304150390625,0.022752761840820312,-0.019162654876708984,0.06386387348175049
1761369744852651500,6.801651611328125,0.08864307403564453,0.006053447723388672,0.04219543933868408
1761369744871262700,6.8202626953125,0.04774284362792969,0.01567697525024414,0.028572797775268555
1761369744889872400,6.838872314453125,-0.00040531158447265625,-0.012665748596191406,0.037758469581604004
1761369744908483800,6.85748388671875,0.013775825500488281,-0.007221221923828125,0.015012621879577637
1761369744927093500,6.876093505859375,0.02034473419189453,0.022987842559814453,0.022457480430603027
1761369744945704700,6.89470458984375,-0.05438423156738281,-0.0062122344970703125,0.027583599090576172
1761369744964314600,6.913314697265625,-0.024344444274902344,-0.0013499259948730469,0.044968485832214355
1761369744982925800,6.93192578125,-0.02628040313720703,-0.008144378662109375,0.02111184597015381
1761369745001535500,6.950535400390625,-0.011438369750976562,0.006000995635986328,-0.0005590915679931641
1761369745020147000,6.96914697265625,0.033247947692871094,0.012033462524414062,-0.005086421966552734
1761369745038756600,6.987756591796875,-0.0024938583374023438,-0.0035691261291503906,0.017713069915771484
1761369745057367800,7.006367919921875,-0.05610370635986328,-0.019498825073242188,0.0014412403106689453
1761369745075977500,7.0249775390625,0.015292167663574219,0.02635812759399414,-0.012465834617614746
1761369745094589000,7.0435888671875,0.09650325775146484,0.023141860961914062,0.05286574363708496
1761369745113198600,7.062198486328125,0.08500862121582031,0.008865833282470703,0.06062602996826172
1761369745131809800,7.080809814453125,0.0426788330078125,-0.025403499603271484,0.07205736637115479
1761369745150419500,7.09941943359375,0.018754959106445312,0.0030164718627929688,0.012800335884094238
1761369745169031000,7.118031005859375,-0.06027984619140625,0.014508724212646484,-0.05326807498931885
1761369745187640600,7.136640625,-0.003968238830566406,-0.008907794952392578,-0.022630691528320312
1761369745206251800,7.155251708984375,-0.008213043212890625,-0.00548553466796875,0.001688241958618164
1761369745224861700,7.17386181640625,-0.07362508773803711,0.007912635803222656,-0.02320384979248047
1761369745243473000,7.192472900390625,-0.13152742385864258,0.015966415405273438,-0.04545938968658447
1761369745262082600,7.21108251953125,-0.08323478698730469,0.013017654418945312,-0.030016422271728516
1761369745280694000,7.229694091796875,-0.02541065216064453,-0.008298873901367188,-0.012317538261413574
1761369745299303700,7.2483037109375,-0.08225345611572266,0.002540111541748047,-0.019399523735046387
1761369745317915000,7.266914794921875,-0.04262065887451172,-0.012606143951416016,-0.004812002182006836
1761369745336524800,7.28552490234375,-0.0021305084228515625,-0.0008993148803710938,0.01315760612487793
1761369745355136000,7.304135986328125,0.05602836608886719,-0.006339550018310547,0.08191037178039551
1761369745373745700,7.32274560546875,0.19604206085205078,0.004582881927490234,0.09386515617370605
1761369745392356900,7.34135693359375,0.1935272216796875,-0.0006799697875976562,0.1303349733352661
1761369745410966800,7.359966796875,0.09500885009765625,0.012470245361328125,0.07663536071777344
1761369745429578000,7.378577880859375,0.023880958557128906,-0.004012584686279297,0.03117239475250244
1761369745448187600,7.397187744140625,0.0017385482788085938,-0.01762676239013672,0.027320504188537598
1761369745466798800,7.415798828125,-0.029343605041503906,-0.007154941558837891,-0.045606255531311035
1761369745485408800,7.43440869140625,-0.10921573638916016,0.007346153259277344,-0.07993018627166748
1761369745504020000,7.45302001953125,-0.13240528106689453,0.002861499786376953,-0.07927632331848145
1761369745522629600,7.471629638671875,-0.09521722793579102,0.014920234680175781,-0.060740113258361816
1761369745541241000,7.490240966796875,-0.03195953369140625,-0.010790824890136719,-0.014998435974121094
1761369745559850800,7.508850830078125,-0.08327770233154297,-0.0347437858581543,-0.01234889030456543
1761369745578462000,7.5274619140625,-0.08471012115478516,-0.004883289337158203,-0.014088749885559082
1761369745597072000,7.54607177734375,0.013764381408691406,0.028937339782714844,0.002318859100341797
1761369745615683000,7.56468310546875,0.08147335052490234,0.026040077209472656,-0.020157694816589355
1761369745634292700,7.583292724609375,0.04004859924316406,0.008599281311035156,0.03254294395446777
1761369745652904000,7.601904052734375,0.08516120910644531,-0.006946563720703125,0.06923043727874756
1761369745671513900,7.620513916015625,0.06669425964355469,-0.02209615707397461,0.08760643005371094
1761369745690125000,7.639125,0.02680683135986328,0.006374359130859375,0.008282065391540527
1761369745708734700,7.657734619140625,0.011714935302734375,-0.00170135498046875,0.00893557071685791
1761369745727346000,7.676345947265625,-0.021999359130859375,0.007469654083251953,-0.012364864349365234
1761369745745955800,7.694955810546875,-0.09785032272338867,-0.0048618316650390625,-0.05468785762786865
1761369745764567000,7.713567138671875,-0.05092906951904297,0.008578300476074219,-0.04647350311279297
1761369745783176700,7.7321767578125,0.06471633911132812,0.020783424377441406,0.028537511825561523
1761369745801788200,7.7507880859375,0.07029438018798828,0.0022649765014648438,0.04244863986968994
1761369745820397800,7.769397705078125,-0.026042938232421875,-0.03290987014770508,0.03624522686004639
1761369745839009000,7.788009033203125,0.0018930435180664062,-0.027408599853515625,0.020069003105163574
1761369745857618700,7.80661865234375,-0.04155445098876953,0.015785694122314453,-0.05794262886047363
1761369745876230100,7.825230224609375,-0.09154558181762695,0.013283729553222656,-0.07120740413665771
1761369745894839800,7.84383984375,-0.07067108154296875,0.003127574920654297,0.008404374122619629
1761369745913451000,7.862450927734375,-0.008969306945800781,-0.013798236846923828,0.0658797025680542
1761369745932061000,7.88106103515625,0.07470417022705078,-0.003101825714111328,0.07337868213653564
1761369745950672100,7.899672119140625,0.08196258544921875,0.019461631774902344,0.07327723503112793
1761369745969281800,7.91828173828125,0.02159595489501953,0.008586883544921875,0.033666014671325684
1761369745987893200,7.936893310546875,-0.01640605926513672,-0.022153854370117188,0.025597095489501953
1761369746006503000,7.9555029296875,-0.006781578063964844,-0.015782833099365234,-0.00024139881134033203
1761369746025114000,7.974114013671875,-0.0024318695068359375,0.008882522583007812,0.03964877128601074
1761369746043723800,7.992723876953125,-0.051697731018066406,-0.009305477142333984,0.041547417640686035
1761369746062335000,8.0113349609375,-0.029844284057617188,0.004415988922119141,-0.0006204843521118164
1761369746080945000,8.02994482421875,0.018787384033203125,-0.0007638931274414062,0.0030821561813354492
1761369746099556000,8.04855615234375,0.04781341552734375,-0.009007453918457031,0.04247844219207764
1761369746118165800,8.067165771484374,0.04907798767089844,-0.00014591217041015625,0.038669705390930176
1761369746136777200,8.085777099609375,-0.010285377502441406,0.003269195556640625,-0.0006060600280761719
1761369746155387000,8.104386962890626,-0.07063913345336914,-0.01499795913696289,-0.028824567794799805
1761369746173998000,8.122998046875,-0.031479835510253906,0.009961128234863281,-0.009056687355041504
1761369746192608000,8.14160791015625,0.043824195861816406,0.012149333953857422,0.03168630599975586
1761369746211219200,8.16021923828125,0.02110767364501953,0.016327857971191406,-0.013578176498413086
1761369746229828900,8.178828857421875,-0.0522613525390625,-0.004626274108886719,-0.02266085147857666
1761369746248440000,8.197440185546874,-0.09150314331054688,-0.0047664642333984375,-0.03734159469604492
1761369746267050000,8.216050048828125,-0.053046226501464844,-0.017573833465576172,-0.006819248199462891
1761369746285661200,8.2346611328125,0.0799093246459961,0.013983726501464844,0.017247796058654785
1761369746304270800,8.253270751953124,0.07581424713134766,0.03904438018798828,0.011235713958740234
1761369746322882300,8.27188232421875,-0.00020122528076171875,0.009564876556396484,0.04724466800689697
1761369746341492000,8.290491943359376,-0.03615379333496094,-0.011999130249023438,0.06946325302124023
1761369746360103200,8.309103271484375,-0.07642841339111328,-0.016319751739501953,0.034960150718688965
1761369746378712800,8.327712890625,-0.08328056335449219,0.01761627197265625,-0.018450140953063965
1761369746397324300,8.34632421875,-0.06011676788330078,0.009423255920410156,-0.01909804344177246
1761369746415934000,8.364933837890625,-0.022253036499023438,0.006992340087890625,0.008817076683044434
1761369746434545200,8.383545166015624,0.01904582977294922,0.018707275390625,0.0008887052536010742
1761369746453155000,8.402155029296875,0.03850269317626953,0.0293731689453125,-0.0076351165771484375
1761369746471766300,8.420766357421876,0.0791168212890625,0.036548614501953125,0.025481104850769043
1761369746490376000,8.4393759765625,0.08188533782958984,0.01418447494506836,0.028697490692138672
1761369746508987100,8.457987060546875,0.10690879821777344,-0.018085956573486328,0.068031907081604
1761369746527597000,8.47659716796875,0.1956501007080078,-0.0010743141174316406,0.07334184646606445
1761369746546208300,8.495208251953125,0.09638404846191406,0.008598804473876953,-0.007308363914489746
1761369746564818000,8.51381787109375,-0.0555572509765625,-0.011621952056884766,-0.01800096035003662
1761369746583429000,8.53242919921875,-0.09602546691894531,0.0076465606689453125,-0.014504075050354004
1761369746602039000,8.5510390625,-0.0799703598022461,-0.0012927055358886719,0.020134568214416504
1761369746620650200,8.569650146484374,-0.06991720199584961,-0.03220415115356445,0.027159452438354492
1761369746639260000,8.588260009765625,-0.0072727203369140625,-0.007518768310546875,0.022849678993225098
1761369746657871400,8.606871337890626,0.02763652801513672,-0.011783123016357422,0.029763460159301758
1761369746676481000,8.62548095703125,-0.011076927185058594,-0.029832839965820312,0.03440725803375244
1761369746695092200,8.64409228515625,0.031645774841308594,-0.012386798858642578,0.014881730079650879
1761369746713702000,8.662701904296876,0.07102680206298828,-0.004118919372558594,0.027415871620178223
1761369746732313300,8.681313232421875,-0.021221160888671875,0.0016446113586425781,0.011501193046569824
1761369746750923000,8.699923095703125,-0.02663421630859375,-0.001739501953125,0.0154343843460083
1761369746769534200,8.7185341796875,-0.008435249328613281,-0.0031561851501464844,0.022179365158081055
1761369746788144000,8.73714404296875,-0.012025833129882812,-0.027585983276367188,0.033087849617004395
1761369746806755300,8.75575537109375,-0.0064945220947265625,-0.020237445831298828,0.008936643600463867
1761369746825365000,8.774364990234375,-0.006546974182128906,-0.010220527648925781,0.0048896074295043945
1761369746843976200,8.79297607421875,0.05010509490966797,-0.0010595321655273438,0.010311484336853027
1761369746862586000,8.811586181640624,0.08476829528808594,-0.00812673568725586,0.02274155616760254
1761369746881197300,8.830197265625,0.04463005065917969,-0.016190528869628906,0.02860701084136963
1761369746899807000,8.848806884765626,0.006136894226074219,-0.0036292076110839844,0.0070612430572509766
1761369746918418200,8.867418212890625,-0.017305374145507812,0.011335372924804688,-0.028287172317504883
1761369746937028000,8.886028076171876,-0.010076522827148438,0.014983177185058594,-0.029239654541015625
1761369746955639300,8.904639404296875,-0.06674575805664062,-0.01750469207763672,-0.027738094329833984
1761369746974249000,8.9232490234375,-0.08733272552490234,-0.04021024703979492,-0.022541403770446777
1761369746992860200,8.941860107421874,-0.017040252685546875,-0.023618221282958984,0.017478346824645996
1761369747011470000,8.960469970703125,0.020218849182128906,0.01571178436279297,0.018928050994873047
1761369747030081300,8.979081298828126,0.014786720275878906,0.013312339782714844,0.054152488708496094
1761369747048691000,8.99769091796875,0.036179542541503906,-0.00944375991821289,0.10675132274627686
1761369747067302100,9.01630224609375,0.02040386199951172,-0.00997018814086914,0.08525609970092773
1761369747085912000,9.034912109375,-0.032271385192871094,-0.02001190185546875,0.0069931745529174805
1761369747104523300,9.053523193359375,-0.01829242706298828,-0.021324634552001953,-0.006768584251403809
1761369747123133000,9.0721328125,0.008543968200683594,-0.003047943115234375,0.004134535789489746
1761369747141744400,9.090744384765625,-0.03592205047607422,0.012926101684570312,-0.019234418869018555
1761369747160354000,9.10935400390625,-0.05821847915649414,-0.008424758911132812,-0.008005857467651367
1761369747178965200,9.12796533203125,-0.007825851440429688,0.017728805541992188,0.004062652587890625
1761369747197575000,9.146574951171875,0.015789031982421875,0.02832794189453125,0.022653579711914062
1761369747216186400,9.165186279296876,0.013647079467773438,0.0002760887145996094,0.03097379207611084
1761369747234796000,9.183796142578124,0.000148773193359375,-0.02258777618408203,0.044466614723205566
1761369747253407200,9.2024072265625,0.017246246337890625,-0.002693653106689453,0.016082286834716797
1761369747272017000,9.221016845703126,-0.015297889709472656,0.012406349182128906,-0.013328790664672852
1761369747290628400,9.23962841796875,-0.045224666595458984,0.014542102813720703,-0.032048821449279785
1761369747309238000,9.258238037109376,-0.02804851531982422,-0.038373470306396484,0.06804037094116211
1761369747327849200,9.27684912109375,0.023430824279785156,0.00424957275390625,0.06685614585876465
1761369747346459100,9.295459228515625,0.05940437316894531,0.028338909149169922,0.06853318214416504
1761369747365070300,9.3140703125,0.06524085998535156,0.012139320373535156,0.08919239044189453
1761369747383680000,9.332679931640625,-0.0030460357666015625,-0.028116703033447266,0.10855937004089355
1761369747402291200,9.351291259765626,-0.008234977722167969,-0.004148960113525391,0.05574750900268555
1761369747420900900,9.36990087890625,-0.03919792175292969,0.01450967788696289,0.0365067720413208
1761369747439512300,9.38851220703125,-0.0673837661743164,0.00829172134399414,0.011572957038879395
1761369747458122000,9.4071220703125,-0.07464456558227539,-0.010107040405273438,0.01994192600250244
1761369747476733200,9.425733154296875,-0.023934364318847656,0.022038936614990234,0.018678903579711914
1761369747495342800,9.4443427734375,0.01807880401611328,0.017509937286376953,0.07204484939575195
1761369747513954300,9.462954345703125,0.04577159881591797,-0.0005865097045898438,0.07723021507263184
1761369747532564000,9.48156396484375,0.014901161193847656,0.011474132537841797,0.01907193660736084
1761369747551175200,9.500175048828124,0.013269424438476562,-0.0027227401733398438,-0.0303879976272583
1761369747569785000,9.51878515625,-0.02362060546875,0.016938209533691406,-0.03107154369354248
1761369747588396300,9.537396240234376,-0.024595260620117188,0.0038590431213378906,-0.009732961654663086
1761369747607006000,9.556005859375,0.009458541870117188,0.023519039154052734,-0.006207942962646484
1761369747625617200,9.5746171875,0.026712417602539062,0.02077627182006836,-0.023090600967407227
1761369747644227000,9.59322705078125,0.030028343200683594,0.01734447479248047,-0.021474361419677734
1761369747662838300,9.61183837890625,-0.048763275146484375,0.004751682281494141,-0.013691425323486328
1761369747681448000,9.630447998046876,-0.09780693054199219,-0.019544124603271484,-0.016222238540649414
1761369747700059100,9.64905908203125,-0.046174049377441406,0.028381824493408203,-0.04170095920562744
1761369747718669000,9.6676689453125,-0.020381927490234375,0.0571894645690918,-0.07065689563751221
1761369747737280300,9.6862802734375,-0.004834175109863281,0.015666484832763672,-0.030500054359436035
1761369747755890000,9.704889892578125,-0.010399818420410156,-0.023009777069091797,0.059169769287109375
1761369747774501000,9.723501220703126,0.03679656982421875,0.007668972015380859,0.019621849060058594
1761369747793111000,9.742111083984375,-0.012989044189453125,0.019257068634033203,0.008730173110961914
1761369747811722200,9.76072216796875,-0.004769325256347656,-0.009304523468017578,0.015442371368408203
1761369747830332000,9.779331787109374,-0.0021429061889648438,0.0010123252868652344,-0.047083497047424316
1761369747848943000,9.797943115234375,0.02081584930419922,0.0035300254821777344,-0.03215432167053223
1761369747867553000,9.816552978515626,0.059121131896972656,0.010121822357177734,0.02700650691986084
1761369747886164200,9.835164306640625,0.0928192138671875,-0.0007686614990234375,-0.00009167194366455078
1761369747904774000,9.85377392578125,0.004668235778808594,-0.0031785964965820312,0.02484750747680664
1761369747923385000,9.872385009765624,-0.015154838562011719,0.0024085044860839844,0.01984405517578125
1761369747941995000,9.8909951171875,0.004574775695800781,-0.008117198944091797,0.01033174991607666
1761369747960606200,9.909606201171876,-0.04243612289428711,-0.012874603271484375,0.014797687530517578
1761369747979216000,9.9282158203125,-0.09800529479980469,-0.025991439819335938,0.019024133682250977
1761369747997827000,9.9468271484375,-0.08744287490844727,-0.046927452087402344,0.023451566696166992
1761369748016437000,9.96543701171875,-0.10596513748168945,-0.018675804138183594,0.023844480514526367
1761369748035048200,9.984048095703125,0.013147354125976562,-0.02306079864501953,0.052435994148254395
1761369748053657900,10.002657958984376,0.027544021606445312,-0.006661891937255859,0.019049763679504395
1761369748072269000,10.02126904296875,0.05420875549316406,0.004106998443603516,0.01262056827545166
1761369748090879000,10.03987890625,0.08036136627197266,-0.007464885711669922,-0.011211633682250977
1761369748109490200,10.058490234375,0.10498332977294922,-0.003815174102783203,-0.03078591823577881
1761369748128099800,10.077099853515625,0.0685281753540039,-0.017859458923339844,-0.021374225616455078
1761369748146711000,10.0957109375,0.037921905517578125,0.008359432220458984,-0.07525205612182617
1761369748165321000,10.114321044921875,0.005916595458984375,-0.00027179718017578125,-0.05128908157348633
1761369748183932200,10.13293212890625,0.04437541961669922,-0.012586593627929688,0.014588117599487305
1761369748202541800,10.151541748046874,-0.03306865692138672,-0.01055765151977539,0.02261817455291748
1761369748221153000,10.170153076171875,-0.07162666320800781,-0.0255126953125,0.05724215507507324
1761369748239763000,10.188762939453126,-0.055676937103271484,-0.032408714294433594,0.0629352331161499
1761369748258374100,10.2073740234375,0.006176948547363281,0.00008726119995117188,0.0562361478805542
1761369748276983800,10.22598388671875,-0.007889747619628906,-0.001984119415283203,0.05828368663787842
1761369748295595000,10.244594970703124,0.05140495300292969,0.01395273208618164,0.012668251991271973
1761369748314205000,10.263204833984375,0.0646219253540039,-0.006228923797607422,0.014759063720703125
1761369748332816100,10.281816162109376,0.02877044677734375,-0.045896053314208984,0.03602874279022217
1761369748351425800,10.30042578125,0.0052623748779296875,-0.060790061950683594,0.10853075981140137
1761369748370037000,10.319037109375,0.0013675689697265625,-0.017724990844726562,0.07591104507446289
1761369748388646700,10.337646728515624,-0.014765739440917969,-0.013968467712402344,-0.0649268627166748
1761369748407258000,10.356258056640625,-0.04797649383544922,0.04349231719970703,-0.24035930633544922
1761369748425867800,10.37486767578125,-0.12736225128173828,0.06706476211547852,-0.26210689544677734
1761369748444479000,10.39347900390625,-0.20126819610595703,0.04830026626586914,-0.20204651355743408
1761369748463088600,10.412088623046875,-0.06162261962890625,-0.010670661926269531,-0.09328722953796387
1761369748481700000,10.4307001953125,-0.0022287368774414062,-0.006060123443603516,0.012534618377685547
1761369748500309800,10.449309814453125,-0.029911041259765625,0.09750652313232422,-0.027420878410339355
1761369748518921000,10.4679208984375,-0.013926506042480469,0.041585445404052734,-0.08344924449920654
1761369748537530600,10.486530517578124,0.19878673553466797,0.0424036979675293,-0.020236849784851074
1761369748556142000,10.50514208984375,0.21030807495117188,-0.013624191284179688,0.29682159423828125
1761369748574751700,10.523751708984374,0.062272071838378906,-0.04416656494140625,0.2597006559371948
1761369748593363000,10.542363037109375,0.10138130187988281,-0.011327266693115234,0.08261442184448242
1761369748611972600,10.56097265625,0.1313486099243164,-0.005640983581542969,0.21836531162261963
1761369748630584000,10.579583984375,0.08877086639404297,-0.015727996826171875,0.0564424991607666
1761369748649193700,10.59819384765625,-0.01582622528076172,-0.03266716003417969,0.049155592918395996
1761369748667805000,10.616804931640624,-0.1481027603149414,0.03087329864501953,-0.0026656389236450195
1761369748686414600,10.63541455078125,-0.16902732849121094,0.0053253173828125,0.03871512413024902
1761369748705026000,10.654026123046876,-0.13042640686035156,-0.027752399444580078,0.00398707389831543
1761369748723635700,10.6726357421875,-0.04160118103027344,0.01458740234375,0.006142735481262207
1761369748742247000,10.691246826171875,-0.04995250701904297,-0.04514169692993164,0.09233760833740234
1761369748760856600,10.709856689453124,-0.00897216796875,-0.003116130828857422,0.061769843101501465
1761369748779468000,10.728468017578125,0.11262035369873047,0.03725767135620117,0.036101698875427246
1761369748798077700,10.74707763671875,0.10121440887451172,-0.0030946731567382812,0.11128616333007812
1761369748816689000,10.76568896484375,0.11387920379638672,-0.006772041320800781,0.12944793701171875
1761369748835298600,10.784298583984375,0.010573387145996094,-0.001117706298828125,0.05504179000854492
1761369748853909800,10.80290966796875,0.05511283874511719,-0.03423500061035156,-0.21274173259735107
1761369748872519700,10.821519775390625,-0.058297157287597656,0.07211780548095703,-0.137703537940979
1761369748891131000,10.840130859375,0.025032997131347656,0.0071773529052734375,0.026981711387634277
1761369748909740500,10.858740478515625,-0.05409049987792969,-0.02735137939453125,0.16847670078277588
1761369748928351700,10.877351806640625,-0.09409523010253906,-0.04882478713989258,0.22819340229034424
1761369748946961700,10.895961669921874,-0.0016469955444335938,-0.07466459274291992,0.09513735771179199
1761369748965572900,10.91457275390625,-0.12144851684570312,0.053646087646484375,-0.03153061866760254
