time,seconds_elapsed,z,y,x
1761370364695178800,0.1051787109375,0,0,0
1761370364713789200,0.1237890625,0.21949291229248047,0.2635536193847656,0.103574737906456
1761370364732401200,0.142401123046875,0.38439369201660156,0.6476144790649414,0.002980366349220276
1761370364751011600,0.161011474609375,0.10575294494628906,0.749051570892334,-0.0818619579076767
1761370364769623600,0.17962353515625,-0.007725715637207031,0.445098876953125,0.20575544238090515
1761370364788234000,0.19823388671875,0.291534423828125,-0.22100448608398438,-0.23151108622550964
1761370364806845700,0.216845703125,0.19028949737548828,-0.35366296768188477,-1.1555911302566528
1761370364825456400,0.235456298828125,0.34731292724609375,-0.34157323837280273,-1.615809440612793
1761370364844068000,0.254068115234375,-0.27771854400634766,-0.6349606513977051,-1.4464621543884277
1761370364862678800,0.2726787109375,-0.5888919830322266,-0.9437003135681152,-0.8312638401985168
1761370364881290500,0.29129052734375,-0.5826425552368164,-0.7703404426574707,0.06495902687311172
1761370364899901000,0.30990087890625,-0.6138467788696289,-0.5894303321838379,0.20639272034168243
1761370364918513000,0.328512939453125,-0.5934619903564453,-0.6925501823425293,0.529380202293396
1761370364937123300,0.347123291015625,-0.4686727523803711,-0.5616455078125,0.4895937144756317
1761370364955735300,0.3657353515625,-0.4257364273071289,-0.43546390533447266,0.5717121362686157
1761370364974345700,0.384345703125,-0.3805723190307617,-0.12201690673828125,0.5653011202812195
1761370364992957700,0.402957763671875,-0.6496458053588867,0.1699504852294922,0.4771643877029419
1761370365011568000,0.421568115234375,-0.7312946319580078,-0.023081302642822266,0.7395047545433044
1761370365030180400,0.440180419921875,-0.5860910415649414,-0.058526039123535156,0.7936400771141052
1761370365048790500,0.45879052734375,-0.3886570930480957,-0.11128425598144531,0.7977086305618286
1761370365067402800,0.47740283203125,-0.0897359848022461,-0.009154796600341797,0.6678800582885742
1761370365086013000,0.496012939453125,0.17127418518066406,-0.06987953186035156,0.43455541133880615
1761370365104625200,0.514625244140625,0.3900003433227539,-0.26509809494018555,0.3224601745605469
1761370365123235300,0.5332353515625,0.2468729019165039,-0.1092386245727539,0.33202463388442993
1761370365141847600,0.55184765625,0.16902542114257812,-0.06915855407714844,0.2905450463294983
1761370365160457700,0.570457763671875,0.058173179626464844,-0.0066738128662109375,0.5933433175086975
1761370365179069700,0.589069580078125,0.14743328094482422,0.12442493438720703,0.5204752683639526
1761370365197680000,0.60768017578125,0.1473703384399414,-0.08020639419555664,-0.03068774938583374
1761370365216292000,0.6262919921875,0.08366584777832031,-0.2934398651123047,0.025476694107055664
1761370365234902500,0.644902587890625,-0.2583155632019043,-0.5232944488525391,0.16849982738494873
1761370365253514500,0.663514404296875,-0.5318107604980469,-0.1656346321105957,0.06805312633514404
1761370365272125000,0.682125,-0.10032463073730469,-0.10448551177978516,-0.203851580619812
1761370365290737000,0.70073681640625,-0.09891891479492188,0.09231090545654297,-0.4687941074371338
1761370365309347300,0.719347412109375,0.034523963928222656,0.0007266998291015625,-0.3805677592754364
1761370365327959300,0.737959228515625,-0.15033674240112305,-0.05336809158325195,-0.3165437877178192
1761370365346569700,0.75656982421875,-0.1602644920349121,-0.07149457931518555,-0.11843854188919067
1761370365365181700,0.775181640625,-0.11484670639038086,-0.12151098251342773,0.15246188640594482
1761370365383792000,0.793792236328125,-0.1837620735168457,-0.09795475006103516,0.2636139392852783
1761370365402404000,0.812404052734375,-0.15160560607910156,-0.06663370132446289,0.1563633680343628
1761370365421014500,0.8310146484375,0.03379011154174805,-0.07968473434448242,0.07578825950622559
1761370365439626500,0.84962646484375,-0.027981281280517578,-0.05216693878173828,0.18017929792404175
1761370365458237000,0.86823681640625,-0.42121124267578125,-0.05926179885864258,0.3535209894180298
1761370365476849000,0.886848876953125,-0.3913002014160156,-0.21614933013916016,0.060739874839782715
1761370365495459300,0.905459228515625,-0.1260242462158203,-0.007893085479736328,0.04673874378204346
1761370365514071600,0.924071533203125,0.031711578369140625,-0.08043289184570312,0.2398260235786438
1761370365532681700,0.942681640625,0.13617944717407227,-0.0001087188720703125,0.4003887176513672
1761370365551294000,0.9612939453125,0.1037912368774414,0.05288219451904297,0.5605646371841431
1761370365569904000,0.979904052734375,0.19722270965576172,0.04876279830932617,0.5460978746414185
1761370365588516400,0.998516357421875,0.1490478515625,0.0498967170715332,0.4286421537399292
1761370365607126500,1.01712646484375,0.04789304733276367,0.020936965942382812,0.36521947383880615
1761370365625738800,1.03573876953125,0.03217363357543945,-0.0016460418701171875,0.22946381568908691
1761370365644349000,1.054348876953125,0.008816719055175781,-0.004390239715576172,0.1717240810394287
1761370365662961000,1.0729609375,-0.06230926513671875,-0.06839847564697266,0.18711042404174805
1761370365681571300,1.0915712890625,0.00914907455444336,-0.09815406799316406,0.1917968988418579
1761370365700183600,1.11018359375,0.04643821716308594,-0.03487205505371094,0.11796784400939941
1761370365718793700,1.128793701171875,0.1404271125793457,-0.052039146423339844,0.05711638927459717
1761370365737406000,1.147406005859375,0.15639877319335938,-0.0013499259948730469,-0.010693907737731934
1761370365756016400,1.166016357421875,0.16863250732421875,0.00900411605834961,0.02918696403503418
1761370365774628400,1.18462841796875,0.08075094223022461,-0.07029294967651367,0.17608165740966797
1761370365793238800,1.20323876953125,-0.01043844223022461,-0.05881500244140625,0.18776237964630127
1761370365811850800,1.221850830078125,-0.07638978958129883,-0.05559825897216797,0.20051681995391846
1761370365839766800,1.249766845703125,-0.23357343673706055,-0.06897306442260742,0.0746229887008667
1761370365858378800,1.268378662109375,-0.23915767669677734,-0.07675027847290039,0.08024454116821289
1761370365876989200,1.2869892578125,-0.1921834945678711,-0.06101560592651367,0.11404561996459961
1761370365895601200,1.30560107421875,-0.15103769302368164,-0.01545572280883789,0.08895695209503174
1761370365914211600,1.324211669921875,-0.14056682586669922,-0.05794572830200195,0.10278582572937012
1761370365932823600,1.342823486328125,-0.11885213851928711,-0.09381484985351562,0.14887535572052002
1761370365951434000,1.36143408203125,-0.0642709732055664,-0.017038345336914062,0.06554102897644043
1761370365970046000,1.3800458984375,0.06522560119628906,0.03433990478515625,-0.06874954700469971
1761370365988656400,1.398656494140625,0.07477998733520508,0.046013832092285156,-0.07564985752105713
1761370366007268400,1.417268310546875,0.10407352447509766,-0.03495073318481445,0.06444704532623291
1761370366025878800,1.435878662109375,0.07464218139648438,-0.040073394775390625,0.12820756435394287
1761370366044490800,1.45449072265625,0.12406730651855469,-0.04381608963012695,0.10385310649871826
1761370366063101200,1.47310107421875,0.20669937133789062,-0.02672290802001953,0.1004631519317627
1761370366081713200,1.491713134765625,0.24727487564086914,-0.0019083023071289062,0.0658578872680664
1761370366100323600,1.510323486328125,0.20245885848999023,0.03924703598022461,0.024794816970825195
1761370366118935600,1.528935546875,0.2003793716430664,0.05006217956542969,0.018173813819885254
1761370366137546000,1.5475458984375,0.15163087844848633,-0.009553909301757812,0.08898568153381348
1761370366156158000,1.566157958984375,0.07813024520874023,-0.03237009048461914,0.09963738918304443
1761370366174768400,1.584768310546875,-0.07236003875732422,-0.0420379638671875,0.08538639545440674
1761370366193380400,1.60338037109375,-0.20835399627685547,-0.06119728088378906,0.02288997173309326
1761370366211990800,1.62199072265625,-0.22354555130004883,-0.12352800369262695,0.04114985466003418
1761370366230602800,1.640602783203125,-0.17555665969848633,-0.12003612518310547,0.020705103874206543
1761370366249213200,1.659213134765625,-0.18730926513671875,-0.03228616714477539,-0.06279826164245605
1761370366267825200,1.6778251953125,-0.20368432998657227,0.015040397644042969,-0.1071363091468811
1761370366286435600,1.696435546875,-0.11676025390625,-0.019577503204345703,-0.08201098442077637
1761370366305047600,1.715047607421875,-0.0471339225769043,-0.04063606262207031,-0.013487100601196289
1761370366323658000,1.733657958984375,0.022449970245361328,-0.04414939880371094,0.07544386386871338
1761370366342270200,1.752270263671875,0.0454254150390625,-0.03679704666137695,0.1283881664276123
1761370366360880400,1.77088037109375,0.0942840576171875,-0.01178884506225586,0.12543976306915283
1761370366379492400,1.789492431640625,0.14672136306762695,0.04300355911254883,0.08841896057128906
1761370366398103000,1.80810302734375,0.12699127197265625,0.03789472579956055,0.0587460994720459
1761370366416714800,1.82671484375,0.09672355651855469,-0.024139404296875,0.1000603437423706
1761370366435325400,1.845325439453125,0.06888151168823242,-0.03663158416748047,0.11207270622253418
1761370366453937400,1.8639375,0.032970428466796875,-0.01743030548095703,0.11359190940856934
1761370366472547800,1.8825478515625,-0.017944812774658203,-0.015095710754394531,0.1300729513168335
1761370366491159800,1.901159912109375,-0.008617401123046875,-0.05270242691040039,0.1515188217163086
1761370366509770200,1.919770263671875,0.04990339279174805,-0.0028638839721679688,0.1201704740524292
1761370366528382200,1.93838232421875,0.0580754280090332,-0.0026578903198242188,0.1708887815475464
1761370366546992600,1.95699267578125,-0.024899959564208984,-0.04019594192504883,0.1806621551513672
1761370366565604600,1.9756044921875,-0.024025917053222656,-0.0056514739990234375,0.13412117958068848
1761370366584215000,1.994215087890625,0.047086238861083984,-0.033525943756103516,0.12873291969299316
1761370366602827000,2.012826904296875,0.13367557525634766,0.010443687438964844,0.10282111167907715
1761370366621437400,2.0314375,0.13279438018798828,0.029537677764892578,0.07901608943939209
1761370366640049400,2.05004931640625,0.06595087051391602,-0.007517337799072266,0.018966317176818848
1761370366658659800,2.068659912109375,-0.029148101806640625,-0.029431819915771484,0.025467753410339355
1761370366677271800,2.087271728515625,-0.09659576416015625,-0.04661893844604492,0.033339619636535645
1761370366695882200,2.10588232421875,-0.08667373657226562,-0.021367549896240234,-0.030713200569152832
1761370366714494200,2.124494140625,-0.03526020050048828,-0.017314434051513672,-0.04721653461456299
1761370366733104600,2.143104736328125,-0.018663883209228516,-0.0033750534057617188,-0.04236435890197754
1761370366751716600,2.161716552734375,-0.05197000503540039,0.004108905792236328,-0.05380368232727051
1761370366770327000,2.1803271484375,-0.018671035766601562,-0.0074939727783203125,0.014357566833496094
1761370366788939000,2.19893896484375,-0.04255247116088867,-0.011861324310302734,0.038170695304870605
1761370366807549400,2.217549560546875,-0.06865310668945312,-0.024576663970947266,0.05116617679595947
1761370366826161400,2.236161376953125,-0.003512859344482422,-0.0569462776184082,0.0436098575592041
1761370366844771800,2.254771728515625,0.09486913681030273,-0.07017850875854492,0.013554692268371582
1761370366863384000,2.273384033203125,0.0764460563659668,-0.079437255859375,0.004343271255493164
1761370366881994500,2.291994384765625,0.0093841552734375,-0.08533382415771484,-0.03035128116607666
1761370366900606200,2.310606201171875,0.00251007080078125,-0.045926570892333984,-0.06126606464385986
1761370366919217000,2.329216796875,0.038439273834228516,0.016898632049560547,-0.09246200323104858
1761370366937828900,2.347828857421875,0.04208517074584961,0.008819103240966797,-0.09359771013259888
1761370366956439300,2.366439208984375,0.04036283493041992,0.038672447204589844,0.00040793418884277344
1761370366975051300,2.38505126953125,-0.04718923568725586,0.028905391693115234,0.0029349327087402344
1761370366993661700,2.40366162109375,-0.13554811477661133,0.048863887786865234,-0.001669764518737793
1761370367012273700,2.422273681640625,-0.12258100509643555,0.06518793106079102,-0.011174440383911133
1761370367030884000,2.440884033203125,-0.11133384704589844,0.05939531326293945,-0.044637084007263184
1761370367049496000,2.45949609375,-0.12064075469970703,0.04169130325317383,-0.052284955978393555
1761370367068106500,2.4781064453125,-0.10372114181518555,0.010783672332763672,0.007137656211853027
1761370367086718500,2.496718505859375,-0.03281974792480469,0.043173789978027344,-0.03210651874542236
1761370367105329000,2.515328857421875,0.05682182312011719,0.07181882858276367,-0.04696381092071533
1761370367123940900,2.53394091796875,0.13370656967163086,0.04858732223510742,-0.009973764419555664
1761370367142551300,2.55255126953125,0.13118219375610352,0.03011322021484375,0.04150056838989258
1761370367161163300,2.571163330078125,0.03910350799560547,0.03189229965209961,-0.018290400505065918
1761370367179773700,2.589773681640625,0.02797555923461914,-0.011836051940917969,0.012540221214294434
1761370367198385700,2.6083857421875,0.050769805908203125,-0.09238338470458984,0.12394165992736816
1761370367216996000,2.62699609375,0.03589057922363281,-0.03541994094848633,0.12213540077209473
1761370367235608000,2.645608154296875,-0.023172855377197266,0.029160022735595703,0.08056950569152832
1761370367254218500,2.664218505859375,-0.017578601837158203,0.015198230743408203,0.0815744400024414
1761370367272830500,2.68283056640625,0.014021873474121094,-0.0009808540344238281,0.12295186519622803
1761370367291441000,2.70144091796875,0.014525890350341797,0.015001296997070312,0.106315016746521
1761370367310052900,2.720052978515625,-0.026818275451660156,-0.0004019737243652344,0.07750248908996582
1761370367328663300,2.738663330078125,-0.11443042755126953,-0.016238689422607422,0.022390246391296387
1761370367347275500,2.757275634765625,-0.09810256958007812,0.0029959678649902344,0.011428236961364746
1761370367365885700,2.7758857421875,-0.11188554763793945,-0.018192291259765625,-0.041583478450775146
1761370367384497700,2.79449755859375,-0.08715438842773438,0.014899253845214844,-0.07019239664077759
1761370367403108400,2.8131083984375,-0.06509590148925781,0.02289438247680664,-0.06749111413955688
1761370367421720300,2.83172021484375,-0.07761240005493164,0.01835155487060547,-0.10034775733947754
1761370367440330800,2.850330810546875,-0.027154922485351562,0.0031147003173828125,-0.0772668719291687
1761370367458942700,2.868942626953125,0.08800745010375977,-0.04030656814575195,0.021210312843322754
1761370367477553200,2.88755322265625,0.1787581443786621,-0.01813650131225586,0.06595957279205322
1761370367496165000,2.9061650390625,0.22332429885864258,0.040496826171875,0.02225172519683838
1761370367514775600,2.924775634765625,0.19712305068969727,0.06491708755493164,-0.0017985105514526367
1761370367533387500,2.943387451171875,0.12219476699829102,0.020612239837646484,-0.035539984703063965
1761370367551998000,2.961998046875,0.003540515899658203,-0.019607067108154297,-0.07480770349502563
1761370367570610000,2.98060986328125,-0.05595684051513672,-0.023786544799804688,-0.08535647392272949
1761370367589220400,2.999220458984375,-0.034646034240722656,-0.015725135803222656,-0.05474787950515747
1761370367607832300,3.017832275390625,-0.04437732696533203,0.0038080215454101562,0.028709232807159424
1761370367626442800,3.03644287109375,-0.016025543212890625,-0.01992034912109375,0.12089967727661133
1761370367645054700,3.0550546875,-0.021387577056884766,0.0029392242431640625,0.11661279201507568
1761370367663665200,3.0736650390625,-0.06199312210083008,0.03949308395385742,0.0472186803817749
1761370367682277000,3.092277099609375,-0.036704063415527344,0.0334620475769043,0.013073325157165527
1761370367700887600,3.110887451171875,-0.07549571990966797,-0.01645374298095703,0.05697190761566162
1761370367719499500,3.12949951171875,-0.19417667388916016,-0.02312755584716797,0.03079509735107422
1761370367738110000,3.14810986328125,-0.23264122009277344,-0.06299591064453125,0.006144523620605469
1761370367756722000,3.166721923828125,-0.11374330520629883,-0.04210186004638672,-0.03830397129058838
1761370367775332400,3.185332275390625,0.0543217658996582,-0.023430347442626953,-0.04715913534164429
1761370367793944300,3.2039443359375,0.17461490631103516,0.02122020721435547,-0.0192490816116333
1761370367812554800,3.2225546875,0.14783048629760742,0.034277915954589844,0.041771113872528076
1761370367831166700,3.241166748046875,0.10928773880004883,-0.03355979919433594,0.15468686819076538
1761370367849777200,3.259777099609375,0.11516904830932617,-0.024364471435546875,0.1643468737602234
1761370367868389400,3.278389404296875,0.11551856994628906,-0.024804115295410156,0.09584659337997437
1761370367886999600,3.29699951171875,0.035237789154052734,-0.0010538101196289062,0.02806234359741211
1761370367905611500,3.315611572265625,-0.0484471321105957,0.0024428367614746094,-0.03171491622924805
1761370367924222200,3.33422216796875,-0.17773056030273438,0.014829635620117188,-0.11920040845870972
1761370367942834000,3.352833984375,-0.25001955032348633,0.0032606124877929688,-0.142475426197052
1761370367961444600,3.371444580078125,-0.19977283477783203,-0.03421735763549805,-0.11779981851577759
1761370367980056600,3.390056640625,-0.13992881774902344,-0.04408407211303711,-0.05707252025604248
1761370367998667000,3.4086669921875,-0.06755352020263672,-0.016518115997314453,-0.02106165885925293
1761370368017279000,3.427279052734375,0.011262893676757812,0.0004639625549316406,-0.0067446231842041016
1761370368035889400,3.445889404296875,-0.00281524658203125,-0.03401994705200195,0.02841508388519287
1761370368054501400,3.46450146484375,0.04491996765136719,-0.024670124053955078,0.06950461864471436
1761370368073111800,3.48311181640625,0.1432952880859375,-0.0022993087768554688,0.08063250780105591
1761370368091723800,3.501723876953125,0.16742753982543945,0.0619053840637207,0.013154208660125732
1761370368110334200,3.520334228515625,0.16288232803344727,0.0006384849548339844,0.05469870567321777
1761370368128946200,3.5389462890625,0.1607513427734375,-0.0519719123840332,0.2299591302871704
1761370368147556600,3.557556640625,0.066802978515625,-0.04008674621582031,0.2202473282814026
1761370368166168600,3.57616845703125,-0.02932596206665039,0.0069980621337890625,0.08346015214920044
1761370368184779000,3.594779052734375,-0.06743717193603516,0.004786491394042969,-0.04795694351196289
1761370368203391000,3.613390869140625,-0.08947038650512695,-0.027406692504882812,-0.0974697470664978
1761370368222001400,3.63200146484375,-0.09188318252563477,-0.02365255355834961,-0.044328153133392334
1761370368240613400,3.65061328125,-0.11294174194335938,-0.01466989517211914,-0.01894235610961914
1761370368259223800,3.669223876953125,-0.0694117546081543,-0.018361568450927734,-0.018345952033996582
1761370368277835800,3.687835693359375,0.025890827178955078,-0.03776693344116211,0.029051601886749268
1761370368296446200,3.7064462890625,0.08851003646850586,-0.03170490264892578,0.016284584999084473
1761370368315058200,3.72505810546875,0.1271514892578125,0.028308868408203125,0.011910736560821533
1761370368333668600,3.743668701171875,0.0908517837524414,0.03581714630126953,-0.0291711688041687
1761370368352280600,3.762280517578125,0.0067615509033203125,0.019994258880615234,-0.07215815782546997
1761370368370891000,3.78089111328125,-0.029103755950927734,-0.0031561851501464844,-0.1213107705116272
1761370368389503000,3.7995029296875,0.0006003379821777344,0.0156097412109375,-0.17281532287597656
1761370368408113400,3.818113525390625,0.0797719955444336,0.020940780639648438,-0.17618650197982788
1761370368426725400,3.836725341796875,0.2395796775817871,-0.01291799545288086,-0.10161948204040527
1761370368445335800,3.855335693359375,0.20195293426513672,-0.06472349166870117,0.03277844190597534
1761370368463947800,3.87394775390625,0.11385917663574219,-0.05639076232910156,0.02574324607849121
1761370368482558200,3.89255810546875,0.03221940994262695,-0.0005998611450195312,-0.002224862575531006
1761370368501170200,3.911170166015625,-0.08664941787719727,-0.09365606307983398,-0.009907782077789307
1761370368519780600,3.929780517578125,-0.1833338737487793,-0.02931070327758789,0.09529286623001099
1761370368538392600,3.948392578125,-0.24704504013061523,-0.053249359130859375,0.06352847814559937
1761370368557003300,3.967003173828125,-0.22074317932128906,-0.017185211181640625,0.12522286176681519
1761370368575615000,3.985614990234375,-0.10082674026489258,0.008131980895996094,0.21728593111038208
1761370368594225700,4.0042255859375,0.09151363372802734,0.05056142807006836,0.27584558725357056
1761370368612837600,4.022837646484375,0.15110158920288086,0.06987714767456055,0.24944019317626953
1761370368631448000,4.041447998046875,0.1647491455078125,0.049752235412597656,0.1606607437133789
1761370368650060000,4.06006005859375,0.07932472229003906,-0.016042709350585938,0.05336332321166992
1761370368668670500,4.07867041015625,-0.061466217041015625,-0.04456663131713867,-0.04940998554229736
1761370368687282400,4.097282470703125,-0.15763521194458008,-0.06669855117797852,-0.12148797512054443
1761370368705892900,4.115892822265625,-0.14595890045166016,-0.08234977722167969,-0.12478774785995483
1761370368724504800,4.1345048828125,-0.04987907409667969,-0.10646533966064453,-0.09991568326950073
1761370368743115300,4.153115234375,0.014107704162597656,-0.049292564392089844,-0.05941230058670044
1761370368761727200,4.171727294921875,0.06909322738647461,-0.03343963623046875,0.02382427453994751
1761370368780337700,4.190337646484375,0.1298832893371582,-0.0022606849670410156,0.11172747611999512
1761370368798949600,4.20894970703125,0.17407608032226562,0.04168081283569336,0.13531005382537842
1761370368817560000,4.22756005859375,0.1469593048095703,0.08335351943969727,0.07613503932952881
1761370368836172000,4.246172119140625,0.1518254280090332,0.05024528503417969,0.06533694267272949
1761370368854782500,4.264782470703125,0.20394182205200195,0.016096115112304688,0.09149527549743652
1761370368873394400,4.28339453125,0.06697559356689453,-0.01408529281616211,0.04413890838623047
1761370368892004900,4.3020048828125,-0.1252613067626953,0.050141334533691406,-0.06323772668838501
1761370368910616800,4.320616943359375,-0.15027761459350586,0.04786062240600586,-0.05519759654998779
1761370368929227300,4.339227294921875,-0.08675861358642578,-0.011370658874511719,-0.007377147674560547
1761370368947839200,4.357839111328125,-0.1334853172302246,-0.0626058578491211,0.0523337721824646
1761370368966449700,4.37644970703125,-0.13579940795898438,-0.04969596862792969,0.08174920082092285
1761370368985061600,4.3950615234375,-0.0908050537109375,-0.01721954345703125,0.09518659114837646
1761370369003672000,4.413672119140625,0.011168956756591797,0.023389339447021484,0.0533452033996582
1761370369022284000,4.432283935546875,0.11667108535766602,0.06222105026245117,-0.02569580078125
1761370369040894500,4.45089453125,0.07522439956665039,0.07701301574707031,-0.050246477127075195
1761370369059506400,4.46950634765625,-0.025814056396484375,0.02158975601196289,-0.034169137477874756
1761370369078116900,4.488116943359375,-0.03988981246948242,-0.0031442642211914062,-0.062288880348205566
1761370369096728800,4.506728759765625,-0.043775081634521484,0.018390178680419922,-0.08320015668869019
1761370369115339300,4.52533935546875,-0.05159187316894531,0.01300811767578125,-0.09829401969909668
1761370369133951200,4.543951171875,-0.0030417442321777344,-0.00626373291015625,-0.04642367362976074
1761370369152561700,4.562561767578125,0.004542827606201172,-0.00396728515625,-0.02567434310913086
1761370369171173600,4.581173583984375,-0.002608776092529297,-0.008220195770263672,0.014847040176391602
1761370369189784000,4.5997841796875,-0.026484966278076172,0.00000476837158203125,0.049982666969299316
1761370369208396000,4.61839599609375,-0.022081375122070312,0.02512073516845703,0.02528458833694458
1761370369227006500,4.63700634765625,0.057537078857421875,0.043885231018066406,0.0081443190574646
1761370369245618400,4.655618408203125,0.09434223175048828,0.033905982971191406,0.021726548671722412
1761370369264228900,4.674228759765625,0.014708518981933594,-0.0031533241271972656,0.04279756546020508
1761370369282840800,4.6928408203125,-0.08594655990600586,-0.01278543472290039,-0.000823676586151123
1761370369301451300,4.711451171875,-0.07479619979858398,0.012197494506835938,-0.05042964220046997
1761370369320063200,4.730063232421875,0.031767845153808594,-0.010250091552734375,-0.0817757248878479
1761370369338673700,4.748673583984375,0.01603221893310547,0.002212047576904297,-0.0524173378944397
1761370369357285600,4.76728564453125,-0.09488725662231445,-0.004021644592285156,-0.04030740261077881
1761370369375896000,4.78589599609375,-0.09454059600830078,-0.03979825973510742,-0.030488431453704834
1761370369394508000,4.804508056640625,0.005057334899902344,0.018200397491455078,-0.06444162130355835
1761370369413118500,4.823118408203125,0.08334875106811523,0.042421817779541016,-0.020031273365020752
1761370369431730400,4.84173046875,0.07206106185913086,0.008246898651123047,0.06256723403930664
1761370369450340900,4.8603408203125,0.06258440017700195,-0.019592761993408203,0.10901683568954468
1761370369468952800,4.878952880859375,0.007637977600097656,0.004979133605957031,0.061988234519958496
1761370369487563300,4.897563232421875,-0.05241060256958008,0.040987491607666016,-0.058980584144592285
1761370369506175200,4.91617529296875,-0.06749343872070312,0.018820762634277344,-0.019728660583496094
1761370369524785700,4.93478564453125,-0.08303594589233398,-0.0034852027893066406,-0.007189810276031494
1761370369543397600,4.953397705078125,-0.078399658203125,0.018783092498779297,-0.02190375328063965
1761370369562008000,4.972008056640625,-0.030176162719726562,0.01271963119506836,-0.0014176368713378906
1761370369580620000,4.9906201171875,0.03339862823486328,-0.04963254928588867,0.06165117025375366
1761370369599230500,5.00923046875,0.09071493148803711,-0.01998424530029297,0.0794268250465393
1761370369617842400,5.027842529296875,0.07052278518676758,0.04685497283935547,-0.027151405811309814
1761370369636452900,5.046452880859375,0.08504676818847656,0.016309261322021484,-0.009221017360687256
1761370369655064800,5.06506494140625,0.03426837921142578,-0.0016427040100097656,-0.006960451602935791
1761370369673675300,5.08367529296875,-0.034166812896728516,-0.008981704711914062,0.02369999885559082
1761370369692287200,5.102287353515625,-0.04767131805419922,0.010666847229003906,0.0483320951461792
1761370369710897700,5.120897705078125,-0.0027170181274414062,0.006317615509033203,0.05875086784362793
1761370369729509600,5.139509521484375,0.017656803131103516,-0.012137889862060547,0.04512619972229004
1761370369748120000,5.1581201171875,-0.02568960189819336,-0.013731956481933594,0.04371035099029541
1761370369766732000,5.17673193359375,-0.04717731475830078,0.01358175277709961,0.020130634307861328
1761370369785342500,5.195342529296875,-0.042600154876708984,0.0004363059997558594,0.01813828945159912
1761370369803954400,5.213954345703125,-0.048155784606933594,-0.027479171752929688,0.0099257230758667
1761370369822564900,5.23256494140625,-0.026176929473876953,-0.01817607879638672,-0.0002148151397705078
1761370369841176800,5.2511767578125,0.015718460083007812,0.007224082946777344,0.017445683479309082
1761370369859787300,5.269787353515625,-0.011754035949707031,0.004208564758300781,0.049146056175231934
1761370369878399200,5.288399169921875,0.028089523315429688,0.009418010711669922,0.05991184711456299
1761370369897009700,5.307009765625,0.05876636505126953,0.019131183624267578,0.044359445571899414
1761370369915621600,5.32562158203125,0.02698040008544922,0.019616127014160156,0.029454588890075684
1761370369934232000,5.344232177734375,-0.015574455261230469,0.018485546112060547,-0.04255574941635132
1761370369952844000,5.362843994140625,-0.006013393402099609,0.004221916198730469,-0.0498235821723938
1761370369971454500,5.381454345703125,-0.025385379791259766,-0.01895761489868164,-0.022119998931884766
1761370369990066400,5.40006640625,-0.09883737564086914,-0.032886505126953125,-0.0706946849822998
1761370370008676900,5.4186767578125,-0.040112972259521484,0.020172119140625,-0.08042311668395996
1761370370027288800,5.437288818359375,-0.04919719696044922,0.04884910583496094,-0.12433075904846191
1761370370045899300,5.455899169921875,-0.004270076751708984,0.02095937728881836,-0.03239232301712036
1761370370064511200,5.47451123046875,0.051054954528808594,-0.03205728530883789,0.10224461555480957
1761370370083121700,5.49312158203125,0.07709646224975586,-0.005092620849609375,0.11065685749053955
1761370370101733600,5.511733642578125,0.018239974975585938,0.016057968139648438,0.02153754234313965
1761370370120344000,5.530343994140625,0.06720256805419922,0.0009589195251464844,0.03618884086608887
1761370370138956000,5.5489560546875,0.08240890502929688,-0.007548332214355469,0.048883795738220215
1761370370157566500,5.56756640625,0.013707637786865234,-0.013799190521240234,0.022369980812072754
1761370370176178400,5.586178466796875,-0.025180339813232422,-0.0021185874938964844,-0.01682150363922119
1761370370194788900,5.604788818359375,-0.00036525726318359375,0.028077125549316406,-0.024504899978637695
1761370370213400800,5.62340087890625,0.05037212371826172,0.035430908203125,-0.00283968448638916
1761370370232011300,5.64201123046875,0.07502508163452148,0.010085105895996094,0.016437172889709473
1761370370250623200,5.660623291015625,-0.0737919807434082,-0.03559160232543945,-0.0304490327835083
1761370370269233700,5.679233642578125,-0.12566041946411133,-0.038163185119628906,-0.05332624912261963
1761370370287845600,5.697845703125,-0.08642911911010742,-0.024953365325927734,-0.06636708974838257
1761370370306456000,5.7164560546875,-0.03959989547729492,0.009183883666992188,-0.10146313905715942
1761370370325068000,5.735068115234375,-0.03212928771972656,0.05442953109741211,-0.09989184141159058
1761370370343678500,5.753678466796875,-0.006722450256347656,0.037859439849853516,-0.07128620147705078
1761370370362290400,5.77229052734375,0.039237022399902344,0.01194906234741211,-0.04986971616744995
1761370370380900900,5.79090087890625,0.01685333251953125,0.011851310729980469,-0.06640827655792236
1761370370399512800,5.809512939453125,-0.006546974182128906,0.018578529357910156,-0.054460108280181885
1761370370418123300,5.828123291015625,-0.06226968765258789,0.0023984909057617188,-0.013544440269470215
1761370370436735200,5.8467353515625,-0.08929061889648438,-0.021492958068847656,0.11612963676452637
1761370370455345700,5.865345703125,-0.05285024642944336,-0.02084207534790039,0.21238934993743896
1761370370473957600,5.88395751953125,-0.003571033477783203,-0.008945465087890625,0.2553452253341675
1761370370492568000,5.902568115234375,0.061626434326171875,-0.03386402130126953,0.2742278575897217
1761370370511180000,5.921179931640625,0.10064125061035156,-0.004067420959472656,0.23088717460632324
1761370370529790500,5.93979052734375,0.04560565948486328,0.00958251953125,0.14240765571594238
1761370370548402400,5.95840234375,-0.03128337860107422,0.030805110931396484,-0.0033587217330932617
1761370370567012900,5.977012939453125,-0.03625965118408203,0.03550004959106445,-0.10989922285079956
1761370370585624800,5.995624755859375,-0.060143470764160156,0.02906179428100586,-0.16200172901153564
1761370370604235300,6.0142353515625,-0.02536773681640625,0.02117633819580078,-0.23194313049316406
1761370370622847200,6.03284716796875,0.03862142562866211,0.020438194274902344,-0.235956609249115
1761370370641457700,6.051457763671875,0.08289194107055664,-0.011916160583496094,-0.19968140125274658
1761370370660069600,6.070069580078125,0.037600040435791016,-0.012981891632080078,-0.16866934299468994
1761370370678680000,6.08868017578125,0.02157878875732422,0.012195110321044922,-0.1444060206413269
1761370370697292000,6.1072919921875,0.003620147705078125,0.015813350677490234,-0.0712820291519165
1761370370715902500,6.12590234375,-0.01127767562866211,0.0025353431701660156,0.0569610595703125
1761370370734514400,6.144514404296875,-0.0023560523986816406,-0.006206512451171875,0.17472422122955322
1761370370753124900,6.163124755859375,0.04049062728881836,0.018047332763671875,0.1471318006515503
1761370370771736800,6.18173681640625,0.0010309219360351562,0.051885128021240234,0.0497974157333374
1761370370790347300,6.20034716796875,-0.039762020111083984,0.022559165954589844,0.007193446159362793
1761370370808959200,6.218959228515625,-0.0708165168762207,-0.02540874481201172,0.008135199546813965
1761370370827569700,6.237569580078125,-0.1119227409362793,-0.057793617248535156,0.03145241737365723
1761370370846181600,6.256181640625,-0.10974884033203125,-0.04678535461425781,0.014829039573669434
1761370370864792000,6.2747919921875,-0.045703887939453125,-0.020752429962158203,-0.008178472518920898
1761370370883404000,6.293404052734375,0.07977485656738281,-0.0009984970092773438,0.023012876510620117
1761370370902014500,6.312014404296875,0.1701197624206543,-0.02189350128173828,0.06108736991882324
1761370370920626400,6.33062646484375,0.07430458068847656,-0.02232217788696289,0.009749054908752441
1761370370939236900,6.34923681640625,0.0022306442260742188,0.008619308471679688,-0.07050132751464844
1761370370957848800,6.367848876953125,0.03778839111328125,-0.022171497344970703,-0.046558380126953125
1761370370976459300,6.386459228515625,0.03060770034790039,-0.04143333435058594,0.017902016639709473
1761370370995071200,6.4050712890625,-0.08411693572998047,-0.0332493782043457,0.001381993293762207
1761370371013681700,6.423681640625,-0.04651832580566406,0.008082389831542969,-0.015835046768188477
1761370371032293600,6.442293701171875,0.011097431182861328,0.033675193786621094,-0.0166395902633667
1761370371050904000,6.460904052734375,0.0087738037109375,0.022864818572998047,0.02216625213623047
1761370371069516000,6.47951611328125,-0.03542137145996094,0.007624149322509766,0.02701854705810547
1761370371088126200,6.498126220703125,-0.0719304084777832,0.017825603485107422,-0.00932157039642334
1761370371106738400,6.516738525390625,-0.06689882278442383,-0.0031075477600097656,-0.02111685276031494
1761370371125348600,6.5353486328125,-0.016294002532958984,-0.021601200103759766,0.03917419910430908
1761370371143960800,6.5539609375,0.06995248794555664,-0.014691829681396484,0.09196805953979492
1761370371162571000,6.572571044921875,0.0775761604309082,-0.007313728332519531,0.06564629077911377
1761370371181183000,6.591182861328125,0.08641862869262695,-0.018157005310058594,0.03138720989227295
1761370371199793400,6.60979345703125,0.05140352249145508,-0.006154060363769531,0.0258481502532959
1761370371218405400,6.6284052734375,0.027193546295166016,0.0007872581481933594,0.01738893985748291
1761370371237015800,6.647015869140625,0.008878707885742188,-0.016605377197265625,0.010739564895629883
1761370371255627800,6.665627685546875,-0.10061264038085938,-0.027858257293701172,0.025978803634643555
1761370371274238200,6.68423828125,-0.11268091201782227,-0.01536417007446289,0.02561032772064209
1761370371292850200,6.70285009765625,0.01289987564086914,-0.007511615753173828,0.03670823574066162
1761370371311460600,6.721460693359375,0.11216497421264648,-0.01304006576538086,0.06481635570526123
1761370371330072600,6.740072509765625,0.06983184814453125,-0.0018897056579589844,0.06875407695770264
1761370371348683000,6.75868310546875,-0.02263164520263672,0.006875514984130859,0.03917253017425537
1761370371367295000,6.777294921875,-0.012357234954833984,0.004683971405029297,0.017408013343811035
1761370371385905400,6.795905517578125,0.00942373275756836,0.016524791717529297,0.04045426845550537
1761370371404517400,6.814517333984375,0.014641284942626953,0.0224761962890625,0.0969390869140625
1761370371423127800,6.8331279296875,0.04343128204345703,0.010622501373291016,0.17333900928497314
1761370371441739800,6.85173974609375,0.09860944747924805,-0.015399456024169922,0.1445530652999878
1761370371460350200,6.87035009765625,0.06680583953857422,-0.007554531097412109,0.03776538372039795
1761370371478962200,6.888962158203125,-0.04779958724975586,-0.019776344299316406,-0.07783854007720947
1761370371497572600,6.907572509765625,-0.090484619140625,-0.01701831817626953,-0.10203397274017334
1761370371516184600,6.9261845703125,-0.06379270553588867,-0.009810447692871094,-0.05454301834106445
1761370371534795000,6.944794921875,-0.0387110710144043,0.005225181579589844,-0.009225130081176758
1761370371553407000,6.963406982421875,0.04918622970581055,-0.0021524429321289062,0.034702420234680176
1761370371572017400,6.982017333984375,0.10956478118896484,0.013155937194824219,0.06833934783935547
1761370371590629400,7.00062939453125,0.09236383438110352,0.03305673599243164,0.0312572717666626
1761370371609239800,7.01923974609375,-0.024082660675048828,0.014376163482666016,0.03861236572265625
1761370371627851800,7.037851806640625,-0.029303550720214844,-0.02003192901611328,0.025439739227294922
1761370371646462200,7.056462158203125,-0.05295848846435547,-0.002193927764892578,-0.003208756446838379
1761370371665074200,7.07507421875,-0.08595132827758789,0.022792816162109375,-0.03898322582244873
1761370371683684600,7.0936845703125,-0.055468082427978516,0.022228240966796875,-0.049271583557128906
1761370371702296600,7.112296630859375,0.018348217010498047,-0.003815174102783203,-0.01654958724975586
1761370371720907000,7.130906982421875,0.032047271728515625,-0.0039577484130859375,0.026498913764953613
1761370371739519000,7.14951904296875,0.013216018676757812,-0.016798973083496094,0.06735503673553467
1761370371758129400,7.16812939453125,-0.0207977294921875,0.0004892349243164062,0.025375008583068848
1761370371776741400,7.186741455078125,-0.046998023986816406,-0.00292205810546875,0.009160876274108887
1761370371795351800,7.205351806640625,-0.017339706420898438,-0.00743865966796875,0.03919482231140137
1761370371813963800,7.2239638671875,0.04668903350830078,-0.009830474853515625,0.08943331241607666
1761370371832574200,7.24257421875,0.046477317810058594,0.007312297821044922,0.10281336307525635
1761370371851186200,7.261186279296875,0.0125579833984375,-0.008404254913330078,0.09321904182434082
1761370371869796600,7.279796630859375,0.03689718246459961,-0.027549266815185547,0.058891892433166504
1761370371888408600,7.29840869140625,0.10880661010742188,0.01897907257080078,0.08783936500549316
1761370371907019000,7.31701904296875,0.0018138885498046875,0.009563922882080078,-0.01785290241241455
1761370371925631000,7.335630859375,-0.10043668746948242,-0.02545022964477539,-0.0708543062210083
1761370371944241400,7.354241455078125,-0.1647796630859375,-0.0022225379943847656,-0.09758782386779785
1761370371962853400,7.372853271484375,-0.11484527587890625,-0.03757953643798828,-0.10223078727722168
1761370371981463800,7.3914638671875,-0.06563663482666016,-0.03754997253417969,-0.07625329494476318
1761370372000075800,7.41007568359375,-0.11250495910644531,-0.0006012916564941406,-0.09943115711212158
1761370372018686200,7.428686279296875,-0.05660104751586914,-0.005640983581542969,-0.05675041675567627
1761370372037298200,7.447298095703125,0.018085956573486328,-0.019074440002441406,0.01020801067352295
1761370372055908600,7.46590869140625,0.04671478271484375,-0.019417285919189453,0.03320443630218506
1761370372074520600,7.4845205078125,0.025589942932128906,0.005763053894042969,0.029350876808166504
1761370372093131000,7.503131103515625,0.04706144332885742,0.03233957290649414,0.026098251342773438
1761370372111743000,7.521742919921875,0.0803685188293457,0.027092933654785156,0.03538393974304199
1761370372130353400,7.540353515625,0.04350471496582031,0.004431247711181641,0.09303271770477295
1761370372148965400,7.55896533203125,-0.05277061462402344,-0.01555490493774414,0.1093977689743042
1761370372167575800,7.577575927734375,-0.07669401168823242,-0.04120492935180664,0.09531247615814209
1761370372186187800,7.596187744140625,-0.0116119384765625,-0.011780261993408203,0.01758277416229248
1761370372204798200,7.614798095703125,0.06333494186401367,0.03213357925415039,-0.030187010765075684
1761370372223410200,7.63341015625,0.015205860137939453,0.05065155029296875,-0.05264627933502197
1761370372242020600,7.6520205078125,-0.042784690856933594,0.012779712677001953,-0.03769481182098389
1761370372260632600,7.670632568359375,-0.010485172271728516,-0.018424510955810547,0.028391718864440918
1761370372279243000,7.689242919921875,0.0657963752746582,-0.008013248443603516,0.06335890293121338
1761370372297855000,7.70785498046875,0.06875753402709961,-0.00042819976806640625,0.08460760116577148
1761370372316465400,7.72646533203125,0.05196094512939453,0.011827945709228516,0.039099693298339844
1761370372335077400,7.745077392578125,0.055350303649902344,0.028285980224609375,0.03105008602142334
1761370372353687800,7.763687744140625,0.042577266693115234,0.061939239501953125,-0.04861307144165039
1761370372372299800,7.7822998046875,-0.0514521598815918,0.011457443237304688,-0.060640811920166016
1761370372390910200,7.80091015625,-0.12437152862548828,0.0010561943054199219,-0.05806410312652588
1761370372409522200,7.819522216796875,-0.10507869720458984,-0.001316070556640625,0.012649893760681152
1761370372428132600,7.838132568359375,-0.03102397918701172,0.0017905235290527344,-0.007447719573974609
1761370372446744600,7.85674462890625,0.005145549774169922,0.03536415100097656,-0.07904791831970215
1761370372465355000,7.87535498046875,-0.01835012435913086,0.023770809173583984,-0.04908597469329834
1761370372483967000,7.893967041015625,-0.026992321014404297,-0.005639076232910156,-0.006826996803283691
1761370372502577400,7.912577392578125,-0.02380514144897461,-0.006171226501464844,0.009734630584716797
1761370372521189400,7.931189453125,0.005110263824462891,0.013672828674316406,-0.017852187156677246
1761370372539799800,7.9497998046875,0.024132728576660156,0.0025081634521484375,0.002893209457397461
1761370372558411800,7.968411865234375,-0.00652313232421875,-0.010476112365722656,-0.007172584533691406
1761370372577022200,7.987022216796875,-0.06249189376831055,0.0014286041259765625,-0.004512310028076172
1761370372595634200,8.00563427734375,-0.030820369720458984,-0.0008001327514648438,0.01994788646697998
1761370372614244600,8.02424462890625,-0.021142959594726562,0.00853109359741211,-0.0030291080474853516
1761370372632856600,8.042856689453124,-0.06364774703979492,0.03668498992919922,-0.03899943828582764
1761370372651467000,8.061467041015625,-0.06332921981811523,0.00875091552734375,-0.020819902420043945
1761370372670079000,8.080078857421874,-0.03064870834350586,-0.029541015625,0.017468929290771484
1761370372688689400,8.098689453125,-0.04355621337890625,-0.022362232208251953,-0.006830811500549316
1761370372707301400,8.11730126953125,-0.04651594161987305,-0.0016551017761230469,-0.019579291343688965
1761370372725911800,8.135911865234375,-0.01939535140991211,0.00006198883056640625,-0.01761794090270996
1761370372744523800,8.154523681640624,0.032379150390625,-0.007834911346435547,0.020163774490356445
1761370372763134200,8.17313427734375,0.003094196319580078,0.015838623046875,-0.008813142776489258
1761370372781746200,8.19174609375,0.07061147689819336,0.03797578811645508,-0.004328489303588867
1761370372800356600,8.210356689453125,0.10187387466430664,0.016518115997314453,0.01831841468811035
1761370372818968600,8.228968505859376,0.06199502944946289,0.013013839721679688,-0.001638174057006836
1761370372837579000,8.2475791015625,0.10948514938354492,0.017363548278808594,-0.04377031326293945
1761370372856191000,8.26619091796875,0.16170644760131836,0.04099082946777344,-0.06012243032455444
1761370372874801400,8.284801513671875,0.15365028381347656,-0.027309417724609375,0.15585088729858398
1761370372893413400,8.303413330078126,0.08792781829833984,-0.05037498474121094,0.2259122133255005
1761370372912023800,8.32202392578125,-0.1034698486328125,-0.06687688827514648,0.17227888107299805
1761370372930635800,8.3406357421875,-0.15071630477905273,-0.06200122833251953,0.036712646484375
1761370372949246200,8.35924609375,-0.16377878189086914,-0.000621795654296875,-0.08405119180679321
1761370372967858200,8.377858154296876,-0.12013006210327148,-0.003922462463378906,-0.0713648796081543
1761370372986468600,8.396468505859374,-0.0633249282836914,-0.009844779968261719,-0.027896106243133545
1761370373005080600,8.41508056640625,-0.05175065994262695,-0.002670764923095703,0.00887751579284668
1761370373023691000,8.43369091796875,0.0101776123046875,-0.004310131072998047,0.007213234901428223
1761370373042303000,8.452302978515625,0.03520536422729492,-0.024802684783935547,0.008426666259765625
1761370373060913400,8.470913330078124,0.04081296920776367,-0.03959226608276367,0.03214740753173828
1761370373079525400,8.489525390625,0.04420137405395508,-0.045022010803222656,0.053228139877319336
1761370373098135800,8.5081357421875,0.015067100524902344,-0.03686809539794922,0.037799715995788574
1761370373116747800,8.526747802734375,-0.006052970886230469,-0.0171356201171875,0.008869171142578125
1761370373135358200,8.545358154296874,0.02013254165649414,0.0298919677734375,-0.03107762336730957
1761370373153970200,8.56397021484375,0.012693405151367188,0.03103160858154297,-0.028766751289367676
1761370373172580600,8.58258056640625,-0.017966747283935547,0.020885944366455078,-0.01144862174987793
1761370373191192600,8.601192626953125,-0.015553951263427734,-0.02614307403564453,-0.011502385139465332
1761370373209803000,8.619802978515626,-0.04694080352783203,0.004376888275146484,-0.03195101022720337
1761370373228415000,8.6384150390625,-0.03660011291503906,0.01690530776977539,0.011786341667175293
1761370373247025400,8.657025390625,-0.0041751861572265625,0.008847236633300781,0.10103011131286621
1761370373265637400,8.675637451171875,0.0016674995422363281,-0.024624347686767578,0.20026445388793945
1761370373284247800,8.694247802734376,0.09674072265625,-0.03469419479370117,0.22051310539245605
1761370373302859800,8.71285986328125,0.1060018539428711,0.011329174041748047,0.10625731945037842
1761370373321470200,8.73147021484375,0.04583120346069336,-0.002872943878173828,0.0000896453857421875
1761370373340082200,8.750082275390625,0.03207588195800781,-0.016434669494628906,-0.06945747137069702
1761370373358692600,8.768692626953126,0.04242849349975586,-0.02012014389038086,-0.0629834532737732
1761370373377304600,8.7873046875,-0.0035796165466308594,-0.014834403991699219,-0.0481339693069458
1761370373395915000,8.8059150390625,-0.04367685317993164,-0.041324615478515625,-0.04692244529724121
1761370373414527000,8.82452685546875,-0.02525949478149414,-0.014088153839111328,-0.08701455593109131
1761370373433137400,8.843137451171875,0.05584001541137695,0.011833667755126953,-0.04020804166793823
1761370373451749400,8.861749267578125,0.07929086685180664,0.02162027359008789,0.00040209293365478516
1761370373470359800,8.88035986328125,0.056571006774902344,0.0016679763793945312,-0.003814697265625
1761370373488971800,8.8989716796875,0.03321647644042969,-0.02101278305053711,0.02282083034515381
1761370373507582200,8.917582275390625,-0.0594940185546875,-0.010144710540771484,-0.0009001493453979492
1761370373526194200,8.936194091796875,-0.10137033462524414,-0.011734962463378906,-0.017876625061035156
1761370373544804600,8.9548046875,-0.0946044921875,-0.004711151123046875,0.009963512420654297
1761370373563416600,8.97341650390625,-0.06089925765991211,-0.031768798828125,0.08100152015686035
1761370373582027000,8.992027099609375,-0.021633148193359375,-0.01807689666748047,0.11562240123748779
1761370373600639000,9.010638916015624,0.014086723327636719,0.02514934539794922,0.08953166007995605
1761370373619249400,9.02924951171875,0.02577495574951172,0.06854009628295898,0.08252358436584473
1761370373637861400,9.047861328125,0.04981803894042969,0.04096698760986328,0.058965206146240234
1761370373656471800,9.066471923828125,0.046259403228759766,-0.033806800842285156,0.08954787254333496
1761370373675083800,9.085083740234374,0.043637752532958984,-0.06719684600830078,0.07178783416748047
1761370373693694200,9.103694091796875,0.04842185974121094,-0.0021314620971679688,-0.04778832197189331
1761370373712306200,9.12230615234375,0.006603240966796875,0.04708242416381836,-0.14119768142700195
1761370373730916600,9.14091650390625,-0.03235578536987305,0.053933143615722656,-0.1581413745880127
1761370373749528600,9.159528564453124,-0.01171112060546875,0.007683753967285156,-0.07278609275817871
1761370373768139000,9.178138916015625,-0.0009298324584960938,-0.004230499267578125,0.01585698127746582
1761370373786751000,9.1967509765625,-0.026172161102294922,0.01949930191040039,0.02788090705871582
1761370373805361400,9.215361328125,0.019577503204345703,0.049330711364746094,0.07965755462646484
1761370373823973400,9.233973388671876,0.12334012985229492,0.02900552749633789,0.10033845901489258
1761370373842583800,9.252583740234375,0.09028911590576172,0.0071811676025390625,0.04025828838348389
1761370373861195800,9.27119580078125,0.01483917236328125,0.003964900970458984,-0.04243016242980957
1761370373879806200,9.28980615234375,-0.07978057861328125,0.027785301208496094,-0.1181098222732544
1761370373898418200,9.308418212890626,-0.10499095916748047,0.00842428207397461,-0.11789840459823608
1761370373917028600,9.327028564453125,-0.09580850601196289,0.0005478858947753906,-0.07254242897033691
1761370373935640600,9.345640625,-0.02440643310546875,-0.023304462432861328,-0.02695012092590332
1761370373954251000,9.3642509765625,0.08263015747070312,-0.005105495452880859,-0.020927786827087402
1761370373972863000,9.382863037109376,0.04946136474609375,0.022994518280029297,-0.0832173228263855
1761370373991473400,9.401473388671874,-0.033788204193115234,-0.00027942657470703125,-0.07430815696716309
1761370374010085400,9.42008544921875,-0.02399158477783203,-0.0038504600524902344,-0.013631224632263184
1761370374028695800,9.43869580078125,0.002318859100341797,-0.04284477233886719,0.016843318939208984
1761370374047307800,9.457307861328125,-0.026103496551513672,-0.017292022705078125,0.033979058265686035
1761370374065918200,9.475918212890624,-0.06873941421508789,0.0018148422241210938,0.032917141914367676
1761370374084530200,9.4945302734375,-0.03632307052612305,-0.020644664764404297,0.0008317232131958008
1761370374103140600,9.513140625,0.055939674377441406,0.0019092559814453125,0.03999507427215576
1761370374121752600,9.531752685546875,0.06637144088745117,0.012896060943603516,0.06774520874023438
1761370374140363000,9.550363037109374,0.07847261428833008,0.028890609741210938,0.027920842170715332
1761370374158975000,9.56897509765625,-0.012473106384277344,0.002670764923095703,0.04111647605895996
1761370374177585400,9.58758544921875,0.007424831390380859,-0.0033941268920898438,0.010514616966247559
1761370374196197400,9.606197265625,0.01764202117919922,-0.028653621673583984,-0.02516806125640869
1761370374214807800,9.624807861328126,-0.005960941314697266,-0.002556324005126953,-0.03934180736541748
1761370374233419800,9.643419677734375,0.01774311065673828,-0.009743690490722656,-0.002478957176208496
1761370374252030200,9.6620302734375,0.033709049224853516,-0.028048992156982422,0.039011359214782715
1761370374270642200,9.68064208984375,0.0661916732788086,0.023157119750976562,0.028574347496032715
1761370374289252400,9.69925244140625,0.024021625518798828,-0.030652523040771484,0.06704592704772949
1761370374307864600,9.717864501953125,-0.012643814086914062,-0.0008521080017089844,0.08105170726776123
1761370374326474800,9.736474853515626,-0.02498626708984375,0.02836132049560547,0.014918088912963867
1761370374345087000,9.7550869140625,0.009715557098388672,0.040270328521728516,0.017039775848388672
1761370374363697200,9.773697265625,-0.005434513092041016,0.0024857521057128906,0.04268598556518555
1761370374382309400,9.792309326171875,-0.03645896911621094,-0.013394832611083984,0.04028904438018799
1761370374400919600,9.81091943359375,-0.0366826057434082,-0.016486167907714844,0.012904644012451172
1761370374419531500,9.829531494140625,-0.021040916442871094,0.0020933151245117188,-0.05179482698440552
1761370374438142000,9.848141845703125,0.024901866912841797,0.010422706604003906,-0.058212220668792725
1761370374456754000,9.86675390625,-0.024036407470703125,0.002200603485107422,-0.029019594192504883
1761370374475364400,9.8853642578125,-0.011279582977294922,-0.014530658721923828,-0.010989069938659668
1761370374493976300,9.903976318359375,0.022324562072753906,-0.01029062271118164,-0.0038766860961914062
1761370374512586800,9.922586669921875,-0.003517627716064453,-0.00892496109008789,-0.03400218486785889
1761370374531198700,9.94119873046875,-0.03759765625,-0.016927242279052734,-0.0718880295753479
1761370374549809200,9.95980908203125,-0.0803837776184082,0.0018458366394042969,-0.11147218942642212
1761370374568421000,9.978421142578124,-0.06849336624145508,0.03457021713256836,-0.13287043571472168
1761370374587031600,9.997031494140625,-0.03381967544555664,0.038239479064941406,-0.06532156467437744
1761370374605643500,10.0156435546875,0.02545452117919922,-0.030356884002685547,0.04722487926483154
1761370374624254000,10.03425390625,0.06675863265991211,0.011831283569335938,0.0581660270690918
1761370374642866000,10.052865966796874,0.12193775177001953,0.020771026611328125,0.040700554847717285
1761370374661476400,10.071476318359375,-0.0014204978942871094,0.07922792434692383,-0.022447526454925537
1761370374680088300,10.09008837890625,-0.07906818389892578,0.02014303207397461,-0.027911007404327393
1761370374698698800,10.10869873046875,0.0015721321105957031,-0.056536197662353516,-0.02029883861541748
1761370374717310700,10.127310791015624,-0.021502017974853516,-0.07869863510131836,-0.021324217319488525
1761370374735921200,10.145921142578125,-0.05618762969970703,-0.11693000793457031,0.037209510803222656
1761370374754533000,10.164533203125,-0.09620285034179688,-0.06551265716552734,0.09712111949920654
1761370374773143600,10.1831435546875,-0.07653665542602539,0.027867794036865234,0.07675039768218994
1761370374791755500,10.201755615234376,0.0025730133056640625,0.0764927864074707,0.04725325107574463
1761370374810366000,10.220365966796875,0.0424494743347168,0.09216833114624023,0.032070040702819824
1761370374828978000,10.23897802734375,-0.0027709007263183594,0.07007932662963867,0.054267287254333496
1761370374847588400,10.25758837890625,-0.02563190460205078,0.025118350982666016,0.1033862829208374
1761370374866200300,10.276200439453126,-0.02935647964477539,-0.041370391845703125,0.10126948356628418
1761370374884810800,10.294810791015625,0.027747154235839844,-0.030808448791503906,0.076194167137146
1761370374903422700,10.313422607421876,0.06056928634643555,0.017386436462402344,0.01582920551300049
1761370374922033200,10.332033203125,0.01136016845703125,0.005440711975097656,0.007371068000793457
1761370374940645000,10.35064501953125,-0.05298805236816406,0.011002540588378906,-0.027328670024871826
1761370374959255600,10.369255615234374,-0.024512767791748047,0.0031561851501464844,-0.05403488874435425
1761370374977867300,10.3878671875,-0.02055835723876953,-0.004206657409667969,-0.03029578924179077
1761370374996478000,10.40647802734375,-0.016767501831054688,0.012119293212890625,-0.014730453491210938
1761370375015089700,10.425089599609375,0.05324125289916992,0.07174921035766602,-0.08924990892410278
1761370375033700400,10.443700439453124,0.11766290664672852,0.0018229484558105469,0.06458759307861328
1761370375052312000,10.46231201171875,0.08011245727539062,-0.0017347335815429688,0.12147927284240723
1761370375070922500,10.480922607421874,0.06667137145996094,0.02357339859008789,-0.009332060813903809
1761370375089534500,10.499534423828125,-0.12769412994384766,0.01123189926147461,-0.04638153314590454
1761370375108145000,10.518144775390626,-0.21514081954956055,-0.012166023254394531,-0.12360435724258423
1761370375126756900,10.5367568359375,-0.17819547653198242,-0.019619464874267578,-0.2111203670501709
1761370375145367300,10.5553671875,-0.1435384750366211,-0.0028276443481445312,-0.15650993585586548
1761370375163979300,10.573979248046875,-0.15075922012329102,-0.016628742218017578,-0.08620041608810425
1761370375182589700,10.592589599609376,0.05291891098022461,-0.06661033630371094,-0.026089191436767578
1761370375201201700,10.61120166015625,0.15589189529418945,0.020800113677978516,-0.020307421684265137
1761370375219812000,10.62981201171875,0.013415336608886719,0.0028085708618164062,-0.027549266815185547
1761370375238424000,10.648424072265625,-0.07138824462890625,0.0616307258605957,0.05956697463989258
1761370375257034500,10.667034423828126,-0.013447761535644531,0.04462766647338867,0.003131389617919922
1761370375275646500,10.685646484375,0.023553848266601562,0.08965730667114258,-0.15974193811416626
1761370375294257000,10.7042568359375,-0.05436134338378906,0.06548881530761719,-0.2580416798591614
1761370375312868900,10.722868896484375,-0.04977893829345703,-0.17501592636108398,-0.20872652530670166
1761370375331479300,10.741479248046875,0.04310131072998047,-0.2404775619506836,0.04526817798614502
1761370375350091300,10.76009130859375,-0.14856243133544922,-0.0869607925415039,0.13781273365020752
1761370375368701700,10.77870166015625,-0.2449803352355957,-0.007513999938964844,0.18967044353485107
1761370375387313700,10.797313720703125,-0.1447606086730957,0.018929481506347656,0.024688124656677246
1761370375405924000,10.815924072265625,0.08708333969116211,0.34990835189819336,0.032158851623535156
1761370375424536000,10.8345361328125,0.441098690032959,0.17934608459472656,0.14757084846496582
1761370375443146500,10.853146484375,0.37636613845825195,-0.026166915893554688,0.22846579551696777
1761370375461758700,10.8717587890625,-0.08970403671264648,-0.03935718536376953,0.18819749355316162
1761370375480369200,10.890369140625,-0.35164642333984375,-0.06820011138916016,0.16341102123260498
1761370375498981000,10.908981201171875,-0.2121877670288086,-0.022552490234375,0.24104666709899902
1761370375517591300,10.92759130859375,0.41698694229125977,-0.042224884033203125,0.21704185009002686
1761370375536203500,10.94620361328125,0.42060375213623047,0.11248111724853516,0.07949912548065186
1761370375554813700,10.964813720703125,-0.013891220092773438,0.1612381935119629,-0.10461175441741943
1761370375573425700,10.98342578125,-0.20014333724975586,0.04215288162231445,-0.014505386352539062
1761370375592036000,11.0020361328125,-0.03661823272705078,-0.06920719146728516,0.07406473159790039
1761370375610648000,11.02064794921875,0.009190082550048828,-0.04165077209472656,0.03699946403503418
1761370375629258500,11.039258544921875,0.022240638732910156,-0.020442962646484375,-0.059036970138549805
1761370375647870500,11.057870361328124,0.04232358932495117,0.008679389953613281,0.0005772113800048828
1761370375666481000,11.07648095703125,0.042218685150146484,-0.013964176177978516,0.054192423820495605
1761370375685092900,11.0950927734375,0.11385393142700195,-0.009549140930175781,0.10022151470184326
1761370375703703300,11.113703369140625,0.17150163650512695,0.009937763214111328,0.08370745182037354
1761370375722315300,11.132315185546876,0.11283111572265625,-0.03037548065185547,0.05686986446380615
1761370375740925700,11.15092578125,0.16862058639526367,-0.11705255508422852,-0.08632993698120117
1761370375759537700,11.16953759765625,-0.28342151641845703,0.09384584426879883,-0.21960800886154175
1761370375778148000,11.188148193359375,-0.31228208541870117,0.08727312088012695,0.020977377891540527
1761370375796760000,11.206760009765626,-0.09995603561401367,0.010509014129638672,0.22433972358703613
1761370375815370500,11.22537060546875,0.018557071685791016,-0.13214731216430664,0.1826695203781128
1761370375833982500,11.243982421875,-0.05062580108642578,-0.034909725189208984,0.03777670860290527
1761370375852593000,11.262593017578125,-0.028200626373291016,-0.02004384994506836,-0.2578064799308777
