time,seconds_elapsed,z,y,x
1761370731453685200,0.186685302734375,-0.41945362091064453,0.019954681396484375,-0.10840195417404175
1761370731472296000,0.2052958984375,-0.29895448684692383,-0.04575920104980469,-0.11839956045150757
1761370731490908400,0.223908447265625,-0.0778961181640625,0.043860435485839844,-0.1625496745109558
1761370731509519400,0.242519287109375,0.01007080078125,-0.025510787963867188,-0.1728392243385315
1761370731528131800,0.2611318359375,0.017323017120361328,0.09048271179199219,-0.4158160090446472
1761370731546742500,0.279742431640625,0.08123445510864258,0.11501693725585938,-0.3612028956413269
1761370731565355000,0.29835498046875,0.15016555786132812,0.04379081726074219,-0.18875455856323242
1761370731583966000,0.316966064453125,0.4170355796813965,-0.0066852569580078125,0.11949282884597778
1761370731602578200,0.335578125,0.7582025527954102,0.015208244323730469,0.35435396432876587
1761370731621189000,0.354189208984375,0.6547756195068359,0.021079063415527344,0.352133572101593
1761370731639801600,0.372801513671875,0.16321277618408203,0.10335540771484375,0.2957208752632141
1761370731658412500,0.39141259765625,-0.2779226303100586,0.0052700042724609375,0.20376527309417725
1761370731677024800,0.410024658203125,-0.5161895751953125,0.02748394012451172,0.05760151147842407
1761370731695635700,0.4286357421875,-0.5300230979919434,-0.08280372619628906,-0.17335820198059082
1761370731714248200,0.447248291015625,-0.39237499237060547,-0.14202308654785156,-0.2505859136581421
1761370731732859000,0.46585888671875,-0.31912899017333984,-0.17254924774169922,-0.1658654808998108
1761370731751471400,0.484471435546875,-0.5187249183654785,-0.1141510009765625,-0.1080217957496643
1761370731770082300,0.503082275390625,-0.6666898727416992,-0.0656900405883789,-0.06446683406829834
1761370731788694800,0.52169482421875,-0.8899683952331543,-0.00022411346435546875,-0.17528533935546875
1761370731807305500,0.540305419921875,-0.6765027046203613,0.08245563507080078,-0.29089486598968506
1761370731825918000,0.55891796875,-0.10926437377929688,0.10494327545166016,-0.3508048951625824
1761370731844529000,0.57752880859375,0.40395545959472656,0.08211517333984375,-0.3371228873729706
1761370731863141400,0.596141357421875,0.6253604888916016,0.009097099304199219,-0.24038559198379517
1761370731881752000,0.614751953125,0.5381879806518555,0.027238845825195312,-0.1066809892654419
1761370731900364500,0.633364501953125,0.31636667251586914,0.044663429260253906,0.020962774753570557
1761370731918975500,0.6519755859375,0.17594003677368164,0.0799551010131836,0.08714109659194946
1761370731937588000,0.670587890625,0.09287023544311523,-0.0053157806396484375,0.13239723443984985
1761370731956198700,0.68919873046875,-0.25936317443847656,-0.08384323120117188,0.1611364483833313
1761370731974811100,0.70781103515625,-0.4607830047607422,-0.0737152099609375,0.20184075832366943
1761370731993422000,0.726422119140625,-0.45992183685302734,-0.05801200866699219,0.17756396532058716
1761370732012034300,0.745034423828125,-0.3900456428527832,-0.05710601806640625,0.17823153734207153
1761370732030645200,0.763645263671875,-0.28797388076782227,-0.07422542572021484,0.17567163705825806
1761370732049257700,0.7822578125,-0.1090536117553711,-0.03168964385986328,0.23021447658538818
1761370732067868700,0.80086865234375,0.07931995391845703,0.005809783935546875,0.1568753719329834
1761370732086481000,0.81948095703125,0.21576881408691406,0.056481361389160156,0.08452445268630981
1761370732105091800,0.838091796875,0.19946622848510742,0.051987648010253906,-0.0630156397819519
1761370732123704300,0.856704345703125,0.10672998428344727,0.01854705810546875,-0.10353434085845947
1761370732142315300,0.875315185546875,0.04789447784423828,-0.009133338928222656,-0.10705757141113281
1761370732160927500,0.893927490234375,0.025846481323242188,-0.030977249145507812,-0.12701469659805298
1761370732179538400,0.912538330078125,0.004595279693603516,-0.04471874237060547,-0.05971759557723999
1761370732198151000,0.93115087890625,-0.05881977081298828,-0.010894775390625,0.04480177164077759
1761370732216761900,0.949761962890625,0.0652003288269043,0.03729724884033203,0.15468287467956543
1761370732235374300,0.968374267578125,0.2694835662841797,0.03351783752441406,0.1378675103187561
1761370732253985000,0.986985107421875,0.279449462890625,0.01897716522216797,0.12080109119415283
1761370732272597500,1.005597412109375,0.05309152603149414,0.013195037841796875,0.021232545375823975
1761370732291208400,1.02420849609375,-0.12849664688110352,0.044750213623046875,-0.12863659858703613
1761370732309820700,1.042820556640625,-0.22630023956298828,-0.010678291320800781,-0.14427417516708374
1761370732328431600,1.061431640625,-0.26172637939453125,-0.05955219268798828,-0.013443410396575928
1761370732347044000,1.080044189453125,-0.25570154190063477,-0.031894683837890625,0.14120012521743774
1761370732365655000,1.098655029296875,-0.12476205825805664,-0.024474143981933594,0.2553362250328064
1761370732384267500,1.117267578125,0.008150577545166016,0.005604743957519531,0.27094846963882446
1761370732402878200,1.135878173828125,0.02126598358154297,-0.0034694671630859375,0.23444616794586182
1761370732421490700,1.15449072265625,-0.003223419189453125,0.011145591735839844,0.1718481183052063
1761370732440101600,1.1731015625,0.011051177978515625,0.013266563415527344,0.11593759059906006
1761370732458714000,1.191714111328125,0.030416011810302734,-0.004023551940917969,0.07611143589019775
1761370732477324800,1.21032470703125,0.017405986785888672,-0.0048313140869140625,0.04459118843078613
1761370732495937300,1.228937255859375,-0.01859760284423828,0.0035829544067382812,0.031186044216156006
1761370732514548200,1.24754833984375,-0.00665283203125,0.037690162658691406,-0.016225695610046387
1761370732533160400,1.266160400390625,0.14914751052856445,0.03191375732421875,-0.008453965187072754
1761370732551771400,1.284771484375,0.17534494400024414,0.028586387634277344,0.0017524361610412598
1761370732570384000,1.3033837890625,0.039155006408691406,0.031187057495117188,-0.019709229469299316
1761370732588994800,1.321994873046875,-0.03474903106689453,0.02045154571533203,-0.004843294620513916
1761370732607607300,1.340607177734375,-0.07258224487304688,-0.0013875961303710938,-0.08558166027069092
1761370732626218000,1.359218017578125,-0.1008920669555664,-0.030706405639648438,-0.13904613256454468
1761370732644830500,1.37783056640625,-0.08047866821289062,-0.018604278564453125,-0.161310076713562
1761370732663441400,1.39644140625,-0.08757495880126953,-0.00354766845703125,-0.15977859497070312
1761370732682054000,1.415053955078125,-0.07262945175170898,0.012065887451171875,-0.10225218534469604
1761370732700664600,1.43366455078125,-0.07561731338500977,-0.0003261566162109375,-0.03841191530227661
1761370732719277000,1.452277099609375,-0.09406280517578125,-0.015786170959472656,-0.011945605278015137
1761370732737888000,1.470887939453125,-0.021649837493896484,-0.016138076782226562,0.015189290046691895
1761370732756500500,1.48950048828125,0.0466160774230957,-0.010068893432617188,0.011014699935913086
1761370732775111200,1.508111083984375,0.04637479782104492,-0.018988609313964844,0.1272907853126526
1761370732793723600,1.5267236328125,0.07294178009033203,0.022850990295410156,0.12983638048171997
1761370732812334600,1.54533447265625,0.05514383316040039,0.02515888214111328,0.04019474983215332
1761370732830947000,1.563947021484375,0.000946044921875,0.02046680450439453,-0.02340078353881836
1761370732849557800,1.582557861328125,0.0045909881591796875,0.00879669189453125,-0.009407520294189453
1761370732868170200,1.601170166015625,0.029349803924560547,0.011416435241699219,-0.028571903705596924
1761370732886781200,1.61978125,0.01641368865966797,0.020536422729492188,-0.09356492757797241
1761370732905393700,1.6383935546875,-0.0010738372802734375,0.008617401123046875,-0.09691160917282104
1761370732924004400,1.65700439453125,0.019161224365234375,-0.01643085479736328,-0.08803367614746094
1761370732942616800,1.675616943359375,-0.02709341049194336,-0.044936180114746094,-0.016473591327667236
1761370732961227800,1.694227783203125,-0.07779836654663086,-0.02259063720703125,0.014811515808105469
1761370732979840300,1.71284033203125,-0.08169364929199219,-0.004974365234375,0.06072145700454712
1761370732998451000,1.731450927734375,-0.00945901870727539,0.010127067565917969,0.11420118808746338
1761370733017063400,1.7500634765625,0.07237386703491211,0.01734638214111328,0.06523102521896362
1761370733035674400,1.76867431640625,0.09932374954223633,0.009122848510742188,-0.04220736026763916
1761370733054286800,1.787286865234375,0.06819343566894531,-0.027034759521484375,-0.0480266809463501
1761370733072897500,1.8058974609375,0.028757095336914062,-0.031241416931152344,0.006712138652801514
1761370733091510000,1.824510009765625,0.025464534759521484,-0.007172584533691406,0.046943068504333496
1761370733110121000,1.843120849609375,0.04882049560546875,-0.019629478454589844,0.10164916515350342
1761370733128733400,1.8617333984375,0.03500795364379883,-0.037109375,0.142284095287323
1761370733147344100,1.88034423828125,0.052715301513671875,0.004150390625,0.1428489089012146
1761370733165956600,1.89895654296875,0.06346893310546875,0.03601551055908203,0.03450322151184082
1761370733184567600,1.917567626953125,0.03560352325439453,0.010117530822753906,-0.027490735054016113
1761370733203180000,1.936179931640625,-0.023742198944091797,-0.03139972686767578,-0.02078402042388916
1761370733221790700,1.954790771484375,-0.0829157829284668,-0.010044097900390625,-0.08790463209152222
1761370733240403200,1.9734033203125,-0.04124927520751953,0.009389877319335938,-0.08460670709609985
1761370733259014100,1.99201416015625,0.09249353408813477,0.037215232849121094,-0.08426207304000854
1761370733277626600,2.010626708984375,0.15397167205810547,0.03233909606933594,0.0012303590774536133
1761370733296237300,2.0292373046875,0.10574626922607422,0.03325176239013672,0.03370779752731323
1761370733314849800,2.047849853515625,0.056153297424316406,-0.018197059631347656,0.02778947353363037
1761370733333460700,2.066460693359375,-0.07440948486328125,-0.04611015319824219,0.04856985807418823
1761370733352073200,2.0850732421875,-0.17318010330200195,-0.09927558898925781,0.1388651728630066
1761370733370684000,2.103683837890625,-0.16911697387695312,-0.06507110595703125,0.08550232648849487
1761370733389296400,2.12229638671875,-0.12089395523071289,-0.014328956604003906,-0.05045253038406372
1761370733407907300,2.1409072265625,-0.05695629119873047,-0.02753925323486328,-0.06671708822250366
1761370733426519800,2.159519775390625,0.009117603302001953,-0.011689186096191406,0.0031995773315429688
1761370733445130500,2.178130615234375,0.11130666732788086,0.033440589904785156,-0.023425817489624023
1761370733463743000,2.196742919921875,0.1233057975769043,0.03598785400390625,-0.07999259233474731
1761370733482354000,2.21535400390625,0.0809621810913086,-0.0020875930786132812,-0.04433029890060425
1761370733500966400,2.23396630859375,0.08538293838500977,-0.027649879455566406,0.12167513370513916
1761370733519577000,2.2525771484375,0.11204195022583008,0.02581024169921875,0.09687459468841553
1761370733538189600,2.271189453125,0.09835100173950195,0.04306221008300781,0.03084087371826172
1761370733556800500,2.289800537109375,0.011793136596679688,0.023639678955078125,-0.007947862148284912
1761370733575413000,2.3084130859375,-0.09632396697998047,-0.010614395141601562,-0.03812938928604126
1761370733594023700,2.327023681640625,-0.07406854629516602,-0.005133628845214844,-0.05451035499572754
1761370733612636200,2.34563623046875,-0.03921985626220703,0.023645401000976562,-0.07036465406417847
1761370733631247000,2.3642470703125,-0.01219940185546875,0.0441741943359375,-0.05692487955093384
1761370733649859600,2.382859619140625,0.04035329818725586,0.03302955627441406,-0.05715787410736084
1761370733668470300,2.40147021484375,0.07147359848022461,0.00070953369140625,-0.08516937494277954
1761370733687082800,2.420082763671875,0.00888681411743164,-0.012317657470703125,-0.09891468286514282
1761370733705693700,2.438693603515625,-0.04721355438232422,-0.022068023681640625,-0.09392315149307251
1761370733724306200,2.45730615234375,-0.0631251335144043,-0.028090476989746094,-0.031196773052215576
1761370733742916900,2.475916748046875,-0.07752037048339844,-0.0353851318359375,0.09591042995452881
1761370733761529300,2.494529296875,-0.057150840759277344,0.0022764205932617188,0.17335939407348633
1761370733780140300,2.513140380859375,-0.04710960388183594,0.001129150390625,0.13345521688461304
1761370733798752800,2.531752685546875,-0.06829643249511719,0.000476837158203125,0.11237502098083496
1761370733817363700,2.55036376953125,-0.09265708923339844,-0.0065593719482421875,0.05290067195892334
1761370733835976000,2.568975830078125,-0.12770652770996094,-0.009674072265625,-0.04486960172653198
1761370733854587000,2.5875869140625,-0.09859514236450195,-0.0016984939575195312,-0.04495692253112793
1761370733873199400,2.606199462890625,0.007868289947509766,0.0019636154174804688,0.07382869720458984
1761370733891810300,2.624810302734375,0.15224981307983398,-0.005335807800292969,0.1288737654685974
1761370733910422500,2.643422607421875,0.13362360000610352,-0.00936126708984375,0.13218194246292114
1761370733929033500,2.662033447265625,0.0632162094116211,-0.004361152648925781,0.12263649702072144
1761370733947646000,2.68064599609375,0.04634857177734375,0.025778770446777344,0.023234069347381592
1761370733966257000,2.6992568359375,0.025992393493652344,0.0009183883666992188,-0.07352834939956665
1761370733984869000,2.717869140625,-0.06888151168823242,-0.024939537048339844,-0.10057848691940308
1761370734003480000,2.73647998046875,-0.13441038131713867,-0.053238868713378906,-0.0675123929977417
1761370734022092500,2.755092529296875,-0.10239982604980469,-0.03441143035888672,-0.09728461503982544
1761370734040703500,2.773703369140625,-0.016623973846435547,-0.015619277954101562,-0.08877289295196533
1761370734059315700,2.792315673828125,0.02279806137084961,-0.011738777160644531,-0.008606791496276855
1761370734077926700,2.8109267578125,0.0361943244934082,0.005306243896484375,0.03586655855178833
1761370734096539100,2.8295390625,0.06615638732910156,0.018880844116210938,-0.01819932460784912
1761370734115150000,2.848150146484375,0.039424896240234375,0.03184795379638672,-0.11588656902313232
1761370734133762300,2.86676220703125,-0.014826297760009766,0.0028791427612304688,-0.10178714990615845
1761370734152373200,2.885373291015625,-0.00688934326171875,0.019573211669921875,-0.03705710172653198
1761370734170985700,2.90398583984375,0.05039787292480469,0.05377388000488281,-0.08884066343307495
1761370734189596700,2.9225966796875,0.041716575622558594,0.02774333953857422,-0.11374443769454956
1761370734208209000,2.941208984375,-0.008028507232666016,-0.007031440734863281,-0.0524258017539978
1761370734226819800,2.95981982421875,-0.0352015495300293,-0.005251884460449219,0.008300602436065674
1761370734245432300,2.978432373046875,-0.0832223892211914,-0.005730628967285156,-0.007236838340759277
1761370734264043300,2.997043212890625,-0.1260385513305664,0.013131141662597656,-0.0509679913520813
1761370734282655700,3.01565576171875,-0.1650681495666504,-0.0017995834350585938,-0.058594584465026855
1761370734301266400,3.034266357421875,-0.141143798828125,0.019788742065429688,-0.04254025220870972
1761370734319879000,3.05287890625,-0.08748579025268555,0.02159881591796875,-0.017287373542785645
1761370734338489900,3.07148974609375,0.04117774963378906,0.014873504638671875,0.105857253074646
1761370734357102300,3.090102294921875,0.09476995468139648,-0.0369110107421875,0.1852942705154419
1761370734375713300,3.10871337890625,0.07761573791503906,0.016216278076171875,0.1053076982498169
1761370734394325500,3.127325439453125,0.1355447769165039,0.09092521667480469,0.019605517387390137
1761370734412936400,3.1459365234375,0.2978224754333496,0.06768321990966797,0.008768618106842041
1761370734431549000,3.164548828125,0.3395366668701172,0.015099525451660156,-0.012002885341644287
1761370734450159600,3.18315966796875,0.11220645904541016,-0.06267929077148438,0.07459712028503418
1761370734468772000,3.201772216796875,-0.06037282943725586,-0.008029937744140625,0.14351332187652588
1761370734487383000,3.220383056640625,-0.0902261734008789,0.034516334533691406,0.06925404071807861
1761370734505995500,3.23899560546875,-0.03769254684448242,0.017242431640625,-0.0014565587043762207
1761370734524606500,3.2576064453125,-0.06771516799926758,-0.035182952880859375,-0.028110504150390625
1761370734543218700,3.27621875,-0.1961383819580078,-0.06335735321044922,-0.008393168449401855
1761370734561829600,3.29482958984375,-0.2665257453918457,-0.04131603240966797,-0.02404087781906128
1761370734580442000,3.313442138671875,-0.22988367080688477,0.011198043823242188,-0.07164806127548218
1761370734599053000,3.332052978515625,-0.11106395721435547,0.017060279846191406,-0.02756422758102417
1761370734617665500,3.35066552734375,0.024547576904296875,0.0064754486083984375,0.09035944938659668
1761370734636276200,3.369276123046875,0.09462165832519531,-0.000507354736328125,0.1765575408935547
1761370734654888700,3.387888671875,0.11562871932983398,0.02604198455810547,0.1510339379310608
1761370734673499600,3.406499755859375,0.06970024108886719,-0.007842063903808594,0.1003117561340332
1761370734692112100,3.425112060546875,-0.024385929107666016,-0.014203071594238281,0.06356137990951538
1761370734710722800,3.443722900390625,-0.07269096374511719,0.0016460418701171875,0.012662529945373535
1761370734729335300,3.462335205078125,-0.07467269897460938,0.029438018798828125,-0.023798882961273193
1761370734747946200,3.4809462890625,-0.0923624038696289,-0.019639015197753906,0.01327812671661377
1761370734766558700,3.499558837890625,-0.09304952621459961,-0.03728675842285156,0.007426083087921143
1761370734785169400,3.51816943359375,-0.01534891128540039,-0.0068531036376953125,-0.0626949667930603
1761370734803782000,3.536781982421875,0.08384895324707031,-0.01715373992919922,-0.00998997688293457
1761370734822392800,3.555392822265625,0.19865846633911133,-0.02399921417236328,0.037136077880859375
1761370734841005300,3.57400537109375,0.2576942443847656,-0.002620697021484375,0.05214810371398926
1761370734859616300,3.5926162109375,0.23734283447265625,0.015368461608886719,0.07702773809432983
1761370734878228500,3.611228515625,0.18235397338867188,-0.012186050415039062,0.11355394124984741
1761370734896839400,3.62983935546875,0.07381772994995117,-0.015115737915039062,0.05339580774307251
1761370734915452000,3.648451904296875,-0.06120777130126953,-0.0019092559814453125,-0.13704735040664673
1761370734934062800,3.667062744140625,-0.17060089111328125,0.024008750915527344,-0.26431727409362793
1761370734952675000,3.685675048828125,-0.1887040138244629,0.021209716796875,-0.20957350730895996
1761370734971286000,3.7042861328125,-0.14162540435791016,0.0015010833740234375,-0.07038766145706177
1761370734989898500,3.7228984375,-0.11041402816772461,-0.0021419525146484375,0.03591090440750122
1761370735008509400,3.741509521484375,0.031003475189208984,-0.0028352737426757812,0.1562827229499817
1761370735027121700,3.76012158203125,0.23497581481933594,0.027434349060058594,0.168809175491333
1761370735045732600,3.778732666015625,0.34653186798095703,0.041255950927734375,0.06364983320236206
1761370735064345000,3.797344970703125,0.25858163833618164,0.030988693237304688,0.009875893592834473
1761370735082956000,3.8159560546875,0.16923189163208008,0.022187232971191406,-0.06903791427612305
1761370735101568300,3.834568359375,0.0446314811706543,-0.0010585784912109375,-0.14553618431091309
1761370735120179200,3.85317919921875,-0.06389760971069336,-0.03267383575439453,-0.15618765354156494
1761370735138791700,3.871791748046875,-0.16553401947021484,-0.060133934020996094,-0.13545620441436768
1761370735157402600,3.890402587890625,-0.2582406997680664,-0.058338165283203125,-0.10798174142837524
1761370735176015000,3.90901513671875,-0.2121410369873047,-0.023332595825195312,-0.12452483177185059
1761370735194625800,3.927625732421875,-0.09515810012817383,-0.006960868835449219,-0.11261475086212158
1761370735213238300,3.94623828125,-0.04749774932861328,-0.030664443969726562,-0.048550188541412354
1761370735231849200,3.96484912109375,-0.06256675720214844,-0.034348487854003906,0.04201775789260864
1761370735250461700,3.983461669921875,-0.0466456413269043,0.033196449279785156,0.04023236036300659
1761370735269072400,4.002072265625,0.05746316909790039,0.06790924072265625,0.04171788692474365
1761370735287684900,4.020684814453125,0.16795921325683594,0.05019187927246094,-0.002510368824005127
1761370735306295800,4.0392958984375,0.14661264419555664,-0.01719188690185547,0.024497270584106445
1761370735324908300,4.057908203125,0.057164669036865234,-0.036055564880371094,0.06654214859008789
1761370735343519200,4.076519287109375,0.0054264068603515625,-0.012201309204101562,0.06067246198654175
1761370735362131500,4.09513134765625,0.0728764533996582,-0.006076812744140625,0.031204521656036377
1761370735380741600,4.11374169921875,0.01581573486328125,0.012884140014648438,-0.01619654893875122
1761370735399353900,4.132353759765625,-0.16176795959472656,0.013194084167480469,-0.03399372100830078
1761370735417964800,4.15096484375,-0.19890117645263672,-0.023779869079589844,0.04964566230773926
1761370735436577300,4.169577392578125,-0.04280662536621094,-0.012265205383300781,0.10841584205627441
1761370735455188200,4.188188232421875,0.04349565505981445,0.010050773620605469,0.050921499729156494
1761370735473800400,4.206800537109375,0.05293464660644531,0.0405731201171875,0.020393729209899902
1761370735492411400,4.225411376953125,0.10529756546020508,0.043602943420410156,0.07819420099258423
1761370735511023900,4.24402392578125,0.13791799545288086,0.011784553527832031,0.054313838481903076
1761370735529634800,4.262634765625,0.054930686950683594,-0.011079788208007812,-0.01402890682220459
1761370735548247000,4.2812470703125,-0.09402751922607422,0.0050868988037109375,-0.11430525779724121
1761370735566858000,4.29985791015625,-0.1262669563293457,0.02028369903564453,-0.11258906126022339
1761370735585470500,4.318470458984375,-0.03710174560546875,0.00047397613525390625,-0.05100107192993164
1761370735604081400,4.337081298828125,0.021766185760498047,-0.024044036865234375,0.01895815134048462
1761370735622694000,4.35569384765625,0.02851104736328125,-0.0040454864501953125,0.03872382640838623
1761370735641304600,4.3743046875,-0.009250164031982422,0.03134727478027344,-0.02287447452545166
1761370735659917000,4.3929169921875,-0.04800224304199219,0.04463481903076172,-0.0978742241859436
1761370735678528000,4.411528076171875,-0.05107545852661133,-0.009901046752929688,-0.04452061653137207
1761370735697140500,4.430140380859375,-0.03856992721557617,-0.036362648010253906,-0.032052695751190186
1761370735715751200,4.448751220703125,-0.0010933876037597656,-0.035836219787597656,-0.023108184337615967
1761370735734363600,4.46736376953125,-0.014099597930908203,-0.044684410095214844,-0.0007340908050537109
1761370735752974600,4.485974609375,-0.017456531524658203,-0.015623092651367188,0.04475855827331543
1761370735771587000,4.504587158203125,0.0021195411682128906,0.0242156982421875,0.06266427040100098
1761370735790197800,4.52319775390625,0.016586780548095703,0.032375335693359375,0.0730891227722168
1761370735808810200,4.541810302734375,0.08311271667480469,0.016145706176757812,0.13307499885559082
1761370735827421200,4.560421142578125,0.105133056640625,-0.007977485656738281,0.1197502613067627
1761370735846033700,4.57903369140625,0.03180885314941406,-0.048259735107421875,0.02515512704849243
1761370735864644400,4.597644287109375,-0.0360417366027832,-0.03386402130126953,-0.01556539535522461
1761370735883256800,4.6162568359375,-0.1427292823791504,-0.03284931182861328,0.0007331967353820801
1761370735901867800,4.63486767578125,-0.1526780128479004,-0.00022029876708984375,-0.011773288249969482
1761370735920480300,4.653480224609375,-0.0850672721862793,0.037468910217285156,0.006412386894226074
1761370735939091000,4.672091064453125,-0.0013380050659179688,0.04588031768798828,0.008911609649658203
1761370735957703400,4.690703369140625,0.029153823852539062,-0.00019741058349609375,0.018704771995544434
1761370735976314400,4.709314453125,-0.010954856872558594,-0.01870441436767578,0.11313784122467041
1761370735994926800,4.7279267578125,-0.026659011840820312,0.02653789520263672,0.13338911533355713
1761370736013537800,4.746537841796875,-0.003979206085205078,0.05110359191894531,0.10913610458374023
1761370736032150000,4.76514990234375,-0.032326698303222656,0.03670978546142578,0.08674347400665283
1761370736050761000,4.783760986328125,-0.09291553497314453,-0.009575843811035156,0.07956582307815552
1761370736069373400,4.80237353515625,-0.09418296813964844,-0.02303314208984375,0.07278656959533691
1761370736087984400,4.820984375,-0.0666508674621582,0.008900642395019531,0.0009713172912597656
1761370736106596600,4.8395966796875,-0.04530477523803711,0.01681232452392578,-0.021916508674621582
1761370736125207600,4.85820751953125,0.060416221618652344,-0.02746295928955078,-0.03034377098083496
1761370736143820000,4.876820068359375,0.09455013275146484,-0.01769542694091797,-0.04744696617126465
1761370736162431000,4.895430908203125,0.0045013427734375,0.016828536987304688,-0.12406569719314575
1761370736181043200,4.914043212890625,-0.10073995590209961,0.030588150024414062,-0.17176198959350586
1761370736199654100,4.932654052734375,-0.022397518157958984,-0.022353172302246094,-0.05536419153213501
1761370736218266600,4.9512666015625,0.1375722885131836,-0.04305744171142578,0.0435638427734375
1761370736236877600,4.969877685546875,0.2539396286010742,-0.009706497192382812,0.09434974193572998
1761370736255490000,4.988489990234375,0.21505975723266602,-0.010985374450683594,0.05041545629501343
1761370736274100700,5.007100830078125,0.12229537963867188,-0.0232696533203125,0.025892138481140137
1761370736292713200,5.025713134765625,0.016439437866210938,-0.0167083740234375,-0.025897443294525146
1761370736311324200,5.04432421875,-0.1320934295654297,0.03528404235839844,-0.12372612953186035
1761370736329936600,5.0629365234375,-0.20456314086914062,0.033924102783203125,-0.12273448705673218
1761370736348547300,5.08154736328125,-0.14440631866455078,0.013219833374023438,-0.08608216047286987
1761370736367159800,5.100159912109375,-0.08285379409790039,0.0007658004760742188,-0.12519103288650513
1761370736385770800,5.118770751953125,-0.11599349975585938,-0.010469436645507812,-0.12003105878829956
1761370736404383200,5.13738330078125,-0.11029720306396484,-0.01043701171875,-0.11752539873123169
1761370736422994000,5.155993896484375,-0.019594669342041016,0.0041103363037109375,-0.11742621660232544
1761370736441606400,5.1746064453125,0.09246397018432617,0.012830734252929688,-0.08566540479660034
1761370736460217300,5.19321728515625,0.10885763168334961,0.0040721893310546875,-0.012530088424682617
1761370736478829800,5.211829833984375,0.0651555061340332,0.004105567932128906,0.05500352382659912
1761370736497440800,5.230440673828125,0.014548301696777344,0.01290130615234375,0.047422707080841064
1761370736516053000,5.249052978515625,-0.0299530029296875,0.012318611145019531,0.014613687992095947
1761370736534664000,5.267663818359375,0.02993154525756836,0.009143829345703125,-0.016055703163146973
1761370736553276400,5.2862763671875,0.006765842437744141,-0.015109062194824219,-0.002895951271057129
1761370736571887400,5.304887451171875,-0.10305309295654297,-0.012146949768066406,0.053393423557281494
1761370736590499600,5.32349951171875,-0.11586713790893555,0.003945350646972656,0.13147658109664917
1761370736609110500,5.342110595703125,-0.010514259338378906,-0.021986961364746094,0.1343281865119934
1761370736627723000,5.360722900390625,0.08483123779296875,-0.019265174865722656,0.16546446084976196
1761370736646334000,5.379333984375,0.05742979049682617,0.007588386535644531,0.09178590774536133
1761370736664946200,5.3979462890625,0.013257503509521484,-0.008679389953613281,-0.0005102753639221191
1761370736683557000,5.41655712890625,-0.020010948181152344,-0.03160285949707031,-0.027222514152526855
1761370736702169600,5.435169677734375,-0.06022787094116211,-0.034264564514160156,-0.02343648672103882
1761370736720780500,5.453780517578125,-0.034717559814453125,-0.012966156005859375,-0.015728890895843506
1761370736739392800,5.472392822265625,0.029340744018554688,0.007844924926757812,-0.03473794460296631
1761370736758003700,5.491003662109375,0.10889387130737305,0.006287574768066406,0.0002646446228027344
1761370736776616200,5.5096162109375,0.12998056411743164,0.007823944091796875,0.044078290462493896
1761370736795227100,5.52822705078125,0.030004024505615234,-0.0007724761962890625,0.04978734254837036
1761370736813839600,5.546839599609375,-0.12233448028564453,0.03431415557861328,-0.005881011486053467
1761370736832450600,5.565450439453125,-0.10823869705200195,0.018228530883789062,-0.02991044521331787
1761370736851062800,5.584062744140625,-0.0655975341796875,0.019622802734375,0.04149806499481201
1761370736869673700,5.602673828125,0.008608341217041016,0.013585090637207031,0.09402275085449219
1761370736888286200,5.6212861328125,0.03660154342651367,0.03258228302001953,-0.019002914428710938
1761370736906897200,5.639897216796875,0.00075531005859375,0.020776748657226562,-0.09846562147140503
1761370736925509400,5.65850927734375,0.010676860809326172,-0.032469749450683594,-0.08330148458480835
1761370736944120300,5.677120361328125,0.023004531860351562,-0.023637771606445312,-0.08395141363143921
1761370736962732800,5.69573291015625,-0.025533676147460938,-0.00327301025390625,-0.026971161365509033
1761370736981343700,5.71434375,0.016211509704589844,-0.009347915649414062,0.08500194549560547
1761370736999956000,5.7329560546875,0.06659317016601562,0.0122833251953125,0.131103515625
1761370737018567000,5.75156689453125,0.08411121368408203,0.017983436584472656,0.0956571102142334
1761370737037179400,5.770179443359375,0.02068471908569336,0.015521049499511719,0.058075129985809326
1761370737055790300,5.788790283203125,-0.07131576538085938,-0.007266998291015625,0.028377056121826172
1761370737074402600,5.807402587890625,-0.08559417724609375,-0.009092330932617188,-0.023351967334747314
1761370737093013500,5.826013427734375,-0.02372455596923828,-0.026365280151367188,-0.021244168281555176
1761370737111626000,5.8446259765625,0.038565635681152344,-0.01514434814453125,0.024879395961761475
1761370737130237000,5.86323681640625,0.07586956024169922,0.03060436248779297,0.033917248249053955
1761370737148849400,5.881849365234375,0.15543889999389648,0.04828357696533203,0.010761678218841553
1761370737167460400,5.90046044921875,0.1840658187866211,0.030878067016601562,-0.01960688829421997
1761370737186072600,5.919072509765625,0.022832393646240234,-0.01793670654296875,-0.03214317560195923
1761370737204683500,5.93768359375,-0.19281816482543945,-0.024234771728515625,-0.031391680240631104
1761370737223296000,5.9562958984375,-0.2583746910095215,-0.018770217895507812,-0.03131258487701416
1761370737241907000,5.974906982421875,-0.15933942794799805,0.0023775100708007812,-0.04935657978057861
1761370737260519200,5.993519287109375,-0.03118133544921875,0.0041522979736328125,-0.11579406261444092
1761370737279130000,6.012130126953125,-0.020804405212402344,-0.008836746215820312,-0.06770598888397217
1761370737297742600,6.03074267578125,-0.0244140625,0.023111343383789062,-0.0300256609916687
1761370737316353500,6.049353515625,0.027934551239013672,0.053839683532714844,-0.08127284049987793
1761370737334965800,6.0679658203125,0.09156990051269531,0.04528999328613281,-0.0987861156463623
1761370737353576700,6.08657666015625,0.09648418426513672,0.02681255340576172,-0.06512773036956787
1761370737372189200,6.105189208984375,0.043715476989746094,-0.012470245361328125,-0.014810740947723389
1761370737390800100,6.123800048828125,0.06797552108764648,-0.04579639434814453,0.012172877788543701
1761370737409412400,6.142412353515625,0.05539131164550781,-0.01592540740966797,0.01735907793045044
1761370737428023300,6.161023193359375,0.003657817840576172,0.0057086944580078125,0.027155816555023193
1761370737446635800,6.1796357421875,0.006411075592041016,0.0018815994262695312,0.10930705070495605
1761370737465246700,6.198246826171875,0.15207862854003906,0.0021266937255859375,0.15408265590667725
1761370737483859200,6.216859130859375,0.195892333984375,-0.013764381408691406,0.08752328157424927
1761370737502470100,6.23547021484375,0.018843650817871094,-0.007213592529296875,-0.016259491443634033
1761370737521082400,6.254082275390625,-0.22913885116577148,-0.02750110626220703,-0.06234121322631836
1761370737539693300,6.272693359375,-0.32293272018432617,-0.059645652770996094,-0.01731497049331665
1761370737558305800,6.291305908203125,-0.13779640197753906,-0.037140846252441406,-0.03860640525817871
1761370737576916700,6.309916748046875,0.029436111450195312,-0.011244773864746094,-0.10364961624145508
1761370737595529000,6.328529052734375,0.015279769897460938,-0.007848739624023438,-0.12137466669082642
1761370737614140000,6.347139892578125,-0.05919981002807617,-0.020455360412597656,-0.0253981351852417
1761370737632752400,6.36575244140625,-0.0294189453125,-0.020273208618164062,0.07054311037063599
1761370737651363300,6.38436328125,0.03713703155517578,0.028026580810546875,0.07005590200424194
1761370737669975600,6.4029755859375,0.04398679733276367,0.03213977813720703,-0.006626725196838379
1761370737688586500,6.42158642578125,0.020584583282470703,0.017462730407714844,-0.007209062576293945
1761370737707199000,6.440198974609375,-0.016850948333740234,0.015778541564941406,-0.005740046501159668
1761370737725810000,6.458809814453125,-0.030486583709716797,0.02623462677001953,0.0010899901390075684
1761370737744422100,6.477422119140625,0.0006690025329589844,0.0015926361083984375,0.09843575954437256
1761370737763033000,6.496033203125,0.050230979919433594,-0.008981704711914062,0.1695614457130432
1761370737781645600,6.5146455078125,0.024396419525146484,-0.017350196838378906,0.15923935174942017
1761370737800256500,6.533256591796875,-0.02836894989013672,-0.006815910339355469,0.11606484651565552
1761370737818869000,6.551868896484375,-0.1058955192565918,-0.005541801452636719,0.06494003534317017
1761370737837480000,6.57047998046875,-0.12384510040283203,-0.03586101531982422,0.09680444002151489
1761370737856092200,6.589092041015625,-0.05899858474731445,-0.029245376586914062,0.08458608388900757
1761370737874703000,6.607703125,-0.06210660934448242,-0.02955341339111328,0.0016846656799316406
1761370737893315600,6.626315673828125,-0.08690690994262695,-0.015139579772949219,-0.048615336418151855
1761370737911926500,6.644926513671875,-0.048928260803222656,-0.04492473602294922,-0.03253293037414551
1761370737930538800,6.663538818359375,0.017427444458007812,-0.026497840881347656,0.020251035690307617
1761370737949149700,6.682149658203125,0.0726461410522461,-0.013744354248046875,0.046253502368927
1761370737967762200,6.70076220703125,0.11253881454467773,0.023834228515625,0.04949396848678589
1761370737986373000,6.719373046875,0.14791059494018555,0.019502639770507812,0.006622493267059326
1761370738004985300,6.7379853515625,0.1774306297302246,-0.018891334533691406,0.07134383916854858
1761370738023596300,6.75659619140625,0.0983724594116211,-0.013085365295410156,0.12487584352493286
1761370738042208800,6.775208740234375,-0.02783060073852539,0.013703346252441406,0.04788631200790405
1761370738060819700,6.79381982421875,-0.1124258041381836,0.022294044494628906,-0.08702266216278076
1761370738079432200,6.81243212890625,-0.10072708129882812,0.0064182281494140625,-0.1326119303703308
1761370738098043000,6.83104296875,-0.10285758972167969,-0.03545856475830078,-0.04146885871887207
1761370738116655400,6.8496552734375,-0.019575119018554688,-0.023833274841308594,0.031239628791809082
1761370738135266300,6.868266357421875,0.016208648681640625,0.020277023315429688,0.024062395095825195
1761370738153878800,6.886878662109375,0.04721403121948242,0.08327579498291016,-0.0027893781661987305
1761370738172489700,6.90548974609375,0.04587984085083008,0.06413745880126953,-0.006768941879272461
1761370738191102000,6.92410205078125,0.008005142211914062,0.04307842254638672,0.019504964351654053
1761370738209713000,6.942712890625,0.0016694068908691406,0.041731834411621094,0.05684906244277954
1761370738228325400,6.961325439453125,0.051380157470703125,0.0852518081665039,0.06388813257217407
1761370738246936300,6.979936279296875,0.1289653778076172,0.09152412414550781,0.13668113946914673
1761370738265548500,6.998548583984375,0.2362227439880371,0.060013771057128906,0.30317288637161255
1761370738284159500,7.017159423828125,0.2612905502319336,0.048736572265625,0.4304298162460327
1761370738302772000,7.03577197265625,0.16434478759765625,0.050299644470214844,0.3295971155166626
1761370738321383000,7.0543828125,-0.0069255828857421875,0.024698257446289062,0.1455751657485962
1761370738339995100,7.0729951171875,-0.17715120315551758,0.013048171997070312,-0.06161689758300781
1761370738358606000,7.091606201171875,-0.19423866271972656,0.0583953857421875,-0.15977942943572998
1761370738377218600,7.110218505859375,-0.03781270980834961,0.07046794891357422,-0.20573300123214722
1761370738395829500,7.12882958984375,0.10768365859985352,0.04844188690185547,-0.2018679976463318
1761370738414441700,7.147441650390625,0.15399599075317383,-0.03156089782714844,-0.13197553157806396
1761370738433052700,7.166052734375,0.11147403717041016,-0.08608150482177734,-0.1048203706741333
1761370738451665200,7.1846650390625,-0.03813648223876953,-0.09781169891357422,-0.15967994928359985
1761370738470276000,7.203276123046875,-0.18233060836791992,-0.07762908935546875,-0.30265551805496216
1761370738488888600,7.221888671875,-0.22545242309570312,-0.04358196258544922,-0.42727410793304443
1761370738507499500,7.24049951171875,-0.2083268165588379,-0.03617286682128906,-0.4621964991092682
1761370738526111700,7.25911181640625,-0.2668938636779785,-0.03948020935058594,-0.4244331419467926
1761370738544722700,7.27772265625,-0.2853860855102539,-0.049927711486816406,-0.37396830320358276
1761370738563335200,7.296335205078125,-0.15450525283813477,-0.04259490966796875,-0.3024650812149048
1761370738581946000,7.314946044921875,-0.04920673370361328,-0.05937004089355469,-0.17905139923095703
1761370738600558300,7.333558349609375,0.05139350891113281,-0.0439300537109375,-0.013799190521240234
1761370738619169300,7.352169189453125,0.18854141235351562,-0.0038366317749023438,0.25700128078460693
1761370738637781800,7.37078173828125,0.3262786865234375,-0.044033050537109375,0.3876587152481079
1761370738656392700,7.389392822265625,0.37168407440185547,-0.07748222351074219,0.42376434803009033
1761370738675005000,7.4080048828125,0.3246908187866211,-0.07296466827392578,0.35592949390411377
1761370738693615900,7.426615966796875,0.34658002853393555,-0.04565620422363281,0.26836252212524414
1761370738712228400,7.445228271484375,0.20831871032714844,-0.024164199829101562,0.17163294553756714
1761370738730839300,7.46383935546875,-0.08092594146728516,0.005488395690917969,0.050398409366607666
1761370738749451500,7.482451416015625,-0.2685256004333496,0.008695602416992188,-0.04325670003890991
1761370738768062500,7.5010625,-0.2778811454772949,-0.03382110595703125,-0.09309464693069458
1761370738786675000,7.519675048828125,-0.17221736907958984,-0.025320053100585938,-0.08285588026046753
1761370738805286000,7.538285888671875,-0.029561519622802734,-0.03236579895019531,-0.09692078828811646
1761370738823898400,7.5568984375,0.11383676528930664,-0.016195297241210938,-0.027387678623199463
1761370738842509000,7.575509033203125,0.15233612060546875,0.011922836303710938,0.05739760398864746
1761370738861121500,7.59412158203125,0.1144094467163086,0.023679733276367188,0.11731672286987305
1761370738879732500,7.612732421875,0.055405616760253906,-0.007361412048339844,0.14619868993759155
1761370738898345000,7.631344970703125,0.014872074127197266,-0.03758525848388672,0.1540500521659851
1761370738916955600,7.64995556640625,0.013527393341064453,-0.02958202362060547,0.08901441097259521
1761370738935568100,7.668568115234375,-0.012808799743652344,-0.013100624084472656,-0.03830826282501221
1761370738954179000,7.687178955078125,-0.10698699951171875,-0.026680946350097656,-0.03276669979095459
1761370738972791600,7.70579150390625,-0.1585240364074707,-0.021381378173828125,0.03397578001022339
1761370738991402500,7.724402587890625,-0.05920839309692383,0.00409698486328125,-0.006070077419281006
1761370739010014700,7.7430146484375,0.08601617813110352,0.037944793701171875,0.0003819465637207031
1761370739028625700,7.761625732421875,0.14442920684814453,0.06700801849365234,0.07043814659118652
1761370739047238100,7.780238037109375,0.18233013153076172,0.06765174865722656,0.09817051887512207
1761370739065849000,7.79884912109375,0.20803260803222656,0.02181529998779297,0.15554195642471313
1761370739084461300,7.81746142578125,0.1713414192199707,-0.011137962341308594,0.16273152828216553
1761370739103072300,7.836072265625,0.06802701950073242,-0.018988609313964844,0.12543386220932007
1761370739121684700,7.854684814453125,-0.06674623489379883,-0.010235786437988281,0.06544196605682373
1761370739140295400,7.87329541015625,-0.0908045768737793,0.017271995544433594,0.012594878673553467
1761370739158908000,7.891907958984375,-0.03998374938964844,0.03936576843261719,-0.04110288619995117
1761370739177518800,7.910518798828125,0.0025467872619628906,0.03676605224609375,-0.11042702198028564
1761370739196131300,7.92913134765625,-0.06355667114257812,0.02707672119140625,-0.08672547340393066
1761370739214742300,7.9477421875,-0.11712837219238281,0.03727436065673828,-0.1357460618019104
1761370739233354500,7.9663544921875,-0.04915046691894531,0.04107856750488281,-0.19119513034820557
1761370739251965400,7.98496533203125,0.06349420547485352,0.03037738800048828,-0.16357481479644775
1761370739270578000,8.003577880859375,0.06868553161621094,0.03801918029785156,-0.14180439710617065
1761370739289188900,8.02218896484375,-0.010302066802978516,0.005677223205566406,-0.1300966739654541
1761370739307801000,8.040801025390625,-0.04814577102661133,0.0034990310668945312,-0.08177381753921509
1761370739326412000,8.059412109375,-0.034137725830078125,0.018364906311035156,-0.10811007022857666
1761370739345024500,8.0780244140625,-0.055905818939208984,0.025585174560546875,-0.11197596788406372
1761370739363635500,8.096635498046876,-0.15471601486206055,0.0007085800170898438,-0.019262611865997314
1761370739382247700,8.11524755859375,-0.1734919548034668,-0.009669303894042969,0.1135980486869812
1761370739400858600,8.133858642578126,-0.003586292266845703,-0.026078224182128906,0.15450185537338257
1761370739419471000,8.15247119140625,0.14939165115356445,-0.053277015686035156,0.18073999881744385
1761370739438082000,8.17108203125,0.13282442092895508,-0.03939628601074219,0.20414364337921143
1761370739456694500,8.189694580078125,0.07470273971557617,-0.027435302734375,0.23958861827850342
1761370739475305200,8.20830517578125,0.061982154846191406,0.034562110900878906,0.1791037917137146
1761370739493917700,8.226917724609375,0.018384933471679688,0.01871776580810547,0.10482686758041382
1761370739512528600,8.245528564453124,-0.01881551742553711,-0.008236885070800781,0.09536945819854736
1761370739531140900,8.264140869140626,-0.02460479736328125,-0.01987934112548828,0.06472611427307129
1761370739549751800,8.282751708984375,-0.05240583419799805,-0.02599811553955078,0.02499711513519287
1761370739568364300,8.3013642578125,-0.05721616744995117,-0.00287628173828125,-0.029367387294769287
1761370739586975200,8.319975341796875,-0.08178997039794922,-0.02408123016357422,-0.06315958499908447
1761370739605587500,8.33858740234375,-0.08803701400756836,-0.036591529846191406,-0.02723449468612671
1761370739624198400,8.357198486328125,-0.06726789474487305,-0.04095172882080078,0.04537856578826904
1761370739642811000,8.375810791015626,-0.014638423919677734,-0.007936477661132812,0.01842600107192993
1761370739661421800,8.394421875,0.0019330978393554688,0.02117156982421875,-0.018709123134613037
1761370739680034300,8.413034423828124,-0.01431417465209961,0.035053253173828125,-0.04738187789916992
1761370739698645000,8.43164501953125,0.016685009002685547,0.034481048583984375,-0.07530218362808228
1761370739717257500,8.450257568359374,-0.03526163101196289,0.015353202819824219,-0.12206798791885376
1761370739735868400,8.468868408203125,-0.11287593841552734,-0.0019845962524414062,-0.10831767320632935
1761370739754481000,8.48748095703125,-0.0612950325012207,-0.038125038146972656,0.011007487773895264
1761370739773091600,8.506091552734375,0.04883861541748047,-0.017185211181640625,0.020241737365722656
1761370739791704000,8.5247041015625,0.043999671936035156,0.00032901763916015625,0.03845030069351196
1761370739810315000,8.54331494140625,-0.000095367431640625,-0.010972976684570312,0.09572732448577881
1761370739828927500,8.561927490234375,0.013373851776123047,-0.02628612518310547,0.13388049602508545
1761370739847538400,8.580538330078125,0.024561405181884766,-0.02754974365234375,0.14134079217910767
1761370739866150700,8.599150634765625,-0.022813796997070312,-0.024445533752441406,0.0813218355178833
1761370739884761600,8.61776171875,-0.09972572326660156,-0.011336326599121094,0.055844902992248535
1761370739903374000,8.6363740234375,-0.11792182922363281,-0.006869316101074219,0.024745404720306396
1761370739921985000,8.654985107421876,-0.0710287094116211,0.0119781494140625,-0.043310701847076416
1761370739940597200,8.67359716796875,0.012150287628173828,0.013588905334472656,-0.10606440901756287
1761370739959208200,8.692208251953126,0.06309795379638672,0.04008293151855469,-0.19539350271224976
1761370739977820700,8.710820556640625,0.07398843765258789,0.053297996520996094,-0.21882227063179016
1761370739996431600,8.729431640625,0.036202430725097656,0.05849170684814453,-0.21168473362922668
1761370740015043800,8.7480439453125,0.011486530303955078,-0.00154876708984375,-0.1279161274433136
1761370740033654800,8.76665478515625,0.052469730377197266,-0.012513160705566406,-0.0337577760219574
1761370740052267300,8.785267333984375,0.10718345642089844,0.004130363464355469,-0.05990558862686157
1761370740070878200,8.803878173828124,0.09243965148925781,-0.0025653839111328125,-0.052674293518066406
1761370740089490400,8.822490478515626,-0.025690078735351562,-0.030556678771972656,0.04882776737213135
1761370740108101400,8.841101318359375,-0.0849905014038086,-0.007830619812011719,0.0760650634765625
1761370740126713900,8.8597138671875,-0.02914571762084961,0.03351783752441406,-0.04560273885726929
1761370740145324800,8.87832470703125,-0.05505037307739258,0.04792976379394531,-0.13927993178367615
1761370740163937300,8.896937255859376,-0.12313508987426758,0.030318260192871094,-0.11684674024581909
1761370740182548000,8.9155478515625,-0.06715536117553711,0.002605438232421875,-0.024871885776519775
1761370740201160400,8.934160400390626,0.05287885665893555,-0.02698230743408203,0.025776684284210205
1761370740219771400,8.952771484375,0.09606790542602539,-0.02649974822998047,0.08138382434844971
1761370740238383900,8.9713837890625,0.032025814056396484,-0.015573501586914062,0.117290198802948
1761370740256994600,8.98999462890625,-0.015575408935546875,0.008917808532714844,0.05981379747390747
1761370740275607000,9.00860693359375,-0.053475379943847656,0.014492988586425781,-0.0501214861869812
1761370740294218000,9.027218017578125,-0.07480907440185547,-0.0025644302368164062,-0.06946703791618347
1761370740312830500,9.04583056640625,-0.07851076126098633,-0.020234107971191406,-0.06008410453796387
1761370740331441200,9.064441162109375,-0.039510250091552734,0.0038251876831054688,-0.03313133120536804
1761370740350053600,9.0830537109375,0.08250999450683594,0.04333305358886719,0.022033095359802246
1761370740368664600,9.10166455078125,0.1895585060119629,0.034781455993652344,0.06130683422088623
1761370740387277000,9.120277099609375,0.11915922164916992,-0.01531982421875,0.12388652563095093
1761370740405887700,9.1388876953125,0.0007238388061523438,-0.017264366149902344,0.16496115922927856
1761370740424500200,9.157500244140625,-0.042351722717285156,0.013746261596679688,0.09722018241882324
1761370740443111200,9.176111083984376,-0.06342935562133789,0.0065670013427734375,-0.009197115898132324
1761370740461723600,9.1947236328125,-0.07030773162841797,-0.00231170654296875,-0.11533063650131226
1761370740480334300,9.213334228515626,-0.1533060073852539,0.001682281494140625,-0.1700502634048462
1761370740498946800,9.23194677734375,-0.2197566032409668,-0.015838623046875,-0.17514196038246155
1761370740517557800,9.250557861328126,-0.14261245727539062,0.0042438507080078125,-0.14861658215522766
1761370740536170200,9.269170166015625,-0.010855674743652344,0.035965919494628906,-0.1384110450744629
1761370740554781200,9.28778125,0.09218454360961914,0.049648284912109375,-0.03346830606460571
1761370740573393400,9.306393310546875,0.12639379501342773,0.04489898681640625,0.10642844438552856
1761370740592004400,9.32500439453125,0.12207603454589844,0.03651714324951172,0.1955515742301941
1761370740610616800,9.343616943359375,0.13198137283325195,0.007965087890625,0.14435553550720215
1761370740629227800,9.362227783203124,0.1447601318359375,-0.02143383026123047,0.04270666837692261
1761370740647840000,9.380840087890626,-0.0004138946533203125,-0.027413368225097656,-0.07783707976341248
1761370740666451000,9.399450927734375,-0.1684579849243164,-0.03845787048339844,-0.1060192883014679
1761370740685063400,9.4180634765625,-0.1709737777709961,-0.00031185150146484375,-0.0685461163520813
1761370740703674400,9.43667431640625,-0.09138298034667969,0.0027284622192382812,-0.012599349021911621
1761370740722286600,9.45528662109375,-0.03295326232910156,0.010272026062011719,0.0578579306602478
1761370740740897500,9.4738974609375,-0.07494831085205078,0.010656356811523438,0.1310560703277588
1761370740759510000,9.492510009765626,-0.04203033447265625,-0.013397216796875,0.20716840028762817
1761370740778121000,9.511120849609375,0.10985136032104492,0.0042781829833984375,0.1983712911605835
1761370740796733200,9.529733154296874,0.20028352737426758,0.02300739288330078,0.08652335405349731
1761370740815344000,9.54834423828125,0.02901458740234375,0.00450897216796875,-0.016224563121795654
1761370740833956600,9.56695654296875,-0.20600318908691406,0.013652801513671875,-0.05229222774505615
1761370740852567600,9.585567626953125,-0.20357131958007812,0.02044963836669922,-0.03825622797012329
1761370740871180000,9.604179931640624,-0.0675663948059082,0.060245513916015625,-0.07271182537078857
1761370740889790700,9.622790771484375,0.07897377014160156,0.0487823486328125,-0.04136174917221069
1761370740908403200,9.6414033203125,0.1410813331604004,0.022530555725097656,0.04327380657196045
1761370740927014100,9.66001416015625,0.16091442108154297,0.026122093200683594,-0.009911656379699707
1761370740945626600,9.678626708984375,0.13134050369262695,-0.0018453598022460938,-0.04210582375526428
1761370740964237300,9.6972373046875,0.057196617126464844,-0.036823272705078125,-0.05583193898200989
1761370740982849800,9.715849853515625,-0.055161476135253906,-0.05557441711425781,-0.029775023460388184
1761370741001460700,9.734460693359376,-0.12724733352661133,-0.03217506408691406,-0.02358013391494751
1761370741020073200,9.7530732421875,-0.09897089004516602,-0.02416706085205078,0.0021579861640930176
1761370741038684200,9.77168408203125,-0.01116180419921875,-0.03750038146972656,0.052466630935668945
1761370741057296400,9.79029638671875,-0.04751396179199219,-0.04368114471435547,0.05724918842315674
1761370741075907300,9.8089072265625,-0.09594535827636719,-0.03200531005859375,0.026667296886444092
1761370741094519800,9.827519775390625,-0.027743816375732422,-0.012560844421386719,0.022111475467681885
1761370741113130500,9.846130615234374,0.1020650863647461,0.012544631958007812,-0.033969104290008545
1761370741131743000,9.864742919921875,0.07749557495117188,0.0028028488159179688,-0.01080411672592163
1761370741150354000,9.88335400390625,-0.05150890350341797,0.0055370330810546875,0.01429128646850586
1761370741168966400,9.90196630859375,-0.049775123596191406,0.016419410705566406,0.08898884057998657
1761370741187577000,9.9205771484375,0.017917633056640625,0.018115997314453125,0.23429995775222778
1761370741206189600,9.939189453125,0.07967376708984375,0.023870468139648438,0.09720367193222046
1761370741224800500,9.957800537109375,0.06116771697998047,-0.020441055297851562,0.17173850536346436
1761370741243413000,9.9764130859375,0.02300882339477539,-0.058928489685058594,0.2261819839477539
1761370741262024000,9.99502392578125,0.15622806549072266,-0.04142189025878906,0.20941007137298584
1761370741280636200,10.01363623046875,0.1072072982788086,-0.05394268035888672,-0.015144824981689453
1761370741299247000,10.0322470703125,-0.06388187408447266,-0.02588176727294922,0.07604813575744629
1761370741317859600,10.050859619140626,-0.13148927688598633,-0.01120758056640625,0.03082263469696045
1761370741336470300,10.06947021484375,-0.06630373001098633,-0.0047168731689453125,-0.03448677062988281
1761370741355082800,10.088082763671874,0.04075002670288086,0.008574485778808594,-0.05240994691848755
1761370741373693700,10.106693603515625,0.0782780647277832,-0.0028896331787109375,-0.07526522874832153
1761370741392306200,10.12530615234375,0.0480198860168457,0.01575469970703125,-0.04601418972015381
1761370741410917000,10.143917236328125,0.018709659576416016,0.005934715270996094,-0.036364197731018066
1761370741429529300,10.162529296875,0.01088714599609375,0.005949974060058594,-0.029925405979156494
1761370741448140300,10.181140380859375,0.05021810531616211,0.0012226104736328125,-0.0072286128997802734
1761370741466752800,10.199752685546875,0.07342958450317383,0.0049457550048828125,-0.007643640041351318
1761370741485363500,10.218363525390625,0.019285202026367188,-0.015245437622070312,-0.0472145676612854
1761370741503976000,10.236975830078125,-0.016922950744628906,-0.006339073181152344,-0.039385199546813965
1761370741522587000,10.2555869140625,-0.03417158126831055,-0.011241912841796875,-0.06569963693618774
1761370741541199400,10.274199462890625,0.017047882080078125,-0.00185394287109375,-0.026623010635375977
1761370741559810300,10.292810302734376,-0.04133272171020508,-0.023305892944335938,0.0070043206214904785
1761370741578422500,10.311422607421875,-0.07857990264892578,-0.01660442352294922,0.030245661735534668
1761370741597033500,10.330033447265626,-0.01364278793334961,0.018813133239746094,0.03141939640045166
1761370741615646000,10.34864599609375,0.09951114654541016,0.058818817138671875,-0.05760568380355835
1761370741634257000,10.3672568359375,0.10229730606079102,0.02069854736328125,-0.004346251487731934
1761370741652869000,10.385869140625,-0.011455059051513672,-0.0113677978515625,0.03436809778213501
1761370741671480000,10.40447998046875,-0.09079313278198242,0.0031480789184570312,-0.06268870830535889
1761370741690092500,10.423092529296875,-0.10915231704711914,0.0020961761474609375,-0.10211995244026184
1761370741708703500,10.441703369140624,-0.02460479736328125,-0.03355884552001953,-0.038851916790008545
1761370741727315700,10.460315673828125,0.0404210090637207,-0.049259185791015625,-0.017039835453033447
1761370741745926700,10.4789267578125,0.052641868591308594,-0.008454322814941406,-0.024737775325775146
1761370741764539100,10.4975390625,0.08712148666381836,0.02483844757080078,0.03177917003631592
1761370741783150000,10.516150146484375,0.08031129837036133,0.0069580078125,0.035626113414764404
1761370741801762300,10.53476220703125,0.05595064163208008,-0.0037374496459960938,0.06764233112335205
1761370741820373200,10.553373291015625,0.05153083801269531,0.004282951354980469,0.0681910514831543
1761370741838985700,10.57198583984375,0.06434297561645508,0.013818740844726562,0.005714058876037598
1761370741857596400,10.590596435546875,0.023992538452148438,-0.0007753372192382812,0.0009382367134094238
1761370741876209000,10.609208984375,-0.045072078704833984,-0.017217636108398438,0.013871729373931885
1761370741894819800,10.62781982421875,-0.0828099250793457,-0.013804435729980469,0.06235283613204956
1761370741913432300,10.646432373046874,-0.1303720474243164,-0.00473785400390625,0.008612513542175293
1761370741932043300,10.665043212890625,-0.11076021194458008,0.012326240539550781,-0.03178924322128296
1761370741950655500,10.683655517578124,-0.020007610321044922,0.010558128356933594,-0.04223835468292236
1761370741969266400,10.702266357421875,0.01940774917602539,-0.007989883422851562,0.014887034893035889
1761370741987879000,10.72087890625,-0.021392345428466797,0.011338233947753906,0.023379027843475342
1761370742006489600,10.739489501953125,-0.018850326538085938,0.022779464721679688,-0.0034252405166625977
1761370742025102000,10.75810205078125,-0.03301572799682617,0.013289451599121094,-0.011193454265594482
1761370742043713000,10.776713134765625,-0.04968690872192383,0.01852703094482422,-0.0016788840293884277
1761370742062325500,10.795325439453125,-0.02412557601928711,0.004864692687988281,0.03457218408584595
1761370742080936400,10.8139365234375,0.0618748664855957,-0.0062427520751953125,0.05679583549499512
1761370742099548700,10.832548583984375,0.07131147384643555,0.0005321502685546875,-0.014009416103363037
1761370742118159600,10.85115966796875,-0.01750040054321289,0.0072307586669921875,-0.04600781202316284
1761370742136772000,10.869772216796875,-0.0936894416809082,-0.0228118896484375,0.0030938386917114258
1761370742155382800,10.8883828125,-0.25423717498779297,-0.06645393371582031,0.055109262466430664
1761370742173995300,10.906995361328125,-0.14882469177246094,-0.027082443237304688,-0.13010427355766296
1761370742192606200,10.925606201171876,-0.11574697494506836,-0.014881134033203125,-0.009309053421020508
1761370742211218700,10.94421875,-0.2357802391052246,-0.0715951919555664,-0.06558346748352051
1761370742229829400,10.962829345703126,-0.1995716094970703,-0.00933074951171875,-0.16309896111488342
1761370742248441900,10.98144189453125,-0.0934762954711914,0.0643148422241211,-0.08012378215789795
1761370742267052800,11.000052734375,0.1522212028503418,0.1288900375366211,-0.04956433176994324
1761370742285665000,11.0186650390625,0.4201493263244629,0.05679607391357422,0.07339701056480408
1761370742304276000,11.03727587890625,0.4453144073486328,0.04178619384765625,0.07068696618080139
1761370742322888400,11.055888427734375,0.32903432846069336,0.044587135314941406,0.06414014101028442
1761370742341499400,11.07449951171875,0.15655994415283203,-0.01961231231689453,0.024186402559280396
1761370742360111900,11.09311181640625,0.09220314025878906,-0.012842178344726562,0.07747459411621094
1761370742378722600,11.11172265625,0.008037567138671875,-0.03317451477050781,-0.03512480854988098
1761370742397335000,11.1303349609375,-0.11656999588012695,0.008936882019042969,-0.022928386926651
1761370742415946000,11.148946044921875,-0.1858992576599121,-0.039794921875,0.025753885507583618
1761370742434558200,11.16755810546875,-0.21912574768066406,-0.04249382019042969,0.006276339292526245
1761370742453169200,11.186169189453125,-0.10217046737670898,0.02646160125732422,-0.12045332789421082
1761370742471781600,11.20478173828125,0.0797724723815918,0.02007579803466797,-0.08600109815597534
1761370742490392600,11.223392578125,0.11310577392578125,0.009104728698730469,0.02085438370704651
1761370742509004800,11.2420048828125,0.055950164794921875,0.010519027709960938,-0.02923595905303955
1761370742527615700,11.26061572265625,0.020135879516601562,-0.017004013061523438,-0.03856062889099121
1761370742546228200,11.279228271484374,0.0016694068908691406,0.01982402801513672,0.016948938369750977
1761370742564839000,11.2978388671875,0.0005116462707519531,0.04360771179199219,0.09700265526771545
1761370742583451400,11.316451416015624,-0.1696162223815918,0.5501766204833984,-0.8108211755752563
1761370742602062300,11.335062255859375,-0.3893437385559082,-0.4663562774658203,-0.009184122085571289
1761370742620674800,11.3536748046875,0.14721441268920898,-0.1612071990966797,0.4417595863342285
1761370742639285800,11.37228564453125,0.10699653625488281,0.020485877990722656,-0.1223001480102539
1761370742657898000,11.39089794921875,-0.29341697692871094,0.25760650634765625,0.02328735589981079
1761370742676509000,11.409509033203125,-0.4914426803588867,0.3328533172607422,-0.36758360266685486
1761370742695121400,11.428121337890625,-0.2879753112792969,-0.3976168632507324,0.47468119859695435
1761370742713732000,11.446732177734376,0.20099449157714844,-0.34855175018310547,0.9377378821372986
