time,seconds_elapsed,z,y,x
1761370731453685200,0.186685302734375,-0.022601349279284477,0.06360447406768799,-0.012369656935334206
1761370731472296000,0.2052958984375,-0.016492875292897224,0.04100312292575836,-0.04840964451432228
1761370731490908400,0.223908447265625,-0.0024433890357613564,0.00007635590736754239,-0.056961506605148315
1761370731509519400,0.242519287109375,-0.004886778071522713,-0.013973130844533443,-0.04352286830544472
1761370731528131800,0.2611318359375,0.021379653364419937,-0.0555107444524765,-0.03436015918850899
1761370731546742500,0.279742431640625,0.053143709897994995,-0.03229855000972748,-0.02092151902616024
1761370731565355000,0.29835498046875,0.06963659077882767,-0.006642963737249374,-0.001374406274408102
1761370731583966000,0.316966064453125,0.06413896381855011,0.045889899134635925,0.059175826609134674
1761370731602578200,0.335578125,0.04031591862440109,0.09475768357515335,0.1721825748682022
1761370731621189000,0.354189208984375,0.014049487188458443,0.14484715461730957,0.2748049199581146
1761370731639801600,0.372801513671875,-0.012216945178806782,0.17233528196811676,0.3071798086166382
1761370731658412500,0.39141259765625,-0.04947862774133682,0.19066070020198822,0.26930728554725647
1761370731677024800,0.410024658203125,-0.0794101431965828,0.13873867690563202,0.20639002323150635
1761370731695635700,0.4286357421875,-0.07269082218408585,0.06971294432878494,0.15385715663433075
1761370731714248200,0.447248291015625,-0.04581354558467865,0.005573981441557407,0.13125580549240112
1761370731732859000,0.46585888671875,-0.033596597611904144,-0.030466007068753242,0.12881241738796234
1761370731751471400,0.484471435546875,-0.028098974376916885,-0.03352024406194687,0.0946049690246582
1761370731770082300,0.503082275390625,-0.0397050715982914,-0.0017561858985573053,0.04023956134915352
1761370731788694800,0.52169482421875,-0.03420744836330414,0.05199837312102318,-0.06184828653931618
1761370731807305500,0.540305419921875,-0.023212196305394173,0.10025530308485031,-0.14492350816726685
1761370731825918000,0.55891796875,0.0036650835536420345,0.09903360903263092,-0.1626380831003189
1761370731844529000,0.57752880859375,0.0397050715982914,0.08131904155015945,-0.10888352245092392
1761370731863141400,0.596141357421875,0.0647498071193695,0.0892600566148758,-0.016034740954637527
1761370731881752000,0.614751953125,0.07635590434074402,0.1014770045876503,0.059175826609134674
1761370731900364500,0.633364501953125,0.07452336698770523,0.10575293004512787,0.10132429003715515
1761370731918975500,0.6519755859375,0.06841489672660828,0.11613733321428299,0.12636902928352356
1761370731937588000,0.670587890625,0.062306419014930725,0.13446275889873505,0.15141376852989197
1761370731956198700,0.68919873046875,0.05619794875383377,0.12530004978179932,0.12636902928352356
1761370731974811100,0.70781103515625,0.04825693368911743,0.09964445978403091,0.06528430432081223
1761370731993422000,0.726422119140625,0.04459185153245926,0.05932854115962982,0.0011453386396169662
1761370732012034300,0.745034423828125,0.04337015375494957,0.03978142887353897,-0.045355409383773804
1761370732030645200,0.763645263671875,0.037261683493852615,0.027564482763409615,-0.07589777559041977
1761370732049257700,0.7822578125,0.014049487188458443,0.035505495965480804,-0.07834116369485855
1761370732067868700,0.80086865234375,-0.0030542362947016954,0.019623467698693275,-0.06612421572208405
1761370732086481000,0.81948095703125,-0.012216945178806782,0.011071606539189816,-0.04291202127933502
1761370732105091800,0.838091796875,-0.006719320081174374,0.011682453565299511,-0.01969982497394085
1761370732123704300,0.856704345703125,-0.0024433890357613564,0.01046075951308012,-0.010537114925682545
1761370732142315300,0.875315185546875,0.0030542362947016954,0.000687203137204051,-0.01175880990922451
1761370732160927500,0.893927490234375,0.021379653364419937,0.000687203137204051,-0.011147962883114815
1761370732179538400,0.912538330078125,0.03542914241552353,0.0037414394319057465,-0.00992626789957285
1761370732198151000,0.93115087890625,0.03420744836330414,0.011682453565299511,-0.01847812905907631
1761370732216761900,0.949761962890625,0.018936265259981155,0.04100312292575836,-0.0038177953101694584
1761370732235374300,0.968374267578125,0.007941014133393764,0.08376242965459824,0.04146125912666321
1761370732253985000,0.986985107421875,-0.005497625097632408,0.08987089991569519,0.0811663269996643
1761370732272597500,1.005597412109375,-0.01038440316915512,0.056274302303791046,0.07811209559440613
1761370732291208400,1.02420849609375,0.005497625097632408,0.020845163613557816,0.05428905040025711
1761370732309820700,1.042820556640625,0.033596597611904144,-0.0011453386396169662,0.02680092304944992
1761370732328431600,1.061431640625,0.04459185153245926,-0.004810422193259001,0.0023670331574976444
1761370732347044000,1.080044189453125,0.037261683493852615,-0.006642963737249374,-0.02641914412379265
1761370732365655000,1.098655029296875,0.020157959312200546,-0.008475505746901035,-0.04230117425322533
1761370732384267500,1.117267578125,0,-0.00786465872079134,-0.038636088371276855
1761370732402878200,1.135878173828125,-0.01710372418165207,-0.020692450925707817,-0.03436015918850899
1761370732421490700,1.15449072265625,-0.026877280324697495,-0.034131091088056564,-0.03558185324072838
1761370732440101600,1.1731015625,-0.02993151545524597,-0.04023956134915352,-0.0325276181101799
1761370732458714000,1.191714111328125,-0.03420744836330414,-0.04390464723110199,-0.025197450071573257
1761370732477324800,1.21032470703125,-0.03542914241552353,-0.045737188309431076,-0.020310672000050545
1761370732495937300,1.228937255859375,-0.03420744836330414,-0.034131091088056564,-0.021532366052269936
1761370732514548200,1.24754833984375,-0.030542362481355667,-0.02435753494501114,-0.021532366052269936
1761370732533160400,1.266160400390625,-0.02993151545524597,-0.024968381971120834,-0.0007635590736754239
1761370732551771400,1.284771484375,-0.034818295389413834,-0.02435753494501114,0.026190076023340225
1761370732570384000,1.3033837890625,-0.036039989441633224,-0.015194825828075409,0.030466007068753242
1761370732588994800,1.321994873046875,-0.0390942245721817,-0.008475505746901035,0.024968381971120834
1761370732607607300,1.340607177734375,-0.03542914241552353,0.00007635590736754239,0.01763821393251419
1761370732626218000,1.359218017578125,-0.023212196305394173,-0.0011453386396169662,0.00908635277301073
1761370732644830500,1.37783056640625,-0.008551862090826035,-0.010308047756552696,0.0029778804164379835
1761370732663441400,1.39644140625,0.005497625097632408,-0.013973130844533443,-0.006261184345930815
1761370732682054000,1.415053955078125,0.015271181240677834,-0.022524992004036903,-0.016645587980747223
1761370732700664600,1.43366455078125,0.01710372418165207,-0.02557922899723053,-0.023364907130599022
1761370732719277000,1.452277099609375,0.018936265259981155,-0.026190076023340225,-0.03558185324072838
1761370732737888000,1.470887939453125,0.01832541823387146,-0.03474193811416626,-0.038636088371276855
1761370732756500500,1.48950048828125,0.024433890357613564,-0.027411770075559616,-0.03008422814309597
1761370732775111200,1.508111083984375,0.011606098152697086,-0.024968381971120834,-0.02214321307837963
1761370732793723600,1.5267236328125,0,-0.02008160389959812,-0.014813045971095562
1761370732812334600,1.54533447265625,-0.006719320081174374,-0.027411770075559616,-0.009315420873463154
1761370732830947000,1.563947021484375,-0.007330167107284069,-0.030466007068753242,-0.010537114925682545
1761370732849557800,1.582557861328125,-0.006719320081174374,-0.020692450925707817,-0.009315420873463154
1761370732868170200,1.601170166015625,-0.007330167107284069,-0.018249060958623886,-0.004428642801940441
1761370732886781200,1.61978125,-0.0024433890357613564,-0.011529741808772087,-0.00259610079228878
1761370732905393700,1.6383935546875,0.006108472589403391,-0.013362283818423748,-0.006261184345930815
1761370732924004400,1.65700439453125,0.02076880633831024,-0.012751436792314053,-0.006261184345930815
1761370732942616800,1.675616943359375,0.02870982140302658,-0.020692450925707817,-0.011147962883114815
1761370732961227800,1.694227783203125,0.031153209507465363,-0.01763821393251419,-0.021532366052269936
1761370732979840300,1.71284033203125,0.023212196305394173,-0.011529741808772087,-0.030695075169205666
1761370732998451000,1.731450927734375,0.007330167107284069,-0.011529741808772087,-0.03558185324072838
1761370733017063400,1.7500634765625,0.0012216945178806782,0.00007635590736754239,-0.02886253222823143
1761370733035674400,1.76867431640625,0.010995250195264816,0.012293301522731781,-0.016645587980747223
1761370733054286800,1.787286865234375,0.024433890357613564,0.0037414394319057465,-0.01175880990922451
1761370733072897500,1.8058974609375,0.036039989441633224,-0.0023670331574976444,-0.015423892997205257
1761370733091510000,1.824510009765625,0.04214845970273018,0.006184828467667103,-0.015423892997205257
1761370733110121000,1.843120849609375,0.033596597611904144,0.014736690558493137,-0.0050394898280501366
1761370733128733400,1.8617333984375,0.017714571207761765,0.005573981441557407,-0.001985253533348441
1761370733147344100,1.88034423828125,0.0012216945178806782,-0.010918894782662392,0.0005344913806766272
1761370733165956600,1.89895654296875,-0.004886778071522713,-0.01763821393251419,0.006032116711139679
1761370733184567600,1.917567626953125,-0.01038440316915512,-0.020692450925707817,0.014583977870643139
1761370733203180000,1.936179931640625,-0.014660334214568138,-0.005421269219368696,0.014583977870643139
1761370733221790700,1.954790771484375,-0.01038440316915512,0.00862821750342846,0.0017561858985573053
1761370733240403200,1.9734033203125,-0.007330167107284069,0.017180079594254494,-0.0068720318377017975
1761370733259014100,1.99201416015625,-0.0012216945178806782,0.020845163613557816,0.0005344913806766272
1761370733277626600,2.010626708984375,-0.005497625097632408,0.03061871975660324,0.018249060958623886
1761370733296237300,2.0292373046875,-0.00916270911693573,0.03978142887353897,0.031076854094862938
1761370733314849800,2.047849853515625,-0.005497625097632408,0.03733803704380989,0.03901786729693413
1761370733333460700,2.066460693359375,-0.0030542362947016954,0.020845163613557816,0.02680092304944992
1761370733352073200,2.0850732421875,-0.01954711228609085,0.009239064529538155,0.004199574701488018
1761370733370684000,2.103683837890625,-0.029320668429136276,0.011071606539189816,-0.014813045971095562
1761370733389296400,2.12229638671875,-0.02076880633831024,0.00862821750342846,-0.02886253222823143
1761370733407907300,2.1409072265625,-0.010995250195264816,0.007406522985547781,-0.03497100621461868
1761370733426519800,2.159519775390625,-0.013438640162348747,0.0019088976550847292,-0.03802524134516716
1761370733445130500,2.178130615234375,-0.011606098152697086,-0.0029778804164379835,-0.02886253222823143
1761370733463743000,2.196742919921875,-0.0024433890357613564,0.0025197449140250683,-0.012980503961443901
1761370733482354000,2.21535400390625,0.004275931045413017,0.005573981441557407,-0.0032069480512291193
1761370733500966400,2.23396630859375,-0.011606098152697086,-0.0005344913806766272,0.0005344913806766272
1761370733519577000,2.2525771484375,-0.022601349279284477,-0.0017561858985573053,0.013973130844533443
1761370733538189600,2.271189453125,-0.029320668429136276,0.007406522985547781,0.031076854094862938
1761370733556800500,2.289800537109375,-0.03542914241552353,0.0165692325681448,0.03840702027082443
1761370733575413000,2.3084130859375,-0.04092676565051079,0.0037414394319057465,0.0231358390301466
1761370733594023700,2.327023681640625,-0.04214845970273018,-0.011529741808772087,0.013362283818423748
1761370733612636200,2.34563623046875,-0.042759306728839874,-0.011529741808772087,0.012751436792314053
1761370733631247000,2.3642470703125,-0.045202698558568954,-0.0035887276753783226,0.015194825828075409
1761370733649859600,2.382859619140625,-0.042759306728839874,0.008017370477318764,0.0231358390301466
1761370733668470300,2.40147021484375,-0.036039989441633224,0.01901262067258358,0.03290939703583717
1761370733687082800,2.420082763671875,-0.02626643143594265,0.025731941685080528,0.03596363216638565
1761370733705693700,2.438693603515625,-0.011606098152697086,0.013514995574951172,0.02924431301653385
1761370733724306200,2.45730615234375,-0.0006108472589403391,0.005573981441557407,0.021914144977927208
1761370733742916900,2.475916748046875,-0.0030542362947016954,-0.004810422193259001,0.011529741808772087
1761370733761529300,2.494529296875,-0.01588202826678753,-0.006032116711139679,0.00786465872079134
1761370733780140300,2.513140380859375,-0.02504473738372326,-0.004810422193259001,0.007253811229020357
1761370733798752800,2.531752685546875,-0.031153209507465363,-0.004199574701488018,0.0011453386396169662
1761370733817363700,2.55036376953125,-0.03542914241552353,-0.0035887276753783226,-0.008704573847353458
1761370733835976000,2.568975830078125,-0.02993151545524597,-0.00786465872079134,-0.024586603045463562
1761370733854587000,2.5875869140625,-0.021379653364419937,-0.010308047756552696,-0.04046862944960594
1761370733873199400,2.606199462890625,-0.02626643143594265,-0.011529741808772087,-0.04413371533155441
1761370733891810300,2.624810302734375,-0.031153209507465363,-0.006032116711139679,-0.023975754156708717
1761370733910422500,2.643422607421875,-0.04092676565051079,-0.008475505746901035,-0.008093725889921188
1761370733929033500,2.662033447265625,-0.055587101727724075,-0.020692450925707817,-0.007482878863811493
1761370733947646000,2.68064599609375,-0.056808795779943466,-0.015194825828075409,-0.005650337319821119
1761370733966257000,2.6992568359375,-0.04886778071522713,-0.013362283818423748,-0.001374406274408102
1761370733984869000,2.717869140625,-0.03787253051996231,-0.012140588834881783,-0.0068720318377017975
1761370734003480000,2.73647998046875,-0.03176405653357506,-0.013973130844533443,-0.022754060104489326
1761370734022092500,2.755092529296875,-0.01710372418165207,-0.03290939703583717,-0.04046862944960594
1761370734040703500,2.773703369140625,-0.0036650835536420345,-0.03168770298361778,-0.04230117425322533
1761370734059315700,2.792315673828125,-0.0024433890357613564,-0.02435753494501114,-0.03558185324072838
1761370734077926700,2.8109267578125,-0.012827792204916477,-0.0164165198802948,-0.029473381116986275
1761370734096539100,2.8295390625,-0.013438640162348747,-0.012140588834881783,-0.023975754156708717
1761370734115150000,2.848150146484375,-0.0036650835536420345,-0.015805672854185104,-0.023364907130599022
1761370734133762300,2.86676220703125,0.0030542362947016954,-0.015805672854185104,-0.02764083817601204
1761370734152373200,2.885373291015625,-0.0018325417768210173,-0.01763821393251419,-0.03008422814309597
1761370734170985700,2.90398583984375,0.0036650835536420345,-0.011529741808772087,-0.02214321307837963
1761370734189596700,2.9225966796875,0.015271181240677834,-0.004199574701488018,-0.013591351918876171
1761370734208209000,2.941208984375,0.020157959312200546,-0.004199574701488018,-0.00992626789957285
1761370734226819800,2.95981982421875,0.02076880633831024,-0.00786465872079134,-0.012980503961443901
1761370734245432300,2.978432373046875,0.021379653364419937,-0.0011453386396169662,-0.016645587980747223
1761370734264043300,2.997043212890625,0.021990500390529633,-0.017027366906404495,-0.02764083817601204
1761370734282655700,3.01565576171875,0.023212196305394173,-0.045737188309431076,-0.046577103435993195
1761370734301266400,3.034266357421875,0.022601349279284477,-0.06528430432081223,-0.05329642444849014
1761370734319879000,3.05287890625,0.02504473738372326,-0.050013117492198944,-0.04840964451432228
1761370734338489900,3.07148974609375,0.01710372418165207,-0.03168770298361778,-0.03130592033267021
1761370734357102300,3.090102294921875,-0.0024433890357613564,-0.029855160042643547,-0.022754060104489326
1761370734375713300,3.10871337890625,-0.005497625097632408,-0.020692450925707817,-0.03497100621461868
1761370734394325500,3.127325439453125,0.0006108472589403391,-0.0029778804164379835,-0.0325276181101799
1761370734412936400,3.1459365234375,0.0018325417768210173,0.025731941685080528,0.0035887276753783226
1761370734431549000,3.164548828125,0.01038440316915512,0.0489441379904747,0.05062396824359894
1761370734450159600,3.18315966796875,0.00916270911693573,0.03306210786104202,0.054899897426366806
1761370734468772000,3.201772216796875,-0.0036650835536420345,0.015958385542035103,0.03352024406194687
1761370734487383000,3.220383056640625,-0.00916270911693573,0.019623467698693275,0.01763821393251419
1761370734505995500,3.23899560546875,-0.011606098152697086,0.024510245770215988,0.0231358390301466
1761370734524606500,3.2576064453125,-0.008551862090826035,0.020845163613557816,0.028633465990424156
1761370734543218700,3.27621875,-0.007330167107284069,0.011071606539189816,0.010308047756552696
1761370734561829600,3.29482958984375,-0.0018325417768210173,-0.0029778804164379835,-0.023364907130599022
1761370734580442000,3.313442138671875,0.006108472589403391,-0.015805672854185104,-0.05635065957903862
1761370734599053000,3.332052978515625,0.009773556143045425,-0.0164165198802948,-0.07040014863014221
1761370734617665500,3.35066552734375,0.0012216945178806782,-0.015805672854185104,-0.06612421572208405
1761370734636276200,3.369276123046875,-0.01588202826678753,-0.010308047756552696,-0.051463883370161057
1761370734654888700,3.387888671875,-0.030542362481355667,-0.0035887276753783226,-0.036192700266838074
1761370734673499600,3.406499755859375,-0.0397050715982914,-0.004199574701488018,-0.02886253222823143
1761370734692112100,3.425112060546875,-0.04825693368911743,-0.010308047756552696,-0.03802524134516716
1761370734710722800,3.443722900390625,-0.05070032179355621,-0.0023670331574976444,-0.05024218559265137
1761370734729335300,3.462335205078125,-0.047646086663007736,0.00862821750342846,-0.0594048947095871
1761370734747946200,3.4809462890625,-0.05497625470161438,-0.004199574701488018,-0.07406523078680038
1761370734766558700,3.499558837890625,-0.05070032179355621,-0.0231358390301466,-0.09055810421705246
1761370734785169400,3.51816943359375,-0.028098974376916885,-0.03168770298361778,-0.09483403712511063
1761370734803782000,3.536781982421875,-0.012216945178806782,-0.036574479192495346,-0.08872556686401367
1761370734822392800,3.555392822265625,-0.008551862090826035,-0.03840702027082443,-0.06673506647348404
1761370734841005300,3.57400537109375,-0.010995250195264816,-0.045737188309431076,-0.039857782423496246
1761370734859616300,3.5926162109375,-0.015271181240677834,-0.034131091088056564,-0.01175880990922451
1761370734878228500,3.611228515625,-0.02626643143594265,-0.014583977870643139,0.01885990984737873
1761370734896839400,3.62983935546875,-0.036039989441633224,-0.004810422193259001,0.034131091088056564
1761370734915452000,3.648451904296875,-0.03176405653357506,0.0019088976550847292,0.03229855000972748
1761370734934062800,3.667062744140625,-0.016492875292897224,0.00007635590736754239,0.013362283818423748
1761370734952675000,3.685675048828125,-0.0036650835536420345,0.005573981441557407,-0.008704573847353458
1761370734971286000,3.7042861328125,-0.0006108472589403391,0.01901262067258358,-0.025808297097682953
1761370734989898500,3.7228984375,-0.008551862090826035,0.03367295488715172,-0.04046862944960594
1761370735008509400,3.741509521484375,-0.03420744836330414,0.0293970238417387,-0.04474456235766411
1761370735027121700,3.76012158203125,-0.055587101727724075,0.03733803704380989,-0.02214321307837963
1761370735045732600,3.778732666015625,-0.05986303091049194,0.03489464893937111,0.01763821393251419
1761370735064345000,3.797344970703125,-0.06047387793660164,0.012293301522731781,0.04146125912666321
1761370735082956000,3.8159560546875,-0.05070032179355621,-0.007253811229020357,0.05428905040025711
1761370735101568300,3.834568359375,-0.031153209507465363,-0.0011453386396169662,0.061619218438863754
1761370735120179200,3.85317919921875,-0.006719320081174374,0.01779092662036419,0.06406260281801224
1761370735138791700,3.871791748046875,0.007941014133393764,0.023899398744106293,0.05184566229581833
1761370735157402600,3.890402587890625,0.01710372418165207,0.01901262067258358,0.021303297951817513
1761370735176015000,3.90901513671875,0.02993151545524597,0.00007635590736754239,-0.006261184345930815
1761370735194625800,3.927625732421875,0.0390942245721817,-0.00908635277301073,-0.014813045971095562
1761370735213238300,3.94623828125,0.0390942245721817,-0.014583977870643139,-0.013591351918876171
1761370735231849200,3.96484912109375,0.02870982140302658,-0.02008160389959812,-0.022754060104489326
1761370735250461700,3.983461669921875,0.022601349279284477,-0.010308047756552696,-0.03558185324072838
1761370735269072400,4.002072265625,0.013438640162348747,0.009849912486970425,-0.028251685202121735
1761370735287684900,4.020684814453125,0.014049487188458443,0.014736690558493137,-0.0050394898280501366
1761370735306295800,4.0392958984375,0.01710372418165207,0.012904148548841476,0.009697199799120426
1761370735324908300,4.057908203125,0.016492875292897224,0.011682453565299511,0.012140588834881783
1761370735343519200,4.076519287109375,0.015271181240677834,0.011682453565299511,0.008475505746901035
1761370735362131500,4.09513134765625,0.014660334214568138,0.004963133949786425,0.019470756873488426
1761370735380741600,4.11374169921875,0.01710372418165207,0.005573981441557407,0.02802261710166931
1761370735399353900,4.132353759765625,0.023212196305394173,0.017180079594254494,0.013362283818423748
1761370735417964800,4.15096484375,0.01954711228609085,0.017180079594254494,-0.00992626789957285
1761370735436577300,4.169577392578125,0.006719320081174374,0.013514995574951172,-0.012980503961443901
1761370735455188200,4.188188232421875,0,-0.0023670331574976444,-0.007482878863811493
1761370735473800400,4.206800537109375,-0.0036650835536420345,-0.019470756873488426,-0.0068720318377017975
1761370735492411400,4.225411376953125,-0.01588202826678753,-0.01885990984737873,0.005421269219368696
1761370735511023900,4.24402392578125,-0.022601349279284477,-0.008475505746901035,0.027411770075559616
1761370735529634800,4.262634765625,-0.021379653364419937,0.0025197449140250683,0.04023956134915352
1761370735548247000,4.2812470703125,-0.011606098152697086,-0.005421269219368696,0.023746687918901443
1761370735566858000,4.29985791015625,-0.0036650835536420345,-0.010308047756552696,0.006032116711139679
1761370735585470500,4.318470458984375,0.0012216945178806782,-0.0005344913806766272,0.006032116711139679
1761370735604081400,4.337081298828125,-0.004886778071522713,0.00129805039614439,0.013973130844533443
1761370735622694000,4.35569384765625,-0.01710372418165207,-0.005421269219368696,0.01885990984737873
1761370735641304600,4.3743046875,-0.020157959312200546,0.00007635590736754239,0.019470756873488426
1761370735659917000,4.3929169921875,-0.011606098152697086,0.018401773646473885,0.01885990984737873
1761370735678528000,4.411528076171875,-0.006719320081174374,0.02145601063966751,0.0164165198802948
1761370735697140500,4.430140380859375,0.0012216945178806782,0.017180079594254494,0.009697199799120426
1761370735715751200,4.448751220703125,0.007330167107284069,0.019623467698693275,0.009697199799120426
1761370735734363600,4.46736376953125,0.012216945178806782,0.02817532978951931,0.008475505746901035
1761370735752974600,4.485974609375,0.006719320081174374,0.023288551717996597,0.006032116711139679
1761370735771587000,4.504587158203125,-0.0006108472589403391,0.009239064529538155,0.0023670331574976444
1761370735790197800,4.52319775390625,-0.006719320081174374,-0.0035887276753783226,0.0035887276753783226
1761370735808810200,4.541810302734375,-0.01832541823387146,-0.00786465872079134,0.013973130844533443
1761370735827421200,4.560421142578125,-0.02870982140302658,-0.012751436792314053,0.02680092304944992
1761370735846033700,4.57903369140625,-0.02076880633831024,-0.00908635277301073,0.03290939703583717
1761370735864644400,4.597644287109375,-0.00916270911693573,0.005573981441557407,0.036574479192495346
1761370735883256800,4.6162568359375,-0.005497625097632408,0.009239064529538155,0.0231358390301466
1761370735901867800,4.63486767578125,-0.0030542362947016954,0.011071606539189816,0.006642963737249374
1761370735920480300,4.653480224609375,0.0018325417768210173,0.02023431472480297,-0.0038177953101694584
1761370735939091000,4.672091064453125,0.007941014133393764,0.012904148548841476,-0.00259610079228878
1761370735957703400,4.690703369140625,0.014049487188458443,0.00007635590736754239,0.0035887276753783226
1761370735976314400,4.709314453125,0.010995250195264816,-0.0164165198802948,0.0017561858985573053
1761370735994926800,4.7279267578125,0.0036650835536420345,-0.036574479192495346,-0.001985253533348441
1761370736013537800,4.746537841796875,-0.0012216945178806782,-0.036574479192495346,0.004199574701488018
1761370736032150000,4.76514990234375,-0.004275931045413017,-0.03290939703583717,0.010918894782662392
1761370736050761000,4.783760986328125,-0.012216945178806782,-0.0420721061527729,0.0035887276753783226
1761370736069373400,4.80237353515625,-0.020157959312200546,-0.05123481526970863,-0.005650337319821119
1761370736087984400,4.820984375,-0.02076880633831024,-0.0561215914785862,-0.014813045971095562
1761370736106596600,4.8395966796875,-0.021379653364419937,-0.05673243850469589,-0.01725643500685692
1761370736125207600,4.85820751953125,-0.017714571207761765,-0.05428905040025711,-0.0068720318377017975
1761370736143820000,4.876820068359375,-0.012827792204916477,-0.03718532621860504,0.008475505746901035
1761370736162431000,4.895430908203125,-0.0030542362947016954,-0.018249060958623886,0.009697199799120426
1761370736181043200,4.914043212890625,0.008551862090826035,-0.02802261710166931,-0.009315420873463154
1761370736199654100,4.932654052734375,0.013438640162348747,-0.053678203374147415,-0.021532366052269936
1761370736218266600,4.9512666015625,0.012216945178806782,-0.06284090876579285,-0.012980503961443901
1761370736236877600,4.969877685546875,0.004275931045413017,-0.05184566229581833,0.017027366906404495
1761370736255490000,4.988489990234375,0.0006108472589403391,-0.028633465990424156,0.05062396824359894
1761370736274100700,5.007100830078125,-0.004275931045413017,-0.026190076023340225,0.06467345356941223
1761370736292713200,5.025713134765625,-0.004886778071522713,-0.02924431301653385,0.06345175951719284
1761370736311324200,5.04432421875,0.0024433890357613564,-0.034131091088056564,0.045737188309431076
1761370736329936600,5.0629365234375,0.004886778071522713,-0.02680092304944992,0.020692450925707817
1761370736348547300,5.08154736328125,0.0024433890357613564,-0.019470756873488426,0.00908635277301073
1761370736367159800,5.100159912109375,0.01038440316915512,-0.0035887276753783226,0.0035887276753783226
1761370736385770800,5.118770751953125,0.016492875292897224,0.012904148548841476,-0.007482878863811493
1761370736404383200,5.13738330078125,0.021379653364419937,0.022066857665777206,-0.02092151902616024
1761370736422994000,5.155993896484375,0.02993151545524597,0.030007870867848396,-0.023364907130599022
1761370736441606400,5.1746064453125,0.034818295389413834,0.031229566782712936,-0.012369656935334206
1761370736460217300,5.19321728515625,0.03420744836330414,0.03733803704380989,-0.004428642801940441
1761370736478829800,5.211829833984375,0.025655584409832954,0.044668205082416534,0.0029778804164379835
1761370736497440800,5.230440673828125,0.01710372418165207,0.047111593186855316,0.00786465872079134
1761370736516053000,5.249052978515625,0.01710372418165207,0.044668205082416534,0.0035887276753783226
1761370736534664000,5.267663818359375,0.028098974376916885,0.044668205082416534,0.009697199799120426
1761370736553276400,5.2862763671875,0.03237490355968475,0.03489464893937111,0.012140588834881783
1761370736571887400,5.304887451171875,0.033596597611904144,0.034283801913261414,-0.00015271181473508477
1761370736590499600,5.32349951171875,0.026877280324697495,0.027564482763409615,-0.01847812905907631
1761370736609110500,5.342110595703125,0.023212196305394173,0.012293301522731781,-0.023364907130599022
1761370736627723000,5.360722900390625,0.009773556143045425,0.004963133949786425,-0.013591351918876171
1761370736646334000,5.379333984375,0.005497625097632408,0.006184828467667103,-0.005650337319821119
1761370736664946200,5.3979462890625,0.006108472589403391,0.0037414394319057465,-0.0007635590736754239
1761370736683557000,5.41655712890625,0.01038440316915512,0.0031305921729654074,-0.001374406274408102
1761370736702169600,5.435169677734375,0.014049487188458443,0.0031305921729654074,-0.00992626789957285
1761370736720780500,5.453780517578125,0.014660334214568138,-0.0035887276753783226,-0.015423892997205257
1761370736739392800,5.472392822265625,0.01710372418165207,-0.008475505746901035,-0.01725643500685692
1761370736758003700,5.491003662109375,0.016492875292897224,-0.010918894782662392,-0.004428642801940441
1761370736776616200,5.5096162109375,0.016492875292897224,-0.0011453386396169662,0.013973130844533443
1761370736795227100,5.52822705078125,0.012216945178806782,-0.0011453386396169662,0.015805672854185104
1761370736813839600,5.546839599609375,0.014049487188458443,-0.00786465872079134,-0.004428642801940441
1761370736832450600,5.565450439453125,0.01710372418165207,-0.005421269219368696,-0.014202198944985867
1761370736851062800,5.584062744140625,0.007330167107284069,-0.004810422193259001,-0.020310672000050545
1761370736869673700,5.602673828125,-0.013438640162348747,-0.00908635277301073,-0.01725643500685692
1761370736888286200,5.6212861328125,-0.018936265259981155,-0.006642963737249374,-0.012369656935334206
1761370736906897200,5.639897216796875,-0.012216945178806782,-0.007253811229020357,-0.013591351918876171
1761370736925509400,5.65850927734375,-0.004275931045413017,-0.010918894782662392,-0.012369656935334206
1761370736944120300,5.677120361328125,0.00916270911693573,0.0019088976550847292,-0.006261184345930815
1761370736962732800,5.69573291015625,0.01710372418165207,0.0067956759594380856,-0.007482878863811493
1761370736981343700,5.71434375,0.007330167107284069,0.005573981441557407,-0.0068720318377017975
1761370736999956000,5.7329560546875,-0.0030542362947016954,-0.0011453386396169662,-0.001374406274408102
1761370737018567000,5.75156689453125,-0.009773556143045425,0.006184828467667103,0.011529741808772087
1761370737037179400,5.770179443359375,-0.01710372418165207,0.004352286923676729,0.018249060958623886
1761370737055790300,5.788790283203125,-0.020157959312200546,-0.010308047756552696,0.008475505746901035
1761370737074402600,5.807402587890625,-0.014660334214568138,-0.024968381971120834,-0.00992626789957285
1761370737093013500,5.826013427734375,-0.00916270911693573,-0.031076854094862938,-0.014202198944985867
1761370737111626000,5.8446259765625,-0.01588202826678753,-0.04023956134915352,-0.01175880990922451
1761370737130237000,5.86323681640625,-0.02076880633831024,-0.05856497958302498,-0.012369656935334206
1761370737148849400,5.881849365234375,-0.01832541823387146,-0.07078192383050919,-0.0007635590736754239
1761370737167460400,5.90046044921875,-0.010995250195264816,-0.0689493864774704,0.02435753494501114
1761370737186072600,5.919072509765625,-0.012827792204916477,-0.05978667363524437,0.036574479192495346
1761370737204683500,5.93768359375,-0.012216945178806782,-0.044515494257211685,0.018249060958623886
1761370737223296000,5.9562958984375,-0.010995250195264816,-0.02924431301653385,-0.009315420873463154
1761370737241907000,5.974906982421875,-0.008551862090826035,-0.014583977870643139,-0.023975754156708717
1761370737260519200,5.993519287109375,0.0018325417768210173,-0.004810422193259001,-0.01847812905907631
1761370737279130000,6.012130126953125,0.0024433890357613564,0.0037414394319057465,-0.012369656935334206
1761370737297742600,6.03074267578125,0,0.009849912486970425,-0.013591351918876171
1761370737316353500,6.049353515625,0.0006108472589403391,0.0165692325681448,-0.011147962883114815
1761370737334965800,6.0679658203125,0.005497625097632408,0.015958385542035103,-0.0007635590736754239
1761370737353576700,6.08657666015625,0.00916270911693573,0.012904148548841476,0.010918894782662392
1761370737372189200,6.105189208984375,0.014049487188458443,0.009239064529538155,0.012140588834881783
1761370737390800100,6.123800048828125,0.02076880633831024,0.022066857665777206,0.01885990984737873
1761370737409412400,6.142412353515625,0.026877280324697495,0.0293970238417387,0.028633465990424156
1761370737428023300,6.161023193359375,0.024433890357613564,0.026342788711190224,0.02557922899723053
1761370737446635800,6.1796357421875,0.014660334214568138,0.015958385542035103,0.0164165198802948
1761370737465246700,6.198246826171875,0.0030542362947016954,-0.0005344913806766272,0.026190076023340225
1761370737483859200,6.216859130859375,-0.004886778071522713,-0.013973130844533443,0.052456509321928024
1761370737502470100,6.23547021484375,-0.0018325417768210173,-0.008475505746901035,0.06039752438664436
1761370737521082400,6.254082275390625,0.0030542362947016954,0.007406522985547781,0.03779617324471474
1761370737539693300,6.272693359375,0,0.011682453565299511,-0.0050394898280501366
1761370737558305800,6.291305908203125,-0.0024433890357613564,0.0165692325681448,-0.021532366052269936
1761370737576916700,6.309916748046875,0.006108472589403391,0.022677704691886902,-0.01175880990922451
1761370737595529000,6.328529052734375,0.02076880633831024,0.025121092796325684,-0.004428642801940441
1761370737614140000,6.347139892578125,0.028098974376916885,0.03184041380882263,-0.010537114925682545
1761370737632752400,6.36575244140625,0.020157959312200546,0.035505495965480804,-0.014813045971095562
1761370737651363300,6.38436328125,0.01038440316915512,0.0489441379904747,-0.0068720318377017975
1761370737669975600,6.4029755859375,0.012827792204916477,0.047111593186855316,-0.001374406274408102
1761370737688586500,6.42158642578125,0.01588202826678753,0.0361163429915905,-0.0032069480512291193
1761370737707199000,6.440198974609375,0.022601349279284477,0.02145601063966751,-0.011147962883114815
1761370737725810000,6.458809814453125,0.02870982140302658,0.014125842601060867,-0.016034740954637527
1761370737744422100,6.477422119140625,0.026877280324697495,0.014125842601060867,-0.014813045971095562
1761370737763033000,6.496033203125,0.024433890357613564,0.015958385542035103,-0.007482878863811493
1761370737781645600,6.5146455078125,0.020157959312200546,0.005573981441557407,-0.00259610079228878
1761370737800256500,6.533256591796875,0.01832541823387146,0.000687203137204051,-0.004428642801940441
1761370737818869000,6.551868896484375,0.017714571207761765,-0.004199574701488018,-0.011147962883114815
1761370737837480000,6.57047998046875,0.009773556143045425,-0.021303297951817513,-0.025197450071573257
1761370737856092200,6.589092041015625,0.006719320081174374,-0.03779617324471474,-0.03436015918850899
1761370737874703000,6.607703125,0.007330167107284069,-0.04879142343997955,-0.037414394319057465
1761370737893315600,6.626315673828125,0.010995250195264816,-0.04756972938776016,-0.04474456235766411
1761370737911926500,6.644926513671875,0.013438640162348747,-0.052456509321928024,-0.051463883370161057
1761370737930538800,6.663538818359375,0.007941014133393764,-0.05795413255691528,-0.055739812552928925
1761370737949149700,6.682149658203125,0.0006108472589403391,-0.06039752438664436,-0.05207473039627075
1761370737967762200,6.70076220703125,-0.0036650835536420345,-0.05123481526970863,-0.047798797488212585
1761370737986373000,6.719373046875,-0.0030542362947016954,-0.04879142343997955,-0.036192700266838074
1761370738004985300,6.7379853515625,-0.00916270911693573,-0.04023956134915352,-0.016645587980747223
1761370738023596300,6.75659619140625,-0.025655584409832954,-0.034131091088056564,-0.0068720318377017975
1761370738042208800,6.775208740234375,-0.03665083646774292,-0.03596363216638565,-0.016645587980747223
1761370738060819700,6.79381982421875,-0.03176405653357506,-0.03596363216638565,-0.03436015918850899
1761370738079432200,6.81243212890625,-0.018936265259981155,-0.03352024406194687,-0.04474456235766411
1761370738098043000,6.83104296875,-0.013438640162348747,-0.05062396824359894,-0.0594048947095871
1761370738116655400,6.8496552734375,-0.01588202826678753,-0.06100837141275406,-0.06490252166986465
1761370738135266300,6.868266357421875,-0.015271181240677834,-0.06711684167385101,-0.06612421572208405
1761370738153878800,6.886878662109375,-0.009773556143045425,-0.07505785673856735,-0.058183200657367706
1761370738172489700,6.90548974609375,-0.0006108472589403391,-0.07444700598716736,-0.04963133856654167
1761370738191102000,6.92410205078125,0.004886778071522713,-0.06589514762163162,-0.045355409383773804
1761370738209713000,6.942712890625,0.012827792204916477,-0.07994463294744492,-0.04963133856654167
1761370738228325400,6.961325439453125,0.025655584409832954,-0.0958266630768776,-0.051463883370161057
1761370738246936300,6.979936279296875,0.033596597611904144,-0.10071343928575516,-0.038636088371276855
1761370738265548500,6.998548583984375,0.016492875292897224,-0.10682191699743271,-0.0068720318377017975
1761370738284159500,7.017159423828125,-0.02626643143594265,-0.09704835712909698,0.03168770298361778
1761370738302772000,7.03577197265625,-0.06291726976633072,-0.08605311065912247,0.06100837141275406
1761370738321383000,7.0543828125,-0.08307522535324097,-0.0817771777510643,0.06528430432081223
1761370738339995100,7.0729951171875,-0.08490777015686035,-0.08727480471134186,0.0420721061527729
1761370738358606000,7.091606201171875,-0.08612946420907974,-0.09399411827325821,0.012751436792314053
1761370738377218600,7.110218505859375,-0.08612946420907974,-0.08849649876356125,0.00786465872079134
1761370738395829500,7.12882958984375,-0.0922379344701767,-0.0817771777510643,0.023746687918901443
1761370738414441700,7.147441650390625,-0.1056765764951706,-0.05856497958302498,0.05184566229581833
1761370738433052700,7.166052734375,-0.12339114397764206,-0.0164165198802948,0.07933378964662552
1761370738451665200,7.1846650390625,-0.13621893525123596,0.011682453565299511,0.08422056585550308
1761370738470276000,7.203276123046875,-0.1325538605451584,0.014736690558493137,0.06467345356941223
1761370738488888600,7.221888671875,-0.11117420345544815,0.013514995574951172,0.03779617324471474
1761370738507499500,7.24049951171875,-0.08490777015686035,0.025121092796325684,0.013973130844533443
1761370738526111700,7.25911181640625,-0.06047387793660164,0.030007870867848396,-0.022754060104489326
1761370738544722700,7.27772265625,-0.02748812735080719,0.03184041380882263,-0.06490252166986465
1761370738563335200,7.296335205078125,0.01038440316915512,0.035505495965480804,-0.09361234307289124
1761370738581946000,7.314946044921875,0.03542914241552353,0.037948887795209885,-0.10582929104566574
1761370738600558300,7.333558349609375,0.05008947476744652,0.0361163429915905,-0.11377029865980148
1761370738619169300,7.352169189453125,0.04947862774133682,0.05932854115962982,-0.10827267915010452
1761370738637781800,7.37078173828125,0.036039989441633224,0.09170344471931458,-0.07895200699567795
1761370738656392700,7.389392822265625,0.009773556143045425,0.10575293004512787,-0.03924693539738655
1761370738675005000,7.4080048828125,-0.004886778071522713,0.08987089991569519,-0.014813045971095562
1761370738693615900,7.426615966796875,-0.016492875292897224,0.05810684710741043,0.013362283818423748
1761370738712228400,7.445228271484375,-0.025655584409832954,0.04222481697797775,0.03901786729693413
1761370738730839300,7.46383935546875,-0.02870982140302658,0.04161396995186806,0.03168770298361778
1761370738749451500,7.482451416015625,-0.02076880633831024,0.05322006717324257,0.0011453386396169662
1761370738768062500,7.5010625,-0.006108472589403391,0.057496000081300735,-0.0325276181101799
1761370738786675000,7.519675048828125,0.004886778071522713,0.05322006717324257,-0.056961506605148315
1761370738805286000,7.538285888671875,0.020157959312200546,0.04405735805630684,-0.06306997686624527
1761370738823898400,7.5568984375,0.031153209507465363,0.027564482763409615,-0.05329642444849014
1761370738842509000,7.575509033203125,0.03298575058579445,0.0293970238417387,-0.03680354729294777
1761370738861121500,7.59412158203125,0.029320668429136276,0.03978142887353897,-0.024586603045463562
1761370738879732500,7.612732421875,0.022601349279284477,0.040392275899648666,-0.02214321307837963
1761370738898345000,7.631344970703125,0.015271181240677834,0.037948887795209885,-0.02092151902616024
1761370738916955600,7.64995556640625,0.012827792204916477,0.0293970238417387,-0.016645587980747223
1761370738935568100,7.668568115234375,0.023212196305394173,0.022066857665777206,-0.014202198944985867
1761370738954179000,7.687178955078125,0.03176405653357506,0.015347537584602833,-0.023975754156708717
1761370738972791600,7.70579150390625,0.03420744836330414,0.008017370477318764,-0.046577103435993195
1761370738991402500,7.724402587890625,0.04153761267662048,-0.006032116711139679,-0.06062658876180649
1761370739010014700,7.7430146484375,0.045202698558568954,-0.011529741808772087,-0.05268557742238045
1761370739028625700,7.761625732421875,0.04214845970273018,-0.0005344913806766272,-0.03924693539738655
1761370739047238100,7.780238037109375,0.036039989441633224,0.011071606539189816,-0.02092151902616024
1761370739065849000,7.79884912109375,0.023212196305394173,0.020845163613557816,0.0023670331574976444
1761370739084461300,7.81746142578125,0.006719320081174374,0.025121092796325684,0.027411770075559616
1761370739103072300,7.836072265625,-0.006108472589403391,0.028786176815629005,0.03901786729693413
1761370739121684700,7.854684814453125,-0.018936265259981155,0.026342788711190224,0.03352024406194687
1761370739140295400,7.87329541015625,-0.033596597611904144,0.03367295488715172,0.02680092304944992
1761370739158908000,7.891907958984375,-0.046424392610788345,0.03245126083493233,0.024968381971120834
1761370739177518800,7.910518798828125,-0.0525328628718853,0.030007870867848396,0.03168770298361778
1761370739196131300,7.92913134765625,-0.06902574002742767,0.0361163429915905,0.028633465990424156
1761370739214742300,7.9477421875,-0.07696675509214401,0.048333290964365005,0.0164165198802948
1761370739233354500,7.9663544921875,-0.07146912813186646,0.06360447406768799,0.010308047756552696
1761370739251965400,7.98496533203125,-0.0647498071193695,0.06726955622434616,0.01763821393251419
1761370739270578000,8.003577880859375,-0.06047387793660164,0.0752105712890625,0.026190076023340225
1761370739289188900,8.02218896484375,-0.05741964280605316,0.07765395939350128,0.022524992004036903
1761370739307801000,8.040801025390625,-0.05619794875383377,0.07704310864210129,0.011529741808772087
1761370739326412000,8.059412109375,-0.043981000781059265,0.08681666851043701,0.009697199799120426
1761370739345024500,8.0780244140625,-0.02870982140302658,0.09109259396791458,0.011529741808772087
1761370739363635500,8.096635498046876,-0.01710372418165207,0.09109259396791458,0.0011453386396169662
1761370739382247700,8.11524755859375,-0.016492875292897224,0.08681666851043701,-0.020310672000050545
1761370739400858600,8.133858642578126,-0.016492875292897224,0.07276718318462372,-0.020310672000050545
1761370739419471000,8.15247119140625,-0.014660334214568138,0.05566345527768135,0.004199574701488018
1761370739438082000,8.17108203125,-0.01832541823387146,0.03306210786104202,0.02435753494501114
1761370739456694500,8.189694580078125,-0.03298575058579445,0.026342788711190224,0.03352024406194687
1761370739475305200,8.20830517578125,-0.04153761267662048,0.023899398744106293,0.044515494257211685
1761370739493917700,8.226917724609375,-0.0397050715982914,0.023288551717996597,0.05184566229581833
1761370739512528600,8.245528564453124,-0.037261683493852615,0.023288551717996597,0.052456509321928024
1761370739531140900,8.264140869140626,-0.0397050715982914,0.014125842601060867,0.04879142343997955
1761370739549751800,8.282751708984375,-0.04031591862440109,0.0037414394319057465,0.04023956134915352
1761370739568364300,8.3013642578125,-0.03298575058579445,-0.009697199799120426,0.030466007068753242
1761370739586975200,8.319975341796875,-0.021990500390529633,-0.015805672854185104,0.0231358390301466
1761370739605587500,8.33858740234375,-0.014660334214568138,-0.012751436792314053,0.014583977870643139
1761370739624198400,8.357198486328125,-0.017714571207761765,-0.006032116711139679,0.007253811229020357
1761370739642811000,8.375810791015626,-0.021990500390529633,-0.006032116711139679,0.010308047756552696
1761370739661421800,8.394421875,-0.02504473738372326,-0.006642963737249374,0.015805672854185104
1761370739680034300,8.413034423828124,-0.024433890357613564,-0.004199574701488018,0.014583977870643139
1761370739698645000,8.43164501953125,-0.021990500390529633,-0.0029778804164379835,0.017027366906404495
1761370739717257500,8.450257568359374,-0.009773556143045425,0.00129805039614439,0.014583977870643139
1761370739735868400,8.468868408203125,0.0036650835536420345,0.0031305921729654074,-0.001374406274408102
1761370739754481000,8.48748095703125,0.004886778071522713,-0.006032116711139679,-0.01175880990922451
1761370739773091600,8.506091552734375,0.007941014133393764,-0.00786465872079134,-0.008704573847353458
1761370739791704000,8.5247041015625,0.01038440316915512,-0.006032116711139679,-0.004428642801940441
1761370739810315000,8.54331494140625,0.010995250195264816,-0.00786465872079134,-0.004428642801940441
1761370739828927500,8.561927490234375,0.005497625097632408,-0.019470756873488426,-0.0050394898280501366
1761370739847538400,8.580538330078125,-0.0030542362947016954,-0.02435753494501114,-0.00015271181473508477
1761370739866150700,8.599150634765625,-0.008551862090826035,-0.03168770298361778,-0.00015271181473508477
1761370739884761600,8.61776171875,-0.013438640162348747,-0.0426829531788826,-0.011147962883114815
1761370739903374000,8.6363740234375,-0.021379653364419937,-0.0420721061527729,-0.024586603045463562
1761370739921985000,8.654985107421876,-0.024433890357613564,-0.03168770298361778,-0.02641914412379265
1761370739940597200,8.67359716796875,-0.025655584409832954,-0.03168770298361778,-0.022754060104489326
1761370739959208200,8.692208251953126,-0.020157959312200546,-0.02802261710166931,-0.013591351918876171
1761370739977820700,8.710820556640625,-0.010995250195264816,-0.015805672854185104,-0.005650337319821119
1761370739996431600,8.729431640625,0.0018325417768210173,-0.0011453386396169662,-0.001374406274408102
1761370740015043800,8.7480439453125,0.006108472589403391,0.0037414394319057465,-0.00259610079228878
1761370740033654800,8.76665478515625,0.005497625097632408,0.00129805039614439,-0.0050394898280501366
1761370740052267300,8.785267333984375,0.016492875292897224,0.007406522985547781,0.007253811229020357
1761370740070878200,8.803878173828124,0.023212196305394173,0.01779092662036419,0.024968381971120834
1761370740089490400,8.822490478515626,0.014049487188458443,0.022066857665777206,0.027411770075559616
1761370740108101400,8.841101318359375,0.0030542362947016954,0.02023431472480297,0.014583977870643139
1761370740126713900,8.8597138671875,0.006108472589403391,0.004352286923676729,0.010308047756552696
1761370740145324800,8.87832470703125,0.014049487188458443,-0.0035887276753783226,0.008475505746901035
1761370740163937300,8.896937255859376,0.021990500390529633,-0.0017561858985573053,-0.004428642801940441
1761370740182548000,8.9155478515625,0.023823043331503868,0.011071606539189816,-0.013591351918876171
1761370740201160400,8.934160400390626,0.021990500390529633,0.026342788711190224,-0.0038177953101694584
1761370740219771400,8.952771484375,0.012827792204916477,0.03061871975660324,0.010308047756552696
1761370740238383900,8.9713837890625,-0.0024433890357613564,0.04283566400408745,0.01885990984737873
1761370740256994600,8.98999462890625,-0.007941014133393764,0.04222481697797775,0.0164165198802948
1761370740275607000,9.00860693359375,0,0.035505495965480804,0.008475505746901035
1761370740294218000,9.027218017578125,0.007941014133393764,0.03489464893937111,0.0011453386396169662
1761370740312830500,9.04583056640625,0.017714571207761765,0.0165692325681448,-0.012369656935334206
1761370740331441200,9.064441162109375,0.026877280324697495,0.0067956759594380856,-0.023975754156708717
1761370740350053600,9.0830537109375,0.03176405653357506,0.005573981441557407,-0.016645587980747223
1761370740368664600,9.10166455078125,0.03542914241552353,0.012293301522731781,0.010308047756552696
1761370740387277000,9.120277099609375,0.028098974376916885,0.0165692325681448,0.030466007068753242
1761370740405887700,9.1388876953125,0.011606098152697086,0.012293301522731781,0.028633465990424156
1761370740424500200,9.157500244140625,-0.0030542362947016954,0.009849912486970425,0.022524992004036903
1761370740443111200,9.176111083984376,-0.012827792204916477,-0.0011453386396169662,0.019470756873488426
1761370740461723600,9.1947236328125,-0.00916270911693573,-0.010308047756552696,0.0164165198802948
1761370740480334300,9.213334228515626,0,-0.006032116711139679,0.004199574701488018
1761370740498946800,9.23194677734375,0.010995250195264816,-0.0011453386396169662,-0.01725643500685692
1761370740517557800,9.250557861328126,0.02076880633831024,0.004352286923676729,-0.03558185324072838
1761370740536170200,9.269170166015625,0.03542914241552353,0.00862821750342846,-0.038636088371276855
1761370740554781200,9.28778125,0.037261683493852615,0.01046075951308012,-0.025808297097682953
1761370740573393400,9.306393310546875,0.022601349279284477,0.005573981441557407,-0.010537114925682545
1761370740592004400,9.32500439453125,0.0012216945178806782,0.004352286923676729,0.0029778804164379835
1761370740610616800,9.343616943359375,-0.009773556143045425,0.013514995574951172,0.02008160389959812
1761370740629227800,9.362227783203124,-0.012216945178806782,0.018401773646473885,0.0426829531788826
1761370740647840000,9.380840087890626,-0.0006108472589403391,0.015958385542035103,0.04512634128332138
1761370740666451000,9.399450927734375,0.014049487188458443,0.007406522985547781,0.023746687918901443
1761370740685063400,9.4180634765625,0.02993151545524597,0.00862821750342846,0.0017561858985573053
1761370740703674400,9.43667431640625,0.03665083646774292,0.008017370477318764,-0.0050394898280501366
1761370740722286600,9.45528662109375,0.036039989441633224,0.01046075951308012,-0.00015271181473508477
1761370740740897500,9.4738974609375,0.02993151545524597,0.005573981441557407,-0.00992626789957285
1761370740759510000,9.492510009765626,0.017714571207761765,-0.006032116711139679,-0.019088976085186005
1761370740778121000,9.511120849609375,0.0030542362947016954,-0.00786465872079134,-0.0038177953101694584
1761370740796733200,9.529733154296874,-0.0012216945178806782,-0.0005344913806766272,0.030466007068753242
1761370740815344000,9.54834423828125,0,0.004963133949786425,0.04085041210055351
1761370740833956600,9.56695654296875,-0.0012216945178806782,0.0031305921729654074,0.018249060958623886
1761370740852567600,9.585567626953125,-0.005497625097632408,0.000687203137204051,-0.006261184345930815
1761370740871180000,9.604179931640624,-0.0036650835536420345,0.014125842601060867,-0.009315420873463154
1761370740889790700,9.622790771484375,-0.004275931045413017,0.030007870867848396,0.0035887276753783226
1761370740908403200,9.6414033203125,-0.017714571207761765,0.013514995574951172,0.015194825828075409
1761370740927014100,9.66001416015625,-0.021379653364419937,0.015958385542035103,0.02924431301653385
1761370740945626600,9.678626708984375,-0.014660334214568138,0.02695363573729992,0.044515494257211685
1761370740964237300,9.6972373046875,0,0.0293970238417387,0.04879142343997955
1761370740982849800,9.715849853515625,0.008551862090826035,0.015347537584602833,0.03779617324471474
1761370741001460700,9.734460693359376,0.01710372418165207,0.005573981441557407,0.014583977870643139
1761370741020073200,9.7530732421875,0.02504473738372326,0.005573981441557407,0.0011453386396169662
1761370741038684200,9.77168408203125,0.025655584409832954,0.009849912486970425,0.006642963737249374
1761370741057296400,9.79029638671875,0.023212196305394173,0.009239064529538155,0.0035887276753783226
1761370741075907300,9.8089072265625,0.021379653364419937,0.0031305921729654074,-0.011147962883114815
1761370741094519800,9.827519775390625,0.022601349279284477,-0.0029778804164379835,-0.020310672000050545
1761370741113130500,9.846130615234374,0.029320668429136276,0.004963133949786425,-0.007482878863811493
1761370741131743000,9.864742919921875,0.03237490355968475,0.014125842601060867,0.005421269219368696
1761370741150354000,9.88335400390625,0.03298575058579445,0.022066857665777206,-0.0050394898280501366
1761370741168966400,9.90196630859375,0.024433890357613564,0.022677704691886902,-0.019088976085186005
1761370741187577000,9.9205771484375,-0.0006108472589403391,0.022677704691886902,-0.023975754156708717
1761370741206189600,9.939189453125,0.0012216945178806782,0.018401773646473885,-0.016034740954637527
1761370741224800500,9.957800537109375,-0.009773556143045425,0.015958385542035103,-0.008704573847353458
1761370741243413000,9.9764130859375,-0.020157959312200546,0.019623467698693275,-0.0068720318377017975
1761370741262024000,9.99502392578125,-0.02870982140302658,-0.0017561858985573053,0.009697199799120426
1761370741280636200,10.01363623046875,-0.016492875292897224,-0.015805672854185104,0.023746687918901443
1761370741299247000,10.0322470703125,-0.021379653364419937,-0.013362283818423748,0.013362283818423748
1761370741317859600,10.050859619140626,-0.022601349279284477,-0.018249060958623886,-0.006261184345930815
1761370741336470300,10.06947021484375,-0.01588202826678753,-0.020692450925707817,-0.01969982497394085
1761370741355082800,10.088082763671874,-0.010995250195264816,-0.026190076023340225,-0.016034740954637527
1761370741373693700,10.106693603515625,-0.006108472589403391,-0.024968381971120834,-0.00259610079228878
1761370741392306200,10.12530615234375,-0.0030542362947016954,-0.01763821393251419,0.0017561858985573053
1761370741410917000,10.143917236328125,-0.0006108472589403391,-0.015194825828075409,-0.0007635590736754239
1761370741429529300,10.162529296875,0.0024433890357613564,-0.017027366906404495,-0.0032069480512291193
1761370741448140300,10.181140380859375,-0.0006108472589403391,-0.0164165198802948,0.0005344913806766272
1761370741466752800,10.199752685546875,-0.0036650835536420345,-0.009697199799120426,0.012140588834881783
1761370741485363500,10.218363525390625,-0.0012216945178806782,-0.005421269219368696,0.013362283818423748
1761370741503976000,10.236975830078125,0.0012216945178806782,-0.006642963737249374,0.009697199799120426
1761370741522587000,10.2555869140625,0.00916270911693573,-0.010308047756552696,0.0035887276753783226
1761370741541199400,10.274199462890625,0.011606098152697086,-0.00908635277301073,0.00786465872079134
1761370741559810300,10.292810302734376,0.01038440316915512,-0.006642963737249374,0.0029778804164379835
1761370741578422500,10.311422607421875,0.005497625097632408,-0.014583977870643139,-0.015423892997205257
1761370741597033500,10.330033447265626,-0.0006108472589403391,-0.023746687918901443,-0.023364907130599022
1761370741615646000,10.34864599609375,0,-0.017027366906404495,-0.006261184345930815
1761370741634257000,10.3672568359375,-0.008551862090826035,-0.011529741808772087,0.014583977870643139
1761370741652869000,10.385869140625,-0.01832541823387146,-0.010308047756552696,0.008475505746901035
1761370741671480000,10.40447998046875,-0.017714571207761765,-0.005421269219368696,-0.008093725889921188
1761370741690092500,10.423092529296875,-0.013438640162348747,0.009849912486970425,-0.020310672000050545
1761370741708703500,10.441703369140624,-0.011606098152697086,0.019623467698693275,-0.01969982497394085
1761370741727315700,10.460315673828125,-0.01038440316915512,0.000687203137204051,-0.02092151902616024
1761370741745926700,10.4789267578125,-0.004275931045413017,0.0019088976550847292,-0.016645587980747223
1761370741764539100,10.4975390625,-0.006719320081174374,0.017180079594254494,-0.001985253533348441
1761370741783150000,10.516150146484375,-0.007330167107284069,0.014736690558493137,0.008475505746901035
1761370741801762300,10.53476220703125,-0.012216945178806782,0.011071606539189816,0.011529741808772087
1761370741820373200,10.553373291015625,-0.014049487188458443,0.008017370477318764,0.015194825828075409
1761370741838985700,10.57198583984375,-0.010995250195264816,0.011071606539189816,0.021303297951817513
1761370741857596400,10.590596435546875,-0.004886778071522713,0.012293301522731781,0.027411770075559616
1761370741876209000,10.609208984375,-0.006108472589403391,0.004963133949786425,0.024968381971120834
1761370741894819800,10.62781982421875,-0.011606098152697086,0.006184828467667103,0.017027366906404495
1761370741913432300,10.646432373046874,-0.012216945178806782,0.006184828467667103,0.0023670331574976444
1761370741932043300,10.665043212890625,-0.006719320081174374,0.00129805039614439,-0.009315420873463154
1761370741950655500,10.683655517578124,-0.0012216945178806782,-0.0029778804164379835,-0.00992626789957285
1761370741969266400,10.702266357421875,-0.004275931045413017,-0.00908635277301073,-0.0038177953101694584
1761370741987879000,10.72087890625,-0.005497625097632408,-0.010308047756552696,-0.004428642801940441
1761370742006489600,10.739489501953125,-0.0024433890357613564,-0.010918894782662392,-0.0038177953101694584
1761370742025102000,10.75810205078125,0.0012216945178806782,-0.00786465872079134,-0.0068720318377017975
1761370742043713000,10.776713134765625,0.0024433890357613564,0.0031305921729654074,-0.010537114925682545
1761370742062325500,10.795325439453125,-0.004275931045413017,0.01046075951308012,-0.01175880990922451
1761370742080936400,10.8139365234375,-0.014049487188458443,0.006184828467667103,-0.005650337319821119
1761370742099548700,10.832548583984375,-0.01954711228609085,0.01046075951308012,0.0029778804164379835
1761370742118159600,10.85115966796875,-0.020157959312200546,0.013514995574951172,-0.001985253533348441
1761370742136772000,10.869772216796875,-0.030542362481355667,0.05322006717324257,-0.01175880990922451
1761370742155382800,10.8883828125,-0.045202698558568954,0.06665870547294617,-0.03680354729294777
1761370742173995300,10.906995361328125,-0.03542914241552353,0.0758214145898819,-0.05268557742238045
1761370742192606200,10.925606201171876,-0.04459185153245926,0.11613733321428299,-0.05024218559265137
1761370742211218700,10.94421875,-0.04153761267662048,0.11674818396568298,-0.08139539510011673
1761370742229829400,10.962829345703126,-0.01588202826678753,0.08437328040599823,-0.1241547018289566
1761370742248441900,10.98144189453125,0.0024433890357613564,0.04222481697797775,-0.1650814712047577
1761370742267052800,11.000052734375,0.01588202826678753,0.023899398744106293,-0.1632489264011383
1761370742285665000,11.0186650390625,0.0024433890357613564,0.035505495965480804,-0.10216420143842697
1761370742304276000,11.03727587890625,-0.006719320081174374,0.03184041380882263,-0.049020491540431976
1761370742322888400,11.055888427734375,-0.006719320081174374,0.015347537584602833,-0.012980503961443901
1761370742341499400,11.07449951171875,-0.0018325417768210173,0.015347537584602833,-0.0007635590736754239
1761370742360111900,11.09311181640625,-0.012216945178806782,0.015347537584602833,0.013362283818423748
1761370742378722600,11.11172265625,-0.004886778071522713,0.005573981441557407,0.020692450925707817
1761370742397335000,11.1303349609375,0.006719320081174374,-0.005421269219368696,0.006642963737249374
1761370742415946000,11.148946044921875,0.004275931045413017,0.0019088976550847292,-0.010537114925682545
1761370742434558200,11.16755810546875,-0.0012216945178806782,0.00007635590736754239,-0.03558185324072838
1761370742453169200,11.186169189453125,0.006108472589403391,0.004963133949786425,-0.049020491540431976
1761370742471781600,11.20478173828125,0.008551862090826035,0.009239064529538155,-0.0331384651362896
1761370742490392600,11.223392578125,-0.0018325417768210173,0.012293301522731781,-0.01725643500685692
1761370742509004800,11.2420048828125,-0.0006108472589403391,0.00007635590736754239,-0.012980503961443901
1761370742527615700,11.26061572265625,0.010995250195264816,-0.006032116711139679,-0.009315420873463154
1761370742546228200,11.279228271484374,0.01832541823387146,-0.014583977870643139,-0.00992626789957285
1761370742564839000,11.2978388671875,0.02626643143594265,0.00862821750342846,-0.0068720318377017975
1761370742583451400,11.316451416015624,0.17653486132621765,0.08437328040599823,-0.009315420873463154
1761370742602062300,11.335062255859375,0.12888877093791962,-0.11537377536296844,-0.09910997003316879
1761370742620674800,11.3536748046875,0.03176405653357506,-0.1611873209476471,-0.06856760382652283
1761370742639285800,11.37228564453125,0.061084724962711334,-0.10437852889299393,-0.04291202127933502
1761370742657898000,11.39089794921875,0.11300674080848694,0.017180079594254494,-0.09483403712511063
1761370742676509000,11.409509033203125,0.19058434665203094,0.09842276573181152,-0.17180079221725464
1761370742695121400,11.428121337890625,0.11606097966432571,0.0892600566148758,-0.2163926362991333
1761370742713732000,11.446732177734376,-0.021990500390529633,0.08437328040599823,-0.15469707548618317
