time,seconds_elapsed,z,y,x
1761311876130812000,0.20381201171875,-2.912984848022461,-1.272735595703125,0.8556133508682251
1761311876149424600,0.222424560546875,-3.0503978729248047,-1.4873046875,0.6008377075195312
1761311876168038700,0.24103857421875,-2.9496073722839355,-1.581543207168579,0.3391737937927246
1761311876186651400,0.2596513671875,-2.7100830078125,-1.5623581409454346,0.2969331741333008
1761311876205265400,0.278265380859375,-2.4007692337036133,-1.5412275791168213,0.4794950485229492
1761311876223878000,0.2968779296875,-1.75138521194458,-1.338958978652954,0.6390731334686279
1761311876242492200,0.3154921875,-0.9399356842041016,-0.9841153621673584,0.5719506740570068
1761311876261104600,0.334104736328125,-0.4425187110900879,-0.5039496421813965,0.4279775619506836
1761311876279719000,0.352718994140625,-0.34970998764038086,0.3804793357849121,-0.276780366897583
1761311876298331400,0.371331298828125,-0.0836024284362793,1.7644481658935547,-1.199878215789795
1761311876316945400,0.3899453125,1.2020463943481445,3.445512294769287,-2.054730176925659
1761311876335558100,0.40855810546875,4.205533981323242,4.64021635055542,-1.608208179473877
1761311876354172200,0.427172119140625,7.246708869934082,4.804679870605469,-0.6200153827667236
1761311876372785000,0.445784912109375,8.848628044128418,4.524230003356934,-1.1679394245147705
1761311876391399000,0.46439892578125,9.385665893554688,4.279021739959717,-2.430954933166504
1761311876410011400,0.483011474609375,9.020277976989746,3.9672045707702637,-3.0059139728546143
1761311876428625700,0.501625732421875,7.144482612609863,3.7974390983581543,-3.6475331783294678
1761311876447238100,0.520238037109375,4.423051834106445,3.779423713684082,-4.396759033203125
1761311876465852200,0.53885205078125,1.209627628326416,3.627765655517578,-4.8623857498168945
1761311876484465000,0.55746484375,-1.8014016151428223,3.445427894592285,-5.046056747436523
1761311876503079000,0.576078857421875,-3.6727957725524902,3.0452184677124023,-3.0277085304260254
1761311876521691600,0.594691650390625,-2.6815576553344727,1.287297248840332,2.233584403991699
1761311876540305700,0.6133056640625,-1.145491123199463,3.414836883544922,2.163419485092163
1761311876558918100,0.631918212890625,-1.6557235717773438,0.3779592514038086,3.240945339202881
1761311876577532400,0.650532470703125,-2.5743651390075684,-3.068192958831787,4.2879438400268555
1761311876596145000,0.669144775390625,-3.8266587257385254,-4.355262756347656,3.599850654602051
1761311876614759200,0.68775927734375,-4.812361240386963,-4.534157752990723,2.2357337474823
1761311876633371600,0.70637158203125,-5.8216552734375,-4.890337944030762,1.5287771224975586
1761311876651986000,0.72498583984375,-6.219984531402588,-5.148415565490723,1.1353728771209717
1761311876670598400,0.743598388671875,-6.1341447830200195,-4.4727067947387695,-0.33029651641845703
1761311876689212400,0.76221240234375,-6.171225547790527,-3.4314568042755127,-1.9647376537322998
1761311876707825200,0.7808251953125,-5.743923664093018,-3.628101348876953,-0.9477887153625488
1761311876726439200,0.799439208984375,-6.119257926940918,-4.121848106384277,0.14844250679016113
1761311876745052000,0.818052001953125,-6.191353797912598,-3.675792932510376,0.6606686115264893
1761311876763666000,0.836666015625,-4.803849220275879,-3.090524673461914,1.5448060035705566
1761311876782278700,0.855278564453125,-2.938817024230957,-2.7010393142700195,2.4054183959960938
1761311876800892700,0.873892578125,-2.168818473815918,-2.760986089706421,3.0513815879821777
1761311876819505200,0.892505126953125,-2.321460247039795,-2.7129569053649902,2.98952054977417
1761311876838119400,0.911119384765625,-2.1883535385131836,-2.3668973445892334,2.8386588096618652
1761311876856732000,0.92973193359375,-1.5831308364868164,-1.4426934719085693,2.5275161266326904
1761311876875346200,0.94834619140625,-1.5193700790405273,-0.41239500045776367,2.0335168838500977
1761311876893958700,0.966958740234375,-2.418274402618408,0.22719478607177734,1.2612574100494385
1761311876912572700,0.98557275390625,-0.9400324821472168,2.884209156036377,-0.7081048488616943
1761311876931185400,1.004185302734375,4.906427383422852,7.824930191040039,-3.9350790977478027
1761311876949799400,1.02279931640625,8.310680389404297,4.583078861236572,-2.895146608352661
1761311876968412200,1.041412109375,10.121681213378906,3.843873977661133,-4.283759117126465
1761311876987026200,1.060026123046875,10.694856643676758,4.599216461181641,-6.379687309265137
1761311877005639000,1.078638916015625,9.898778915405273,6.041243553161621,-6.67496395111084
1761311877024253000,1.0972529296875,7.577798843383789,7.6618523597717285,-6.143942832946777
1761311877042865700,1.11586572265625,4.246467590332031,7.212141990661621,-3.8223400115966797
1761311877061479700,1.134479736328125,0.3280296325683594,4.11337947845459,-1.2685050964355469
1761311877080092200,1.153092041015625,-2.836967945098877,1.4576458930969238,0.013882160186767578
1761311877098706400,1.17170654296875,-3.2722744941711426,-0.029088497161865234,0.61252760887146
1761311877117319000,1.19031884765625,-2.595822334289551,-1.8959178924560547,1.9902241230010986
1761311877135933200,1.20893310546875,-2.6444668769836426,-2.913393259048462,2.7312657833099365
1761311877154545700,1.227545654296875,-4.227443218231201,-3.0961153507232666,3.2572083473205566
1761311877173160000,1.246159912109375,-6.167147636413574,-2.497683525085449,2.883755922317505
1761311877191772400,1.2647724609375,-6.388208389282227,-1.328000783920288,2.4000136852264404
1761311877210386400,1.283386474609375,-4.883549213409424,-1.2174582481384277,1.3075660467147827
1761311877228999200,1.301999267578125,-3.795936107635498,-1.8421881198883057,0.0831003189086914
1761311877247613200,1.32061328125,-3.830960273742676,-2.5483081340789795,-0.11258149147033691
1761311877266226000,1.339225830078125,-4.182446002960205,-3.1897127628326416,0.4815857410430908
1761311877284840000,1.35783984375,-4.818327903747559,-3.597235679626465,1.2767874002456665
1761311877303452700,1.37645263671875,-5.2315778732299805,-3.7634756565093994,1.8205595016479492
1761311877322066700,1.395066650390625,-4.883613586425781,-3.723710060119629,2.6284830570220947
1761311877340679400,1.413679443359375,-4.632506370544434,-3.961984634399414,2.609234571456909
1761311877359293400,1.43229345703125,-4.808647155761719,-3.6147620677948,2.479675531387329
1761311877377906000,1.450906005859375,-5.255115985870361,-2.7961208820343018,2.5445780754089355
1761311877396520200,1.469520263671875,-4.496313095092773,-1.7854199409484863,2.8081843852996826
1761311877415132700,1.488132568359375,-2.8997015953063965,-0.23423004150390625,1.838676929473877
1761311877433747000,1.506746826171875,0.9405584335327148,3.484353542327881,-0.196394681930542
1761311877452359400,1.525359375,5.388392448425293,7.378023624420166,-5.090826988220215
1761311877470973700,1.5439736328125,7.37781286239624,5.330008029937744,-5.391891002655029
1761311877489586200,1.562586181640625,11.106548309326172,4.957961559295654,-5.150433540344238
1761311877508200200,1.5812001953125,11.352916717529297,3.0263047218322754,-3.253281354904175
1761311877526813000,1.59981298828125,11.0286283493042,3.2830748558044434,-3.0552008152008057
1761311877545427000,1.618427001953125,9.351460456848145,4.549582481384277,-3.4738948345184326
1761311877564039700,1.637039794921875,6.204241752624512,5.378209114074707,-4.085102081298828
1761311877582653700,1.65565380859375,2.9408140182495117,5.01377010345459,-3.135343551635742
1761311877601266200,1.67426611328125,-0.05415630340576172,3.300168037414551,-0.12355923652648926
1761311877619880400,1.69288037109375,-0.05213642120361328,0.7294464111328125,2.7090964317321777
1761311877638493200,1.7114931640625,0.3368988037109375,-1.7379220724105835,4.634498596191406
1761311877657107200,1.730107177734375,-0.09659767150878906,-3.0004024505615234,4.330928325653076
1761311877675719700,1.7487197265625,-1.517003059387207,-2.9786570072174072,2.5880396366119385
1761311877694334000,1.767333984375,-3.3711323738098145,-2.301886796951294,0.42211925983428955
1761311877712946400,1.785946533203125,-4.796018123626709,-1.7797455787658691,-1.2209696769714355
1761311877731560700,1.804560791015625,-5.640356063842773,-1.1881089210510254,-1.4182589054107666
1761311877750173200,1.823173095703125,-5.006045818328857,-0.5810767412185669,-1.7914226055145264
1761311877768787500,1.841787353515625,-4.390007019042969,0.2926449775695801,-2.4817655086517334
1761311877787400000,1.86039990234375,-4.511509418487549,-0.5501465797424316,-1.1010490655899048
1761311877806014000,1.879013916015625,-5.324844837188721,-1.1176602840423584,0.3179347515106201
1761311877824626700,1.897626708984375,-5.864895343780518,-1.368392825126648,1.4032386541366577
1761311877843240700,1.91624072265625,-5.081774711608887,-1.6317282915115356,1.8032063245773315
1761311877861853400,1.934853515625,-4.456844329833984,-2.206149101257324,2.253648042678833
1761311877880467500,1.953467529296875,-4.378573894500732,-2.7686212062835693,2.5306272506713867
1761311877899080200,1.972080078125,-4.015824794769287,-3.0401620864868164,2.043674945831299
1761311877917694200,1.990694091796875,-3.811894416809082,-2.602907180786133,1.656329870223999
1761311877936306700,2.009306640625,-2.8665308952331543,-1.5181124210357666,1.688363790512085
1761311877954921000,2.0279208984375,-1.1419439315795898,0.21449995040893555,1.7854777574539185
1761311877973533400,2.046533447265625,1.6500120162963867,2.0645532608032227,1.228494644165039
1761311877992147700,2.065147705078125,4.385647773742676,3.702329158782959,0.6491994857788086
1761311878010760200,2.08376025390625,7.945214748382568,5.20492696762085,-0.5728698968887329
1761311878029374500,2.10237451171875,8.795644760131836,6.661211967468262,-1.9963570833206177
1761311878047987000,2.120987060546875,8.299171447753906,7.601644515991211,-2.995910406112671
1761311878066601000,2.13960107421875,7.745462894439697,8.366233825683594,-3.494809627532959
1761311878085213700,2.158213623046875,6.705143928527832,8.798553466796875,-3.362051010131836
1761311878103827700,2.17682763671875,5.98524284362793,8.861467361450195,-3.228949785232544
1761311878122440400,2.1954404296875,4.069818496704102,7.250460147857666,-2.4707281589508057
1761311878141054500,2.214054443359375,0.7410831451416016,4.762027263641357,-0.6236932277679443
1761311878159667200,2.232667236328125,-1.6243400573730469,1.817859172821045,1.4996910095214844
1761311878178281200,2.25128125,-2.7955856323242188,-0.9285006523132324,2.943605422973633
1761311878196894000,2.26989404296875,-4.0740275382995605,-2.768096685409546,3.0392909049987793
1761311878215508000,2.288508056640625,-4.748040199279785,-3.5985240936279297,1.9773812294006348
1761311878234120400,2.307120361328125,-5.247677803039551,-4.434563636779785,0.8500063419342041
1761311878252734700,2.325734619140625,-5.706615447998047,-4.428665637969971,-0.37736809253692627
1761311878271347200,2.34434716796875,-5.597429275512695,-3.8430747985839844,-1.746327519416809
1761311878289961500,2.36296142578125,-5.693588733673096,-3.297384262084961,-2.4808547496795654
1761311878308574000,2.381573974609375,-6.437527656555176,-3.319678544998169,-2.3807191848754883
1761311878327188200,2.400188232421875,-7.151100158691406,-3.2798826694488525,-1.7964673042297363
1761311878345800700,2.41880078125,-7.40836238861084,-3.318666696548462,-1.1084145307540894
1761311878364414700,2.437414794921875,-6.942078590393066,-3.3355982303619385,-0.2385151982307434
1761311878383027500,2.45602734375,-5.868312358856201,-3.1542415618896484,0.7286916971206665
1761311878401641500,2.474641357421875,-4.423172950744629,-3.129890203475952,1.6277210712432861
1761311878420254200,2.493254150390625,-1.6814665794372559,-2.5823779106140137,1.3387017250061035
1761311878438868200,2.5118681640625,0.8518362045288086,-1.8417181968688965,0.5483032464981079
1761311878457481000,2.53048095703125,1.2424430847167969,-0.5960941314697266,-0.35708457231521606
1761311878476095000,2.549094970703125,2.556130886077881,0.8736438751220703,-0.3927547335624695
1761311878494707700,2.567707763671875,6.8961687088012695,2.563920021057129,0.9842646718025208
1761311878513321700,2.58632177734375,8.521713256835938,3.7025933265686035,3.9294955730438232
1761311878531934200,2.604934326171875,9.593250274658203,4.367615699768066,4.148177623748779
1761311878550548500,2.623548583984375,10.381120681762695,4.306251049041748,2.219055652618408
1761311878569161000,2.642160888671875,8.670230865478516,5.29292631149292,0.23457415401935577
1761311878587775200,2.660775146484375,6.6350932121276855,7.634818077087402,-1.053473949432373
1761311878606387700,2.6793876953125,3.76780366897583,8.777045249938965,-1.2491912841796875
1761311878625002000,2.698001953125,1.602461338043213,9.190540313720703,-1.6678084135055542
1761311878643614500,2.716614501953125,0.4894728660583496,8.036337852478027,-1.2255553007125854
1761311878662228500,2.735228515625,-0.4457383155822754,5.774993419647217,-0.6360617280006409
1761311878680841200,2.75384130859375,-1.176701545715332,2.7078042030334473,-0.32082629203796387
1761311878699455200,2.772455322265625,-1.3265204429626465,-0.2971949577331543,0.2406272441148758
1761311878718068000,2.79106787109375,-2.5557894706726074,-2.717916488647461,1.0310853719711304
1761311878736682000,2.809681884765625,-4.036839962005615,-4.035746097564697,1.9960367679595947
1761311878755294700,2.828294677734375,-5.679006576538086,-4.520857810974121,2.588243246078491
1761311878773908700,2.84690869140625,-6.698757171630859,-3.8415164947509766,1.4511661529541016
1761311878792521200,2.865521240234375,-7.1869072914123535,-2.8292720317840576,-0.2750399112701416
1761311878811135500,2.884135498046875,-6.813013553619385,-2.1537203788757324,-1.5845659971237183
1761311878829748000,2.902748046875,-5.903202056884766,-1.9177300930023193,-1.6399221420288086
1761311878848362200,2.9213623046875,-5.394494533538818,-2.6000595092773438,-0.22300922870635986
1761311878866974700,2.939974609375,-5.919918060302734,-2.913491725921631,1.1831004619598389
1761311878885589000,2.958589111328125,-6.242608070373535,-3.3306994438171387,1.6418691873550415
1761311878904201500,2.977201416015625,-6.490690231323242,-3.7380928993225098,1.8796052932739258
1761311878922815500,2.9958154296875,-7.110100269317627,-3.409843921661377,1.272973656654358
1761311878941428200,3.01442822265625,-7.446309566497803,-3.2524683475494385,0.48006707429885864
1761311878960042200,3.033042236328125,-6.9216108322143555,-2.8783817291259766,0.8073006272315979
1761311878978655000,3.051655029296875,-4.940033912658691,-1.768554449081421,2.1239047050476074
1761311878997269000,3.07026904296875,-3.34298038482666,-0.7270998954772949,2.107025623321533
1761311879015881700,3.0888818359375,-0.34627389907836914,1.0068230628967285,1.2473058700561523
1761311879034495700,3.107495849609375,6.280892372131348,2.728992462158203,0.29606544971466064
1761311879053108500,3.1261083984375,11.8231201171875,4.357450485229492,-2.468122720718384
1761311879071722500,3.144722412109375,12.794483184814453,5.608948707580566,-4.310649394989014
1761311879090335000,3.1633349609375,14.229074478149414,5.533366680145264,-3.743504047393799
1761311879108949200,3.18194921875,13.036530494689941,5.131841659545898,-1.7398178577423096
1761311879127561700,3.200561767578125,9.863725662231445,4.803664684295654,0.4574873447418213
1761311879146175700,3.21917578125,7.6116790771484375,7.052407264709473,0.35120418667793274
1761311879164788500,3.23778857421875,5.5169196128845215,8.679570198059082,-0.6935341954231262
1761311879183402500,3.256402587890625,2.731916904449463,8.13880729675293,-0.799785315990448
1761311879202015200,3.27501513671875,-0.560002326965332,6.234870433807373,-0.01805746555328369
1761311879220629200,3.293629150390625,-2.6878409385681152,3.2395567893981934,0.6174081563949585
1761311879239242000,3.312241943359375,-2.218764305114746,-0.41862964630126953,1.6867958307266235
1761311879257856000,3.33085595703125,-0.47382450103759766,-1.765014410018921,1.9695167541503906
1761311879276468700,3.34946875,0.3512725830078125,-1.7885692119598389,1.950223445892334
1761311879295082800,3.368082763671875,-0.7742595672607422,-1.472527027130127,1.2156076431274414
1761311879313695200,3.3866953125,-3.2763466835021973,-1.3295552730560303,0.10004615783691406
1761311879332309500,3.4053095703125,-7.036600112915039,-1.4925286769866943,-1.0423822402954102
1761311879350922000,3.423921875,-7.839405536651611,-1.5185611248016357,-1.600492238998413
1761311879369536300,3.442536376953125,-7.0845947265625,-1.955732822418213,-2.187070846557617
1761311879388148700,3.461148681640625,-6.696415424346924,-3.266934871673584,-0.9485966563224792
1761311879406763000,3.479762939453125,-6.273151397705078,-4.299443244934082,0.12453734874725342
1761311879425375500,3.49837548828125,-5.960205078125,-5.104682922363281,0.34075284004211426
1761311879443989500,3.516989501953125,-6.135704040527344,-5.476091384887695,0.24735787510871887
1761311879462602200,3.535602294921875,-6.500576019287109,-5.371103763580322,0.40257230401039124
1761311879481216300,3.55421630859375,-6.490868091583252,-4.88942813873291,0.9114315509796143
1761311879499829000,3.5728291015625,-5.65082311630249,-5.045224189758301,1.373684287071228
1761311879518443000,3.591443115234375,-4.693520545959473,-4.446867942810059,0.7687777280807495
1761311879537055700,3.6100556640625,-3.6941077709198,-2.3473877906799316,0.007374167442321777
1761311879555669800,3.628669677734375,-1.0164289474487305,-0.7775115966796875,-0.34474921226501465
1761311879574282200,3.6472822265625,1.7545504570007324,-0.15740537643432617,-2.5172815322875977
1761311879592896500,3.665896484375,3.4250378608703613,0.5837821960449219,-3.0543341636657715
1761311879611509000,3.684509033203125,6.414064407348633,3.0328526496887207,-1.706909418106079
1761311879630123300,3.703123291015625,9.21265983581543,4.988924503326416,0.17090004682540894
1761311879648735700,3.72173583984375,9.23569393157959,6.742337226867676,0.013877570629119873
1761311879667349800,3.740349853515625,8.528600692749023,8.126949310302734,-0.6427885890007019
1761311879685962500,3.75896240234375,7.070117473602295,8.281566619873047,-1.524627923965454
1761311879704576500,3.777576416015625,6.043684482574463,7.83729362487793,-2.731236219406128
1761311879723189200,3.796189208984375,3.9233226776123047,6.480658531188965,-2.0587058067321777
1761311879741803300,3.81480322265625,0.8295478820800781,4.320981025695801,0.6593343019485474
1761311879760416000,3.833416015625,-0.8094611167907715,2.0144548416137695,3.1457102298736572
1761311879779030000,3.852030029296875,-0.8465232849121094,-0.11090326309204102,4.32384729385376
1761311879797642500,3.870642578125,-1.2315196990966797,-1.8601469993591309,3.568336248397827
1761311879816256800,3.8892568359375,-3.523256778717041,-3.565351963043213,2.4202375411987305
1761311879834869200,3.907869140625,-4.37842321395874,-3.717000961303711,0.7988993525505066
1761311879853483500,3.9264833984375,-5.290693283081055,-2.3212544918060303,-0.9604579210281372
1761311879872096000,3.945095947265625,-6.462338447570801,-1.6747124195098877,-1.7769994735717773
1761311879890710000,3.9637099609375,-5.88356876373291,-0.05439901351928711,-2.9695017337799072
1761311879909322800,3.98232275390625,-5.516933441162109,0.5727034211158752,-1.7632416486740112
1761311879927936800,4.000936767578125,-5.293568134307861,1.5698760747909546,-0.9657951593399048
1761311879946549500,4.019549560546875,-4.835596561431885,2.4666919708251953,-0.4762493371963501
1761311879965163500,4.03816357421875,-3.937560558319092,2.4742305278778076,0.3365839719772339
1761311879983776300,4.0567763671875,-3.466224193572998,0.7172473073005676,2.1059582233428955
1761311880002390300,4.075390380859375,-3.2390756607055664,-0.1538972556591034,2.637497663497925
1761311880021002800,4.094002685546875,-3.301974296569824,0.01898258924484253,2.5100016593933105
1761311880039617000,4.112616943359375,-3.234773635864258,-0.48171594738960266,2.653235912322998
1761311880058229500,4.1312294921875,-2.419058322906494,-0.7402504682540894,2.3939836025238037
1761311880076843800,4.14984375,-0.4691333770751953,-1.3301011323928833,1.3921767473220825
1761311880095456300,4.168456298828125,4.386386871337891,-1.0259478092193604,0.04964089393615723
1761311880114070300,4.1870703125,7.417793273925781,-0.9249151349067688,-0.630813717842102
1761311880132683000,4.20568310546875,8.132979393005371,-0.19710278511047363,-0.4584333896636963
1761311880151297000,4.224297119140625,8.198495864868164,0.8979647159576416,-1.9084960222244263
1761311880169909800,4.24290966796875,7.72895622253418,1.8861191272735596,-3.0328402519226074
1761311880188523800,4.261523681640625,8.32840347290039,3.031503915786743,-3.854581832885742
1761311880207136500,4.280136474609375,9.429337501525879,3.872079372406006,-3.6597800254821777
1761311880225750500,4.29875048828125,9.58293342590332,1.5640037059783936,-0.9613335132598877
1761311880244363000,4.317363037109375,11.934402465820312,1.5234748125076294,-0.8889678716659546
1761311880262977300,4.335977294921875,11.122418403625488,1.6358616352081299,-1.640520691871643
1761311880281589800,4.35458984375,6.895106315612793,1.9225181341171265,1.3827359676361084
1761311880300203800,4.373203857421875,3.0645599365234375,1.5282140970230103,4.218238830566406
1761311880318816500,4.39181640625,0.7273473739624023,0.554168701171875,5.0328497886657715
1761311880337430500,4.410430419921875,-0.8941841125488281,-0.468659907579422,4.3722429275512695
1761311880356043300,4.429043212890625,-2.2354965209960938,-0.7477452158927917,2.7998390197753906
1761311880374657300,4.4476572265625,-3.9742937088012695,-0.8295547962188721,2.0575010776519775
1761311880393269800,4.466269775390625,-5.867416858673096,-0.6641024947166443,1.6355029344558716
1761311880411884000,4.484884033203125,-7.066704750061035,-0.12772762775421143,1.0686228275299072
1761311880430496500,4.50349658203125,-7.669857978820801,-0.11810988187789917,0.639809787273407
1761311880449110800,4.52211083984375,-7.791049003601074,-0.3801473379135132,-0.3638450503349304
1761311880467723300,4.54072314453125,-7.675464630126953,-1.1528723239898682,-1.4339027404785156
1761311880486337300,4.559337158203125,-7.122276306152344,-2.254605770111084,-1.4816434383392334
1761311880504950000,4.577949951171875,-6.375555992126465,-3.588207721710205,-1.2366445064544678
1761311880523564000,4.59656396484375,-6.699461936950684,-4.727209568023682,-0.39317819476127625
1761311880542176800,4.6151767578125,-6.876021862030029,-5.557814598083496,1.0077263116836548
1761311880560790800,4.633790771484375,-6.956039905548096,-5.923964500427246,2.3427319526672363
1761311880579403300,4.6524033203125,-6.7828369140625,-5.258072853088379,2.7837347984313965
1761311880598017500,4.671017578125,-6.8810319900512695,-4.749617099761963,2.6144042015075684
1761311880616630000,4.689630126953125,-5.959064960479736,-2.9696574211120605,1.8051931858062744
1761311880635244300,4.708244384765625,-3.275186538696289,1.4322190284729004,-0.5511062145233154
1761311880653856800,4.726856689453125,0.9957485198974609,6.283599376678467,-2.4046645164489746
1761311880672470800,4.745470703125,4.641543865203857,7.7974348068237305,-3.0343265533447266
1761311880691083500,4.76408349609375,7.008086204528809,8.588763236999512,-5.327402114868164
1761311880709697500,4.782697509765625,9.281717300415039,9.765237808227539,-7.4375410079956055
1761311880728310000,4.80131005859375,10.149425506591797,9.965133666992188,-7.151218891143799
1761311880746924300,4.81992431640625,10.44188117980957,9.390329360961914,-6.055785179138184
1761311880765536800,4.838536865234375,9.794976234436035,8.778132438659668,-5.710115909576416
1761311880784151000,4.857151123046875,7.948028564453125,7.009316444396973,-4.688543796539307
1761311880802763500,4.875763427734375,4.963152885437012,4.777345657348633,-2.789754867553711
1761311880821377500,4.89437744140625,1.856919288635254,1.8389992713928223,0.19481277465820312
1761311880839990300,4.912990234375,-1.0711688995361328,-0.7974181175231934,3.2327702045440674
1761311880858604300,4.931604248046875,-3.6080546379089355,-2.685328960418701,4.134769916534424
1761311880877217000,4.950217041015625,-4.686239719390869,-3.3708701133728027,2.9612035751342773
1761311880895831000,4.9688310546875,-5.001091480255127,-4.17257833480835,1.2345383167266846
1761311880914443500,4.987443603515625,-4.925261497497559,-4.560471057891846,-0.45937198400497437
1761311880933057800,5.006057861328125,-4.455912113189697,-4.288194179534912,-0.9687792062759399
1761311880951670300,5.024670166015625,-3.7255263328552246,-3.6971182823181152,-0.6727660894393921
1761311880970284300,5.0432841796875,-3.51275634765625,-3.0419530868530273,0.3330569863319397
1761311880988897000,5.06189697265625,-3.763479232788086,-2.504894733428955,0.6693575382232666
1761311881007511000,5.080510986328125,-4.6128668785095215,-2.803915500640869,0.5810669660568237
1761311881026123800,5.099123779296875,-5.1799211502075195,-3.734755754470825,0.7840502262115479
1761311881044737800,5.11773779296875,-5.546895980834961,-4.827592372894287,1.3582264184951782
1761311881063350500,5.1363505859375,-6.137670516967773,-5.594965934753418,2.0143556594848633
1761311881081964500,5.154964599609375,-6.2328081130981445,-5.3299126625061035,2.127497911453247
1761311881100577000,5.173576904296875,-4.975069999694824,-4.238794326782227,2.400984764099121
1761311881119191300,5.19219140625,-3.8594117164611816,-4.462384223937988,3.526881217956543
1761311881137803800,5.2108037109375,-3.1956686973571777,-3.8864872455596924,3.2789485454559326
1761311881156417800,5.229417724609375,-2.1324009895324707,-1.1364316940307617,0.5859328508377075
1761311881175030500,5.248030517578125,-0.22772693634033203,2.4208993911743164,-1.8936553001403809
1761311881193644500,5.26664453125,3.2814078330993652,7.2596893310546875,-3.7251052856445312
1761311881212257300,5.28525732421875,5.143784523010254,10.341079711914062,-3.108325481414795
1761311881230871300,5.303871337890625,7.440155982971191,11.142484664916992,-0.9766232967376709
1761311881249483800,5.32248388671875,8.294814109802246,11.714116096496582,-1.3027000427246094
1761311881268098000,5.34109814453125,8.48135757446289,11.14693832397461,-4.29095458984375
1761311881286710500,5.35971044921875,7.37617826461792,8.908029556274414,-6.484895706176758
1761311881305324500,5.378324462890625,5.8036065101623535,6.8745903968811035,-7.062971115112305
1761311881323937300,5.396937255859375,3.6773276329040527,3.977454662322998,-5.048017978668213
1761311881342551300,5.41555126953125,0.8679714202880859,1.3706092834472656,-0.9995386600494385
1761311881361163800,5.434163818359375,-2.1017911434173584,-0.772885799407959,3.26617693901062
1761311881379778000,5.452778076171875,-3.8716092109680176,-2.611550807952881,5.101842403411865
1761311881398390500,5.471390625,-4.512998104095459,-3.769810199737549,4.833712577819824
1761311881417004800,5.4900048828125,-4.983090400695801,-4.602627754211426,4.198261260986328
1761311881435617300,5.5086171875,-4.549124717712402,-5.099922180175781,3.2464139461517334
1761311881454231300,5.527231201171875,-4.001652240753174,-5.049149036407471,1.9899110794067383
1761311881472844000,5.545843994140625,-2.8017306327819824,-5.042730808258057,1.329626202583313
1761311881491458000,5.5644580078125,-1.0130419731140137,-4.712353706359863,0.7176527976989746
1761311881510070800,5.58307080078125,0.1117711067199707,-4.853894233703613,0.8506283760070801
1761311881528684800,5.601684814453125,0.13564777374267578,-5.261124610900879,1.2674590349197388
1761311881547297300,5.62029736328125,-0.9011597633361816,-5.347541332244873,1.2642298936843872
1761311881565911600,5.63891162109375,-1.9861903190612793,-5.419308662414551,1.6033605337142944
1761311881584524000,5.65752392578125,-2.0636963844299316,-5.262438774108887,1.772568941116333
1761311881603138000,5.676137939453125,-3.175121307373047,-5.40533447265625,1.8238791227340698
1761311881621750800,5.694750732421875,-3.998600721359253,-5.465301513671875,1.403820514678955
1761311881640364800,5.71336474609375,-4.080018997192383,-4.482597351074219,0.517013669013977
1761311881658977300,5.731977294921875,-3.9917309284210205,-2.575794219970703,0.44444572925567627
1761311881677591600,5.750591552734375,-2.8171534538269043,0.6296038627624512,0.5951893329620361
1761311881696204000,5.7692041015625,-1.0417256355285645,4.042091369628906,0.3975214958190918
1761311881714818000,5.787818115234375,1.229560375213623,6.18673038482666,0.28135180473327637
1761311881733430800,5.8064306640625,4.268879413604736,6.750483512878418,-0.20618700981140137
1761311881752044800,5.825044921875,8.631839752197266,6.457562446594238,-2.087818145751953
1761311881770657500,5.843657470703125,10.176849365234375,6.702877044677734,-3.0018723011016846
1761311881789271600,5.862271484375,9.016378402709961,7.732048511505127,-1.4331448078155518
1761311881807884000,5.880884033203125,5.979369163513184,8.324607849121094,0.8854535818099976
1761311881826498300,5.899498291015625,3.080502986907959,9.078266143798828,-0.08311092853546143
1761311881845110800,5.91811083984375,0.5420002937316895,8.072929382324219,-0.820891261100769
1761311881863724800,5.936724853515625,-1.7945480346679688,4.8818793296813965,-0.49934208393096924
1761311881882337500,5.955337646484375,-2.8957486152648926,1.463658332824707,0.32970279455184937
1761311881900951600,5.97395166015625,-2.294957160949707,-0.04173755645751953,1.5863324403762817
1761311881919564000,5.99256396484375,-1.2821235656738281,-0.7300634384155273,3.59702730178833
1761311881938178300,6.01117822265625,-0.41560888290405273,-1.7052316665649414,5.5614752769470215
1761311881956790800,6.029790771484375,-0.3928365707397461,-2.862325429916382,5.371618747711182
1761311881975405000,6.048405029296875,-1.1630134582519531,-3.3504974842071533,3.4894964694976807
1761311881994017500,6.067017578125,-2.286174774169922,-2.9272401332855225,1.3351889848709106
1761311882012631600,6.085631591796875,-3.5262961387634277,-2.595529079437256,-0.435302197933197
1761311882031244300,6.104244384765625,-4.410098075866699,-2.742079257965088,-1.1867647171020508
1761311882049858300,6.1228583984375,-5.0178542137146,-3.4778125286102295,-0.6848403811454773
1761311882068470800,6.141470703125,-5.474959373474121,-4.416750907897949,0.22516250610351562
1761311882087085000,6.1600849609375,-5.511872291564941,-5.052021503448486,0.6982343196868896
1761311882105697500,6.178697509765625,-5.473567008972168,-5.515764236450195,0.8653322458267212
1761311882124311600,6.1973115234375,-5.442297458648682,-6.293387413024902,1.1197277307510376
1761311882142924300,6.21592431640625,-4.902610778808594,-6.4540228843688965,1.0539823770523071
1761311882161538300,6.234538330078125,-4.183222770690918,-5.683691501617432,-0.13144159317016602
1761311882180151000,6.253151123046875,-3.7016384601593018,-4.418577194213867,-1.3977028131484985
1761311882198765000,6.27176513671875,-3.137517213821411,-2.3649725914001465,-2.459552764892578
1761311882217377500,6.29037744140625,-1.2078509330749512,1.1938881874084473,-2.564286708831787
1761311882235991800,6.30899169921875,2.2744102478027344,5.78839635848999,-2.540639638900757
1761311882254604300,6.327604248046875,5.078711986541748,6.762105941772461,-1.8607017993927002
1761311882273218300,6.34621826171875,7.500676155090332,5.780262470245361,-1.5420454740524292
1761311882291831000,6.3648310546875,9.637308120727539,6.715461730957031,-2.291586399078369
1761311882310445000,6.383445068359375,9.482986450195312,7.836984157562256,-2.931684970855713
1761311882329057500,6.4020576171875,7.2258429527282715,8.668432235717773,-4.452463626861572
1761311882347671800,6.420671875,5.302159309387207,9.407614707946777,-5.521223068237305
1761311882366284300,6.4392841796875,3.771622657775879,8.659720420837402,-5.325253009796143
1761311882384898300,6.457898193359375,2.274609088897705,5.757991790771484,-3.859889268875122
1761311882403511000,6.476510986328125,1.4400477409362793,2.9350438117980957,-1.0897421836853027
1761311882422125000,6.495125,0.9882369041442871,0.8514952659606934,1.8179575204849243
1761311882440737800,6.51373779296875,0.46486759185791016,-1.072443962097168,3.5375499725341797
1761311882459351800,6.532351806640625,-0.06626701354980469,-2.2781715393066406,3.2678802013397217
1761311882477964300,6.55096435546875,-0.9413299560546875,-2.9396798610687256,1.9944425821304321
1761311882496578600,6.56957861328125,-2.0694313049316406,-3.1286520957946777,0.4309825897216797
1761311882515191000,6.58819091796875,-3.095757007598877,-2.4443166255950928,-1.0587141513824463
1761311882533805000,6.60680517578125,-3.6844844818115234,-1.7318377494812012,-1.58531653881073
1761311882552417800,6.625417724609375,-3.829714775085449,-2.0483572483062744,-0.4855251908302307
1761311882571031800,6.64403173828125,-3.6822547912597656,-2.809990882873535,1.3048346042633057
1761311882589644300,6.662644287109375,-3.7475242614746094,-3.638585090637207,2.636225938796997
1761311882608258600,6.681258544921875,-3.7276597023010254,-4.276237964630127,3.0442638397216797
1761311882626871000,6.69987109375,-3.956489324569702,-5.145483016967773,2.9175615310668945
1761311882645485300,6.7184853515625,-4.2706403732299805,-6.037275791168213,2.1894378662109375
1761311882664097800,6.737097900390625,-4.376535415649414,-6.22520637512207,1.2759393453598022
1761311882682711800,6.7557119140625,-4.265755653381348,-5.463178634643555,0.695325493812561
1761311882701324300,6.77432421875,-4.1537017822265625,-4.480015277862549,0.5824974775314331
1761311882719938600,6.7929384765625,-3.8564581871032715,-2.9487576484680176,0.0015082359313964844
1761311882738551000,6.811551025390625,-2.9236249923706055,-0.799288272857666,-0.6825318336486816
1761311882757165300,6.830165283203125,-1.5473651885986328,1.328484058380127,-1.490074872970581
1761311882775777800,6.84877783203125,0.17228126525878906,3.6856889724731445,-2.927849769592285
1761311882794391800,6.867391845703125,2.6143064498901367,5.829885005950928,-2.765019416809082
1761311882813004500,6.886004638671875,4.27730655670166,6.279057502746582,-0.8693214654922485
1761311882831618600,6.90461865234375,4.3892717361450195,7.009411811828613,-0.8727225065231323
1761311882850231300,6.923231201171875,3.888030529022217,8.070528984069824,-2.2309834957122803
1761311882868845300,6.94184521484375,1.9657797813415527,8.125054359436035,-2.3005242347717285
1761311882887457800,6.960457763671875,0.21648883819580078,8.329936027526855,-2.4583380222320557
1761311882906072000,6.979072021484375,-0.6947975158691406,8.00726318359375,-2.961174726486206
1761311882924684500,6.9976845703125,-1.343259334564209,4.963422775268555,-1.4945564270019531
1761311882943298600,7.016298583984375,-1.0279817581176758,0.11437463760375977,1.4177913665771484
1761311882961911300,7.034911376953125,0.7409663200378418,-2.4241256713867188,2.4427614212036133
1761311882980525300,7.053525390625,2.561474323272705,-2.940950393676758,2.9917593002319336
1761311882999137800,7.0721376953125,2.080141544342041,-3.14909291267395,3.337063789367676
1761311883017752000,7.090751953125,0.11634588241577148,-3.0840933322906494,3.7033493518829346
1761311883036364500,7.109364501953125,-1.6409921646118164,-2.8833367824554443,2.8052749633789062
1761311883054978600,7.127978515625,-2.0431466102600098,-2.0701048374176025,1.1717393398284912
1761311883073591300,7.14659130859375,-2.5636143684387207,-1.759317398071289,-0.6778085231781006
1761311883092205300,7.165205322265625,-3.39030122756958,-2.3281502723693848,-1.0048609972000122
1761311883110818000,7.183818115234375,-4.137141227722168,-3.293644905090332,-0.4217348098754883
1761311883129432000,7.20243212890625,-4.315088748931885,-3.894991636276245,-0.08995175361633301
1761311883148044500,7.22104443359375,-4.255704402923584,-4.172630786895752,0.15712928771972656
1761311883166658800,7.239658935546875,-3.724219799041748,-4.25224494934082,0.31948912143707275
1761311883185271300,7.258271240234375,-3.315196990966797,-4.423853397369385,0.42353320121765137
1761311883203885300,7.27688525390625,-3.286714553833008,-4.46500825881958,0.30472898483276367
1761311883222498000,7.295498046875,-2.6076903343200684,-3.509117364883423,0.12573933601379395
1761311883241112000,7.314112060546875,-1.5407371520996094,-2.289482593536377,0.6989237070083618
1761311883259724800,7.332724853515625,-0.7035512924194336,-1.0810956954956055,1.8507416248321533
1761311883278338800,7.3513388671875,-0.210052490234375,0.9738955497741699,2.4164702892303467
1761311883296951300,7.369951416015625,0.6939945220947266,2.7058377265930176,1.4431629180908203
1761311883315565600,7.388565673828125,2.93851375579834,3.8880558013916016,-0.22733765840530396
1761311883334178000,7.407177978515625,5.021015167236328,3.147308826446533,-1.2884807586669922
1761311883352792000,7.4257919921875,6.146471977233887,3.9856209754943848,-2.133185386657715
1761311883371404800,7.44440478515625,4.662391662597656,6.494488716125488,-2.0828723907470703
1761311883390018800,7.463018798828125,1.985459327697754,9.07453727722168,-1.9903695583343506
1761311883408631300,7.48163134765625,-0.45833539962768555,10.422677993774414,-1.8829700946807861
1761311883427245600,7.50024560546875,-0.8464455604553223,10.225202560424805,-2.454528331756592
1761311883445858000,7.518858154296875,-0.19638633728027344,6.326871395111084,-0.5151855945587158
1761311883464472000,7.53747216796875,0.8833785057067871,2.597351551055908,1.845606803894043
1761311883483084800,7.556084716796875,2.7198591232299805,0.3901252746582031,3.835392951965332
1761311883501698800,7.57469873046875,3.597909927368164,-1.1500663757324219,4.679954528808594
1761311883520311600,7.5933115234375,2.867382049560547,-3.0231919288635254,3.8139448165893555
1761311883538925600,7.611925537109375,1.4550771713256836,-2.6837074756622314,0.35750633478164673
1761311883557538000,7.6305380859375,-1.6594476699829102,-1.0207734107971191,-2.634089469909668
1761311883576152300,7.64915234375,-4.229339599609375,-0.002800464630126953,-2.4118356704711914
1761311883594764800,7.667764892578125,-4.707425594329834,0.3548107147216797,-2.5469582080841064
1761311883613378800,7.68637890625,-4.360505104064941,0.27683162689208984,-3.735766649246216
1761311883631991600,7.704991455078125,-3.318877696990967,-0.9946870803833008,-3.988269805908203
1761311883650605600,7.72360546875,-1.6811518669128418,-2.749462366104126,-2.9135236740112305
1761311883669218000,7.742218017578125,-0.2754669189453125,-3.605463743209839,-1.4941720962524414
1761311883687832300,7.760832275390625,-0.562798023223877,-4.453369140625,-0.0483931303024292
1761311883706444800,7.77944482421875,-1.827207088470459,-5.066535949707031,1.012509822845459
1761311883725059000,7.79805908203125,-2.7487850189208984,-5.486239433288574,1.8971456289291382
1761311883743671600,7.816671630859375,-3.2957687377929688,-5.84797477722168,2.011371612548828
1761311883762285600,7.83528564453125,-3.784050703048706,-5.00852632522583,0.7292408347129822
1761311883780898300,7.853898193359375,-3.285876750946045,-2.236751079559326,-1.307662844657898
1761311883799512300,7.87251220703125,-2.0738210678100586,0.7891974449157715,-1.683893084526062
1761311883818124800,7.891124755859375,-1.08921480178833,4.903416633605957,-1.3572359085083008
1761311883836739000,7.909739013671875,0.023743152618408203,7.0553812980651855,-0.5774549245834351
1761311883855351600,7.9283515625,1.798250675201416,4.519768714904785,0.9817421436309814
1761311883873965600,7.946965576171875,4.309413433074951,2.5695629119873047,0.810577929019928
1761311883892578300,7.965578369140625,11.899175643920898,5.340243339538574,-2.962216854095459
1761311883911192300,7.9841923828125,12.575928688049316,3.5927066802978516,-1.7230674028396606
1761311883929805000,8.00280517578125,10.038435935974121,2.4475278854370117,-0.37162190675735474
1761311883948419000,8.021419189453125,7.401915550231934,2.2998218536376953,0.2222951054573059
1761311883967031600,8.040031494140624,1.1512746810913086,0.8748936653137207,0.841977059841156
1761311883985645800,8.058645751953126,-3.7002758979797363,0.12538957595825195,1.6391358375549316
1761311884004258300,8.07725830078125,-6.662410736083984,-0.5835070610046387,2.1446518898010254
1761311884022872300,8.095872314453125,-8.41031551361084,-1.1292428970336914,0.6072719097137451
1761311884041485000,8.114485107421874,-9.016544342041016,-1.9191420078277588,0.20663100481033325
1761311884060099000,8.13309912109375,-8.513619422912598,-3.6948306560516357,0.6928160786628723
1761311884078711600,8.151711669921875,-6.968317031860352,-4.8338727951049805,0.36594563722610474
1761311884097325800,8.170325927734375,-4.705978870391846,-3.8877439498901367,-1.1334073543548584
1761311884115938300,8.188938232421876,-2.439243793487549,-2.711548328399658,-2.1179354190826416
1761311884134552300,8.20755224609375,-0.9248247146606445,-1.7994225025177002,-0.6848443746566772
1761311884153165000,8.2261650390625,-0.22501659393310547,-0.6615378856658936,-0.04066622257232666
1761311884171779000,8.244779052734375,-0.6470823287963867,-0.5008165240287781,0.5873206853866577
1761311884190391600,8.2633916015625,-0.8316965103149414,-0.3134849965572357,0.1877458095550537
1761311884209005800,8.282005859375,-0.7411823272705078,-0.14659154415130615,-0.5835458040237427
1761311884227618300,8.300618408203125,-1.7007007598876953,-0.5775885581970215,-0.3104732036590576
1761311884246232300,8.319232421875,-3.936257839202881,-0.25265130400657654,0.10586690902709961
1761311884264845000,8.337844970703125,-5.294640064239502,-0.03587303310632706,0.3886291980743408
1761311884283459000,8.356458984375,-3.7231640815734863,-0.19783678650856018,-0.7300522327423096
1761311884302071800,8.37507177734375,0.5981378555297852,0.3155309557914734,-1.1928969621658325
1761311884320685800,8.393685791015624,4.631260871887207,-0.6556007266044617,0.06885731220245361
1761311884339298300,8.41229833984375,7.816506385803223,-1.562263011932373,0.844718337059021
1761311884357912600,8.43091259765625,9.144318580627441,-1.68586003780365,-1.8439216613769531
1761311884376525000,8.449525146484374,5.486717224121094,0.24824786186218262,-2.3952414989471436
1761311884395139000,8.46813916015625,4.018857002258301,3.4241831302642822,1.4820934534072876
1761311884413751800,8.486751708984375,8.895672798156738,3.9407546520233154,1.4114973545074463
1761311884432365800,8.50536572265625,13.19794750213623,2.972154140472412,-2.0312721729278564
1761311884450978300,8.523978271484374,11.922011375427246,2.8952062129974365,-3.2205851078033447
1761311884469592600,8.542592529296876,8.633574485778809,3.121263027191162,-2.201859712600708
1761311884488205000,8.561205078125,4.9027862548828125,2.301736354827881,0.689415454864502
1761311884506819300,8.5798193359375,1.6177387237548828,0.923652172088623,2.6807472705841064
1761311884525431800,8.598431884765626,0.043654441833496094,-1.224360466003418,1.2499181032180786
1761311884544045800,8.6170458984375,-1.5469756126403809,-3.6705498695373535,-0.2575056552886963
1761311884562658600,8.635658447265625,-2.9528985023498535,-4.827895641326904,-1.8671703338623047
1761311884581272600,8.6542724609375,-4.493595123291016,-5.463288307189941,-1.1488285064697266
1761311884599885000,8.672885009765626,-5.776171684265137,-5.306488513946533,-0.5514216423034668
1761311884618499300,8.691499267578125,-6.327404499053955,-5.187528610229492,0.26330113410949707
1761311884637111800,8.71011181640625,-6.5368804931640625,-4.918946743011475,1.5526224374771118
1761311884655725800,8.728725830078124,-6.212793350219727,-4.364898681640625,2.8151330947875977
1761311884674338600,8.747338623046875,-5.6905107498168945,-3.8408238887786865,3.649125099182129
1761311884692952600,8.76595263671875,-4.874785423278809,-4.006606101989746,4.1461181640625
1761311884711565000,8.78456494140625,-4.133315086364746,-4.471114158630371,3.647731304168701
1761311884730179300,8.803179443359374,-3.4118337631225586,-4.876249313354492,2.9813239574432373
1761311884748791800,8.821791748046875,-3.0483779907226562,-4.849763870239258,2.588982105255127
1761311884767405800,8.84040576171875,-3.1420538425445557,-4.533559322357178,2.397926092147827
1761311884786018600,8.8590185546875,-3.363579511642456,-3.669837236404419,1.7395414113998413
1761311884804632600,8.877632568359376,-3.6955952644348145,-2.3225789070129395,0.8428990840911865
1761311884823245300,8.896245361328125,-3.553072452545166,-0.5020785331726074,-0.3815934658050537
1761311884841859300,8.914859375,-2.1670045852661133,1.518782615661621,-0.9708123207092285
1761311884860471800,8.933471923828124,0.8939981460571289,4.624937057495117,-3.3398709297180176
1761311884879086000,8.952086181640626,4.155023097991943,6.891135215759277,-4.3773088455200195
1761311884897698600,8.970698486328125,5.866654396057129,6.756758213043213,-3.0668282508850098
1761311884916312600,8.9893125,6.8946852684021,7.3148369789123535,-3.8306519985198975
1761311884934925300,9.00792529296875,7.823583602905273,8.542139053344727,-5.102560043334961
1761311884953539300,9.026539306640625,7.511608123779297,8.230256080627441,-5.187294960021973
1761311884972151800,9.04515185546875,6.70609712600708,8.673604965209961,-6.333141326904297
1761311884990766000,9.06376611328125,7.031851291656494,7.877010822296143,-4.390085220336914
1761311885009378600,9.082378662109376,7.5175700187683105,4.945900917053223,0.18198585510253906
1761311885027992600,9.10099267578125,6.0736565589904785,1.5721678733825684,3.0206620693206787
1761311885046605300,9.119605224609375,3.349565029144287,-0.7390060424804688,3.3410704135894775
1761311885065219300,9.13821923828125,0.4658470153808594,-2.3270998001098633,2.9286749362945557
1761311885083831800,9.156831787109375,-2.156804084777832,-3.8049674034118652,2.5493276119232178
1761311885102446000,9.175446044921875,-4.692978858947754,-4.931179523468018,2.5239391326904297
1761311885121058600,9.19405859375,-6.089864253997803,-5.219815254211426,1.76518976688385
1761311885139672600,9.212672607421876,-6.00344181060791,-5.1545891761779785,0.8886219263076782
1761311885158285300,9.231285400390625,-5.097191333770752,-5.087457180023193,0.18750429153442383
1761311885176899300,9.2498994140625,-3.5074095726013184,-4.90208625793457,0.736854076385498
1761311885195511800,9.26851171875,-2.8498470783233643,-5.368596076965332,2.043327808380127
1761311885214126000,9.2871259765625,-3.0655078887939453,-5.676433086395264,2.9121336936950684
1761311885232738600,9.305738525390625,-3.5473785400390625,-5.9281134605407715,3.1418981552124023
1761311885251352600,9.3243525390625,-3.9197564125061035,-5.928906440734863,2.8826446533203125
1761311885269965300,9.34296533203125,-4.118775367736816,-5.588916301727295,2.1934096813201904
1761311885288579300,9.361579345703126,-3.9238622188568115,-4.851068496704102,1.30813467502594
1761311885307192000,9.380192138671875,-3.2523128986358643,-3.5593135356903076,0.6555507183074951
1761311885325806000,9.39880615234375,-2.469257116317749,-1.5456876754760742,0.09675431251525879
1761311885344418600,9.41741845703125,-1.656815767288208,0.6618881225585938,-0.2679097652435303
1761311885363032600,9.436032470703125,-1.1450657844543457,2.1875205039978027,-0.8546533584594727
1761311885381645300,9.454645263671875,-0.068878173828125,3.9698543548583984,-2.3391478061676025
1761311885400259300,9.47325927734375,1.5709514617919922,6.337578296661377,-3.086625814437866
1761311885418872000,9.4918720703125,3.2030673027038574,8.540323257446289,-2.5973734855651855
1761311885437486000,9.510486083984375,3.822844982147217,9.746691703796387,-2.620190382003784
1761311885456098600,9.5290986328125,4.519349575042725,10.384013175964355,-4.152327537536621
1761311885474712800,9.547712890625,5.192310333251953,9.108720779418945,-4.3643598556518555
1761311885493325300,9.5663251953125,5.227755546569824,8.100852966308594,-5.2162699699401855
1761311885511939300,9.584939208984375,4.875333786010742,6.822816371917725,-5.174010753631592
1761311885530552000,9.603552001953124,3.396669864654541,4.4443817138671875,-2.9842755794525146
1761311885549166000,9.622166015625,0.5152959823608398,1.987297534942627,-0.5109894275665283
1761311885567778600,9.640778564453125,-1.1074872016906738,-0.23939800262451172,1.364824652671814
1761311885586392800,9.659392822265625,-0.6332097053527832,-2.406789779663086,2.7855327129364014
1761311885605005300,9.67800537109375,0.4276609420776367,-3.950768232345581,3.038262367248535
1761311885623619300,9.696619384765626,0.8466801643371582,-4.587645530700684,2.52720308303833
1761311885642232000,9.715232177734375,-0.5054678916931152,-4.714600563049316,1.7501035928726196
1761311885660846000,9.73384619140625,-2.300016403198242,-4.488582611083984,0.9894566535949707
1761311885679458600,9.75245849609375,-3.5503785610198975,-4.499855041503906,0.8701409101486206
1761311885698072800,9.77107275390625,-4.065298080444336,-4.5090179443359375,0.8683984279632568
1761311885716685300,9.789685302734375,-4.168407440185547,-4.511138916015625,0.9881576299667358
1761311885735299300,9.80829931640625,-4.276432991027832,-5.026694297790527,1.4076874256134033
1761311885753912000,9.826912109375,-4.216509819030762,-5.534887313842773,1.7928242683410645
1761311885772526000,9.845526123046875,-4.138570785522461,-5.791878700256348,2.003788948059082
1761311885791138600,9.864138671875,-3.6993353366851807,-6.057639122009277,2.1302249431610107
1761311885809752800,9.8827529296875,-2.969395399093628,-6.242839336395264,2.1948516368865967
1761311885828365300,9.901365234375,-2.698138475418091,-6.23305606842041,2.0032122135162354
1761311885846979300,9.919979248046875,-2.758727788925171,-5.445853233337402,1.1187814474105835
1761311885865592000,9.938592041015625,-2.4640145301818848,-3.0747151374816895,-0.6118698120117188
1761311885884206000,9.9572060546875,-1.7448558807373047,0.5617327690124512,-2.0399911403656006
1761311885902818600,9.975818603515625,-1.10722017288208,4.337040901184082,-1.7101879119873047
1761311885921432800,9.994432861328125,-0.1773662567138672,6.4661970138549805,-1.335219144821167
1761311885940045300,10.01304541015625,1.9784035682678223,7.45352840423584,-3.056483030319214
1761311885958659300,10.031659423828126,3.7050514221191406,7.711450576782227,-4.263091564178467
1761311885977272000,10.05027197265625,4.8926920890808105,8.745596885681152,-3.523433208465576
1761311885995886000,10.068885986328125,5.345515251159668,10.016300201416016,-3.052828788757324
1761311886014498600,10.08749853515625,4.869266986846924,10.180642127990723,-3.6208930015563965
1761311886033112800,10.10611279296875,4.235829830169678,9.952569961547852,-3.893514633178711
1761311886051725300,10.124725341796875,3.3982949256896973,7.748483657836914,-1.549474835395813
1761311886070339300,10.14333935546875,1.361865520477295,4.107172966003418,0.9709420204162598
1761311886088952000,10.1619521484375,-0.8465051651000977,1.2272329330444336,1.709146499633789
1761311886107566000,10.180566162109375,-0.8350019454956055,-0.3247041702270508,1.8427358865737915
1761311886126178600,10.199178466796875,0.1733236312866211,-1.653923511505127,2.611264705657959
1761311886144792800,10.217792724609374,0.4936561584472656,-2.9853758811950684,2.761411666870117
1761311886163405300,10.2364052734375,-0.6823005676269531,-3.870285749435425,2.0580880641937256
1761311886182019300,10.255019287109375,-1.7347931861877441,-4.425933837890625,1.0756641626358032
1761311886200632000,10.273632080078125,-2.3489131927490234,-4.920990943908691,0.21810698509216309
1761311886219246000,10.29224609375,-2.3197202682495117,-5.081804275512695,-0.5341414213180542
1761311886237858600,10.310858642578125,-2.2670421600341797,-5.315631866455078,-0.3903834819793701
1761311886256472800,10.329472900390625,-2.4192638397216797,-5.6269426345825195,1.0713036060333252
1761311886275085300,10.348085205078124,-2.39133358001709,-5.859886169433594,2.413585901260376
1761311886293699300,10.36669921875,-2.4674081802368164,-6.04158878326416,2.794799327850342
1761311886312312000,10.38531201171875,-2.820988178253174,-5.635893821716309,2.4883620738983154
1761311886340232000,10.41323193359375,-2.923887014389038,-4.522244930267334,1.4905035495758057
1761311886358846200,10.43184619140625,-2.489656448364258,-3.3441877365112305,0.5547988414764404
1761311886377458700,10.450458740234374,-1.9638762474060059,-1.9487648010253906,-0.29563188552856445
1761311886396072700,10.46907275390625,-1.7392759323120117,-0.24733543395996094,-1.3309612274169922
1761311886414685200,10.487685302734375,-1.9974985122680664,2.03475284576416,-2.516796588897705
1761311886433299500,10.506299560546875,-2.2019622325897217,4.735020637512207,-3.5100319385528564
1761311886451912000,10.524911865234374,-1.694176435470581,6.011420249938965,-2.2050111293792725
1761311886470526000,10.54352587890625,-0.4220414161682129,5.98536491394043,-1.0344207286834717
1761311886489138700,10.562138671875,1.9110102653503418,4.834826469421387,-0.8412046432495117
1761311886507752700,10.580752685546875,4.223355770111084,3.6310315132141113,-1.507049322128296
1761311886526365200,10.599365234375,5.187014579772949,3.0317978858947754,-3.1000783443450928
1761311886544979500,10.6179794921875,4.583503246307373,3.2652111053466797,-4.172957420349121
1761311886563592000,10.636592041015625,3.361330986022949,2.9044623374938965,-2.9538776874542236
1761311886582206000,10.6552060546875,1.8110456466674805,2.0191502571105957,-0.9046785831451416
1761311886600818700,10.673818603515626,0.49488306045532227,0.917994499206543,0.8730818033218384
1761311886619432700,10.6924326171875,-0.28711748123168945,-0.01616811752319336,1.970728874206543
1761311886638045200,10.711045166015625,-0.4956822395324707,-0.7841806411743164,1.934605360031128
1761311886656659500,10.729659423828124,-0.7150774002075195,-1.256974220275879,1.4171342849731445
1761311886675272000,10.74827197265625,-0.9786529541015625,-1.5959291458129883,1.1239287853240967
1761311886703192600,10.776192626953126,-0.8122515678405762,-1.5712952613830566,0.8974829912185669
1761311886721805300,10.794805419921875,-0.37349367141723633,-1.5974674224853516,0.46505117416381836
1761311886740419300,10.81341943359375,-0.2607574462890625,-1.5899744033813477,-0.15621447563171387
1761311886759032000,10.832031982421874,-0.342282772064209,-1.7450642585754395,-0.504112720489502
1761311886777646000,10.85064599609375,-2.1478400230407715,-1.130049228668213,-0.9868466854095459
1761311886796258600,10.869258544921875,-3.370023250579834,-0.8590073585510254,-0.7374532222747803
1761311886814872600,10.88787255859375,-3.7211811542510986,-0.2845611572265625,-0.021563410758972168
1761311886833485300,10.9064853515625,-3.084611654281616,0.043888092041015625,1.0721421241760254
