time,seconds_elapsed,z,y,x
1761311876130812000,0.20381201171875,-0.9852966070175171,0.045889899134635925,0.5539621114730835
1761311876149424600,0.222424560546875,-1.0054545402526855,0.22547899186611176,0.486768901348114
1761311876168038700,0.24103857421875,-0.8936695456504822,0.2468586415052414,0.4201865494251251
1761311876186651400,0.2596513671875,-0.7201889157295227,0.16500511765480042,0.3823140263557434
1761311876205265400,0.278265380859375,-0.5063923597335815,0.07276718318462372,0.36521029472351074
1761311876223878000,0.2968779296875,-0.2870981991291046,-0.0231358390301466,0.46661093831062317
1761311876242492200,0.3154921875,-0.0525328628718853,-0.08788564801216125,0.7280535697937012
1761311876261104600,0.334104736328125,0.1313321590423584,0.1259108930826187,1.0768473148345947
1761311876279719000,0.352718994140625,0.3127537965774536,0.2969481348991394,1.3804384469985962
1761311876298331400,0.371331298828125,0.527161180973053,-0.09827005118131638,1.4103699922561646
1761311876316945400,0.3899453125,0.6903337836265564,-0.8422819972038269,1.1086114645004272
1761311876335558100,0.40855810546875,0.6720083355903625,-0.912529468536377,0.6736881732940674
1761311876354172200,0.427172119140625,0.5839699506759644,0.23891763389110565,0.29618456959724426
1761311876372785000,0.445784912109375,0.7019398808479309,1.2823210954666138,0.04146125912666321
1761311876391399000,0.46439892578125,0.9529981017112732,1.2389509677886963,0.0695602297782898
1761311876410011400,0.483011474609375,1.1374739408493042,0.7501968145370483,0.4886014461517334
1761311876428625700,0.501625732421875,1.3549355268478394,0.3097759187221527,1.0090433359146118
1761311876447238100,0.520238037109375,1.608437180519104,-0.10987614840269089,1.3999855518341064
1761311876465852200,0.53885205078125,1.8533869981765747,-0.6339830756187439,1.4097591638565063
1761311876484465000,0.55746484375,2.1643083095550537,-1.6211886405944824,0.8948148488998413
1761311876503079000,0.576078857421875,2.1624755859375,-3.040797710418701,-0.06001574173569679
1761311876521691600,0.594691650390625,1.2327661514282227,-4.178271770477295,-0.8889354467391968
1761311876540305700,0.6133056640625,0.5851916670799255,-3.557574510574341,-1.4057122468948364
1761311876558918100,0.631918212890625,-0.0922379344701767,-2.4659903049468994,-1.8711779117584229
1761311876577532400,0.650532470703125,-0.7568397521972656,-1.0805124044418335,-2.120403528213501
1761311876596145000,0.669144775390625,-1.2840009927749634,0.7556943893432617,-2.149724245071411
1761311876614759200,0.68775927734375,-1.5704883337020874,2.125901222229004,-1.9518096446990967
1761311876633371600,0.70637158203125,-1.8044427633285522,3.0818772315979004,-1.5168864727020264
1761311876651986000,0.72498583984375,-2.0910065174102783,3.182056188583374,-1.1406044960021973
1761311876670598400,0.743598388671875,-2.104445219039917,2.5150108337402344,-0.8730534315109253
1761311876689212400,0.76221240234375,-1.7097615003585815,2.0183920860290527,-0.6665870547294617
1761311876707825200,0.7808251953125,-1.1709941625595093,1.4851224422454834,-0.409420371055603
1761311876726439200,0.799439208984375,-0.6303943991661072,1.3153069019317627,-0.4619532525539398
1761311876745052000,0.818052001953125,-0.062306419014930725,1.343405842781067,-0.7429429888725281
1761311876763666000,0.836666015625,0.2718270421028137,0.9334509968757629,-0.9200887084007263
1761311876782278700,0.855278564453125,0.3830012381076813,0.48753246665000916,-0.7777612805366516
1761311876800892700,0.873892578125,0.41537612676620483,0.34153997898101807,-0.3623851239681244
1761311876819505200,0.892505126953125,0.47768256068229675,0.5687751770019531,0.14958122372627258
1761311876838119400,0.911119384765625,0.5430431962013245,0.924288272857666,0.6828508973121643
1761311876856732000,0.92973193359375,0.4709632396697998,0.8754204511642456,1.0640195608139038
1761311876875346200,0.94834619140625,0.3408527672290802,0.030007870867848396,1.0542460680007935
1761311876893958700,0.966958740234375,0.12033691257238388,-1.5368916988372803,0.47149771451950073
1761311876912572700,0.98557275390625,-0.2516690790653229,-2.363978862762451,-0.3581092059612274
1761311876931185400,1.004185302734375,-0.1423274129629135,-0.6046624183654785,-0.5260922312736511
1761311876949799400,1.02279931640625,-0.020157959312200546,0.25113457441329956,-0.7160657048225403
1761311876968412200,1.041412109375,0.5008947253227234,1.260941505432129,-0.5163186192512512
1761311876987026200,1.060026123046875,1.1087641716003418,1.6482186317443848,-0.06062658876180649
1761311877005639000,1.078638916015625,1.5229185819625854,0.637190043926239,0.3841465711593628
1761311877024253000,1.0972529296875,1.543076515197754,-0.7140040993690491,0.5319716334342957
1761311877042865700,1.11586572265625,1.202223777770996,-1.397542119026184,0.5112028121948242
1761311877061479700,1.134479736328125,0.7740198373794556,-1.6718889474868774,0.11903885751962662
1761311877080092200,1.153092041015625,0.6830036044120789,-1.6670022010803223,-0.8186880350112915
1761311877098706400,1.17170654296875,0.8925241827964783,-1.4060940742492676,-1.606680989265442
1761311877117319000,1.19031884765625,0.9163472652435303,-0.5820610523223877,-1.7496192455291748
1761311877135933200,1.20893310546875,0.7630245685577393,0.3769691288471222,-1.3586770296096802
1761311877154545700,1.227545654296875,0.342074453830719,0.8815289735794067,-0.8895463347434998
1761311877173160000,1.246159912109375,-0.2345653474330902,0.8259418606758118,-0.9255862832069397
1761311877191772400,1.2647724609375,-0.8002098798751831,0.562666654586792,-1.0263761281967163
1761311877210386400,1.283386474609375,-1.1563338041305542,-0.0017561858985573053,-0.830294132232666
1761311877228999200,1.301999267578125,-1.1593880653381348,-0.2919086217880249,-0.3727695345878601
1761311877247613200,1.32061328125,-0.8912261724472046,-0.2143310308456421,0.12636902928352356
1761311877266226000,1.339225830078125,-0.5076140761375427,-0.03229855000972748,0.5411342978477478
1761311877284840000,1.35783984375,-0.12461283802986145,0.1937149316072464,0.7628718614578247
1761311877303452700,1.37645263671875,0.25777754187583923,0.5284592509269714,0.8111287951469421
1761311877322066700,1.395066650390625,0.44042086601257324,0.6378008723258972,0.8746569156646729
1761311877340679400,1.413679443359375,0.42637139558792114,0.7288171648979187,0.9705599546432495
1761311877359293400,1.43229345703125,0.5344913601875305,0.8992435336112976,1.0114866495132446
1761311877377906000,1.450906005859375,0.873587965965271,1.0666157007217407,0.8221240639686584
1761311877396520200,1.469520263671875,1.084941029548645,0.4710395932197571,0.36276692152023315
1761311877415132700,1.488132568359375,0.7074374556541443,-1.5729316473007202,-0.598783016204834
1761311877433747000,1.506746826171875,-0.5283828973770142,-0.3407764136791229,-0.462564080953598
1761311877452359400,1.525359375,-1.0304993391036987,-0.7928034067153931,-0.5181511640548706
1761311877470973700,1.5439736328125,-0.4709632396697998,-1.7476340532302856,-0.5150969624519348
1761311877489586200,1.562586181640625,-0.04581354558467865,-1.5167337656021118,-0.2921377122402191
1761311877508200200,1.5812001953125,0.2510582208633423,-0.8557206392288208,-0.3202366828918457
1761311877526813000,1.59981298828125,0.5570927262306213,-0.059175826609134674,-0.24998924136161804
1761311877545427000,1.618427001953125,0.38849884271621704,0.42095011472702026,-0.27503398060798645
1761311877564039700,1.637039794921875,0.23273280262947083,-0.16485241055488586,-0.5548020005226135
1761311877582653700,1.65565380859375,0.11300674080848694,-1.1360995769500732,-1.102121114730835
1761311877601266200,1.67426611328125,-0.042759306728839874,-1.7622942924499512,-2.0446584224700928
1761311877619880400,1.69288037109375,-0.08002099394798279,-1.394487977027893,-2.5999186038970947
1761311877638493200,1.7114931640625,-0.2748812735080719,-0.380481481552124,-2.6426780223846436
1761311877657107200,1.730107177734375,-0.5485408306121826,0.7599703669548035,-2.18942928314209
1761311877675719700,1.7487197265625,-0.7055285573005676,1.1784007549285889,-1.5205515623092651
1761311877694334000,1.767333984375,-0.5937435626983643,0.8937458992004395,-0.9255862832069397
1761311877712946400,1.785946533203125,-0.2363978922367096,0.39468368887901306,-0.5236487984657288
1761311877731560700,1.804560791015625,0.0653606578707695,-0.17768019437789917,-0.2970244884490967
1761311877750173200,1.823173095703125,0.3530697226524353,-0.5808393955230713,0.06711684167385101
1761311877768787500,1.841787353515625,0.8161683082580566,-0.6364265084266663,0.5105919241905212
1761311877787400000,1.86039990234375,1.1069315671920776,-0.676742434501648,0.8911498188972473
1761311877806014000,1.879013916015625,1.1478583812713623,-0.5478536486625671,1.0591328144073486
1761311877824626700,1.897626708984375,0.983540415763855,-0.5863370299339294,1.0652412176132202
1761311877843240700,1.91624072265625,0.7782957553863525,-0.805631160736084,1.2100120782852173
1761311877861853400,1.934853515625,0.6286382079124451,-0.6016082167625427,1.388379454612732
1761311877880467500,1.953467529296875,0.499673068523407,-0.012140588834881783,1.5398695468902588
1761311877899080200,1.972080078125,0.4734066128730774,0.39468368887901306,1.7835975885391235
1761311877917694200,1.990694091796875,0.4324798583984375,0.1674485057592392,2.0364882946014404
1761311877936306700,2.009306640625,0.28404396772384644,-0.6058841347694397,2.239900588989258
1761311877954921000,2.0279208984375,-0.06719319522380829,-1.2607123851776123,2.2673885822296143
1761311877973533400,2.046533447265625,-0.3512371778488159,-1.2882004976272583,2.1873676776885986
1761311877992147700,2.065147705078125,-0.5289937257766724,-0.805631160736084,1.800701379776001
1761311878010760200,2.08376025390625,-0.5436540842056274,0.21020781993865967,1.5710227489471436
1761311878029374500,2.10237451171875,-0.4294256269931793,0.5229616165161133,1.2008494138717651
1761311878047987000,2.120987060546875,-0.27854636311531067,0.17294612526893616,0.6663579940795898
1761311878066601000,2.13960107421875,-0.06658235192298889,-0.23571068048477173,0.18317782878875732
1761311878085213700,2.158213623046875,0.09284878522157669,-0.5081485509872437,-0.20051060616970062
1761311878103827700,2.17682763671875,0.2583884000778198,-0.9253572225570679,-0.32512345910072327
1761311878122440400,2.1954404296875,0.4837910234928131,-1.4659570455551147,-0.3874298632144928
1761311878141054500,2.214054443359375,0.641465961933136,-1.8581973314285278,-0.774707019329071
1761311878159667200,2.232667236328125,0.664678156375885,-1.466567873954773,-1.232231616973877
1761311878178281200,2.25128125,0.4721849262714386,-0.5252522826194763,-1.4845114946365356
1761311878196894000,2.26989404296875,0.0794101431965828,0.2560213506221771,-1.5675867795944214
1761311878215508000,2.288508056640625,-0.3561239540576935,0.6115344762802124,-1.4020471572875977
1761311878234120400,2.307120361328125,-0.6951441764831543,0.645741879940033,-1.0263761281967163
1761311878252734700,2.325734619140625,-0.8429692387580872,0.4576009511947632,-0.5535803437232971
1761311878271347200,2.34434716796875,-0.7262973785400391,0.07765395939350128,0.0695602297782898
1761311878289961500,2.36296142578125,-0.4605788290500641,-0.4324035048484802,0.6889593601226807
1761311878308574000,2.381573974609375,-0.1966928243637085,-0.7689803242683411,1.1043355464935303
1761311878327188200,2.400188232421875,-0.046424392610788345,-1.0713497400283813,1.2124555110931396
1761311878345800700,2.41880078125,0.00916270911693573,-1.1379320621490479,1.0530242919921875
1761311878364414700,2.437414794921875,0.03665083646774292,-0.9100860357284546,0.8135721683502197
1761311878383027500,2.45602734375,0.02504473738372326,-0.5735092163085938,0.6052733063697815
1761311878401641500,2.474641357421875,-0.14660334587097168,-0.20822255313396454,0.51425701379776
1761311878420254200,2.493254150390625,-0.2583884000778198,0.05077667906880379,0.8184589743614197
1761311878438868200,2.5118681640625,-0.18630841374397278,0.13507360219955444,1.4659570455551147
1761311878457481000,2.53048095703125,-0.04947862774133682,-0.03840702027082443,1.8587318658828735
1761311878476095000,2.549094970703125,-0.05741964280605316,-0.3010713458061218,1.93508780002594
1761311878494707700,2.567707763671875,-0.30786702036857605,-0.704230546951294,2.1604905128479004
1761311878513321700,2.58632177734375,-0.9193251132965088,-1.001102328300476,1.9521914720535278
1761311878531934200,2.604934326171875,-1.3817365169525146,-0.3035147190093994,1.512992262840271
1761311878550548500,2.623548583984375,-1.1771026849746704,0.8632035255432129,1.2338351011276245
1761311878569161000,2.642160888671875,-0.7501204609870911,1.5150538682937622,0.8349518179893494
1761311878587775200,2.660775146484375,-0.46668729186058044,1.2316207885742188,0.34016555547714233
1761311878606387700,2.6793876953125,-0.31825143098831177,1.0965471267700195,-0.3972034156322479
1761311878625002000,2.698001953125,-0.1716480851173401,1.0745567083358765,-1.1913049221038818
1761311878643614500,2.716614501953125,-0.18814095854759216,0.8314394950866699,-1.7636687755584717
1761311878662228500,2.735228515625,-0.33535513281822205,-0.09277242422103882,-2.1888184547424316
1761311878680841200,2.75384130859375,-0.2345653474330902,-1.0029348134994507,-2.5614352226257324
1761311878699455200,2.772455322265625,0.1423274129629135,-1.1269367933273315,-2.7374355792999268
1761311878718068000,2.79106787109375,0.5137225389480591,-0.1349208950996399,-2.735603094100952
1761311878736682000,2.809681884765625,0.5320479869842529,1.1948935985565186,-2.5333364009857178
1761311878755294700,2.828294677734375,0.1056765764951706,1.9414253234863281,-2.2120306491851807
1761311878773908700,2.84690869140625,-0.37506023049354553,1.7722206115722656,-1.7655012607574463
1761311878792521200,2.865521240234375,-0.5888567566871643,1.168627142906189,-1.2584980726242065
1761311878811135500,2.884135498046875,-0.44958359003067017,0.5913764834403992,-0.6745280623435974
1761311878829748000,2.902748046875,-0.13988402485847473,0.2981698215007782,-0.016034740954637527
1761311878848362200,2.9213623046875,0.05864133685827255,-0.1740151196718216,0.6571952700614929
1761311878866974700,2.939974609375,0.0647498071193695,-0.2558686435222626,1.1055572032928467
1761311878885589000,2.958589111328125,0.01038440316915512,-0.12026055157184601,1.282702922821045
1761311878904201500,2.977201416015625,-0.14965757727622986,-0.3560476005077362,1.268653392791748
1761311878922815500,2.9958154296875,-0.3029802441596985,-0.9302440285682678,1.049970030784607
1761311878941428200,3.01442822265625,-0.24189551174640656,-1.1312127113342285,0.6571952700614929
1761311878960042200,3.033042236328125,-0.21807247400283813,-0.7378271222114563,0.24731677770614624
1761311878978655000,3.051655029296875,-0.5070032477378845,-0.3584909737110138,0.15691138803958893
1761311878997269000,3.07026904296875,-0.7849387526512146,-0.43118181824684143,0.16363070905208588
1761311879015881700,3.0888818359375,-0.9565867781639099,-0.4617241621017456,0.382924884557724
1761311879034495700,3.107495849609375,-0.9681929349899292,0.2755684554576874,1.54597806930542
1761311879053108500,3.1261083984375,-0.6688777208328247,-1.62851881980896,1.9057670831680298
1761311879071722500,3.144722412109375,-0.07635590434074402,-1.2069578170776367,2.0719175338745117
1761311879090335000,3.1633349609375,0.775852382183075,-0.9106969237327576,1.8446823358535767
1761311879108949200,3.18194921875,1.2993484735488892,-1.129991054534912,1.272929310798645
1761311879127561700,3.200561767578125,1.2217708826065063,-1.096394419670105,0.6364265084266663
1761311879146175700,3.21917578125,1.1307545900344849,-0.9717816114425659,0.15691138803958893
1761311879164788500,3.23778857421875,1.017137050628662,-1.2130663394927979,-0.3214583694934845
1761311879183402500,3.256402587890625,0.6426876783370972,-1.4800828695297241,-0.9940012097358704
1761311879202015200,3.27501513671875,0.2901524603366852,-1.9223363399505615,-1.943868637084961
1761311879220629200,3.293629150390625,0.25777754187583923,-2.1080338954925537,-2.8235650062561035
1761311879239242000,3.312241943359375,0.4703523814678192,-2.5844948291778564,-3.215118169784546
1761311879257856000,3.33085595703125,0.6921663284301758,-2.1825573444366455,-2.799131155014038
1761311879276468700,3.34946875,0.6365792155265808,-1.1458730697631836,-1.9805195331573486
1761311879295082800,3.368082763671875,0.4355340898036957,-0.04390464723110199,-1.0233218669891357
1761311879313695200,3.3866953125,0.07207997888326645,1.0812760591506958,-0.11926792562007904
1761311879332309500,3.4053095703125,-0.4043808877468109,2.4661431312561035,0.32306185364723206
1761311879350922000,3.423921875,-0.7232431769371033,2.635958671569824,0.3566584289073944
1761311879369536300,3.442536376953125,-0.8729007244110107,2.2926623821258545,0.28274592757225037
1761311879388148700,3.461148681640625,-1.018282413482666,2.3268699645996094,0.5124244689941406
1761311879406763000,3.479762939453125,-1.032942771911621,2.3048794269561768,0.8838196396827698
1761311879425375500,3.49837548828125,-0.911384105682373,2.0293872356414795,1.1257151365280151
1761311879443989500,3.516989501953125,-0.6725428104400635,1.8620151281356812,1.2912547588348389
1761311879462602200,3.535602294921875,-0.38849884271621704,1.8491873741149902,1.3321815729141235
1761311879481216300,3.55421630859375,-0.265718549489975,1.6188979148864746,1.260101556777954
1761311879499829000,3.5728291015625,-0.4227063059806824,0.877863883972168,1.1648093461990356
1761311879518443000,3.591443115234375,-0.44042086601257324,0.18821731209754944,1.0627979040145874
1761311879537055700,3.6100556640625,-0.3054236173629761,0.00862821750342846,1.0542460680007935
1761311879555669800,3.628669677734375,-0.2993151545524597,-0.6932352781295776,1.3089693784713745
1761311879574282200,3.6472822265625,-0.16065283119678497,-1.5857595205307007,1.6498221158981323
1761311879592896500,3.665896484375,0.30969956517219543,-1.8667491674423218,1.5191007852554321
1761311879611509000,3.684509033203125,0.6665107011795044,-1.4256411790847778,1.148316502571106
1761311879630123300,3.703123291015625,0.5589252710342407,0.013514995574951172,1.0652412176132202
1761311879648735700,3.72173583984375,0.5192201733589172,0.530902624130249,0.6736881732940674
1761311879667349800,3.740349853515625,0.5399889945983887,0.23036576807498932,-0.07040014863014221
1761311879685962500,3.75896240234375,0.7520293593406677,0.1802763044834137,-0.8046385645866394
1761311879704576500,3.777576416015625,1.1985586881637573,0.2890070974826813,-1.3672288656234741
1761311879723189200,3.796189208984375,1.5107016563415527,0.7886801958084106,-1.778939962387085
1761311879741803300,3.81480322265625,1.4862676858901978,0.6335249543190002,-2.5205085277557373
1761311879760416000,3.833416015625,1.2474265098571777,-0.11659546941518784,-3.574296474456787
1761311879779030000,3.852030029296875,0.9432245492935181,-0.35116082429885864,-4.424595832824707
1761311879797642500,3.870642578125,0.739201545715332,0.39468368887901306,-4.753842353820801
1761311879816256800,3.8892568359375,0.5247178077697754,1.4851224422454834,-4.847301959991455
1761311879834869200,3.907869140625,0.42637139558792114,1.6903671026229858,-4.6603827476501465
1761311879853483500,3.9264833984375,0.5662553906440735,1.8088713884353638,-4.12589168548584
1761311879872096000,3.945095947265625,0.7263737320899963,1.7025840282440186,-3.6805837154388428
1761311879890710000,3.9637099609375,1.1069315671920776,1.0653939247131348,-3.2914741039276123
1761311879909322800,3.98232275390625,1.52475106716156,0.618253767490387,-2.8296735286712646
1761311879927936800,4.000936767578125,1.8472784757614136,0.6628456115722656,-2.2352428436279297
1761311879946549500,4.019549560546875,2.107499361038208,1.098990559577942,-1.5529264211654663
1761311879965163500,4.03816357421875,2.2107326984405518,1.4814573526382446,-0.8015843033790588
1761311879983776300,4.0567763671875,1.8784316778182983,1.7068599462509155,0.012140588834881783
1761311880002390300,4.075390380859375,1.2608650922775269,1.2438377141952515,0.7811973094940186
1761311880021002800,4.094002685546875,0.6775059700012207,-0.16546325385570526,1.3175212144851685
1761311880039617000,4.112616943359375,0.17348061501979828,-1.2509387731552124,1.6479895114898682
1761311880058229500,4.1312294921875,-0.1301104724407196,-1.9351640939712524,1.6571522951126099
1761311880076843800,4.14984375,-0.1966928243637085,-2.042062282562256,1.2692642211914062
1761311880095456300,4.168456298828125,-0.08612946420907974,-1.2234506607055664,1.6101170778274536
1761311880114070300,4.1870703125,0.004886778071522713,-0.01885990984737873,2.026103973388672
1761311880132683000,4.20568310546875,0.08185353130102158,0.7593594789505005,1.9980050325393677
1761311880151297000,4.224297119140625,0.21807247400283813,0.8680903315544128,1.5349828004837036
1761311880169909800,4.24290966796875,0.3573456406593323,0.24013933539390564,0.6174902319908142
1761311880188523800,4.261523681640625,0.2773246467113495,-0.5948888659477234,-0.5511369109153748
1761311880207136500,4.280136474609375,0.34512871503829956,-0.8239566087722778,-1.6170654296875
1761311880225750500,4.29875048828125,0.6726191639900208,-0.28702184557914734,-2.233410358428955
1761311880244363000,4.317363037109375,1.1777899265289307,0.6591805219650269,-1.9023311138153076
1761311880262977300,4.335977294921875,1.475272536277771,0.9065737128257751,-1.3446274995803833
1761311880281589800,4.35458984375,1.0843302011489868,0.47348299622535706,-1.3617312908172607
1761311880300203800,4.373203857421875,0.35978904366493225,0.17172443866729736,-1.5504831075668335
1761311880318816500,4.39181640625,-0.1582094430923462,0.2969481348991394,-1.5602566003799438
1761311880337430500,4.410430419921875,-0.2602209448814392,0.5510605573654175,-1.2371183633804321
1761311880356043300,4.429043212890625,-0.130721315741539,0.6500178575515747,-0.5028799772262573
1761311880374657300,4.4476572265625,-0.1979145109653473,0.2627406716346741,0.41591063141822815
1761311880393269800,4.466269775390625,-0.5833591222763062,-0.7677586674690247,1.1556466817855835
1761311880411884000,4.484884033203125,-1.032942771911621,-1.7555750608444214,1.518489956855774
1761311880430496500,4.50349658203125,-1.3298144340515137,-1.8624732494354248,1.7017440795898438
1761311880449110800,4.52211083984375,-1.3273711204528809,-1.268653392791748,1.9228708744049072
1761311880467723300,4.54072314453125,-1.009730577468872,-0.7903599739074707,2.1061248779296875
1761311880486337300,4.559337158203125,-0.518609344959259,-0.6150468587875366,2.3235867023468018
1761311880504950000,4.577949951171875,-0.021990500390529633,-0.13125580549240112,2.6357295513153076
1761311880523564000,4.59656396484375,0.26877278089523315,0.6158103942871094,2.9668850898742676
1761311880542176800,4.6151767578125,0.1844758689403534,1.5138322114944458,3.320565700531006
1761311880560790800,4.633790771484375,-0.02870982140302658,2.0202245712280273,3.5587961673736572
1761311880579403300,4.6524033203125,-0.26816195249557495,1.7013623714447021,3.525810480117798
1761311880598017500,4.671017578125,-0.6279509663581848,1.0391275882720947,3.122040271759033
1761311880616630000,4.689630126953125,-1.1502254009246826,-0.3670428395271301,2.408494472503662
1761311880635244300,4.708244384765625,-1.6975445747375488,-1.7225892543792725,1.725567102432251
1761311880653856800,4.726856689453125,-2.0438950061798096,-1.7244218587875366,1.2790378332138062
1761311880672470800,4.745470703125,-1.9534895420074463,-1.1739721298217773,0.6895701885223389
1761311880691083500,4.76408349609375,-1.0952491760253906,-0.25770118832588196,0.12026055157184601
1761311880709697500,4.782697509765625,0.1185043677687645,0.33054471015930176,-0.305576354265213
1761311880728310000,4.80131005859375,0.8485432267189026,0.4301128387451172,-0.728893518447876
1761311880746924300,4.81992431640625,1.1521342992782593,0.1674485057592392,-1.0550858974456787
1761311880765536800,4.838536865234375,1.2993484735488892,-0.22105035185813904,-1.261552333831787
1761311880784151000,4.857151123046875,1.3402752876281738,-0.6584169864654541,-1.4350329637527466
1761311880802763500,4.875763427734375,1.3158413171768188,-1.1996276378631592,-1.6421101093292236
1761311880821377500,4.89437744140625,1.3427186012268066,-1.4079265594482422,-1.7850483655929565
1761311880839990300,4.912990234375,1.3286691904067993,-1.1012812852859497,-1.8785080909729004
1761311880858604300,4.931604248046875,1.2498698234558105,-0.514867901802063,-1.922489047050476
1761311880877217000,4.950217041015625,1.1710705757141113,0.3085542321205139,-1.7520626783370972
1761311880895831000,4.9688310546875,1.0556204319000244,1.0696699619293213,-1.4515258073806763
1761311880914443500,4.987443603515625,0.9578848481178284,1.1948935985565186,-1.085017442703247
1761311880933057800,5.006057861328125,0.6842252612113953,0.7355364561080933,-0.5688515305519104
1761311880951670300,5.024670166015625,0.42637139558792114,0.3256579339504242,0.10132429003715515
1761311880970284300,5.0432841796875,0.18936264514923096,0.39346200227737427,0.8392277956008911
1761311880988897000,5.06189697265625,-0.06841489672660828,0.7886801958084106,1.5294852256774902
1761311881007511000,5.080510986328125,-0.1582094430923462,1.2084085941314697,1.999226689338684
1761311881026123800,5.099123779296875,-0.0787992998957634,1.4454172849655151,2.183091640472412
1761311881044737800,5.11773779296875,0.04031591862440109,1.6494402885437012,2.081080198287964
1761311881063350500,5.1363505859375,0.1056765764951706,2.0318307876586914,1.7164044380187988
1761311881081964500,5.154964599609375,0.08002099394798279,2.1741580963134766,1.365167260169983
1761311881100577000,5.173576904296875,-0.047646086663007736,1.7685555219650269,1.3706648349761963
1761311881119191300,5.19219140625,-0.31092125177383423,1.2065759897232056,1.6229448318481445
1761311881137803800,5.2108037109375,-0.5656445622444153,0.5235724449157715,1.8752247095108032
1761311881156417800,5.229417724609375,-0.5937435626983643,-0.3193967640399933,2.122007131576538
1761311881175030500,5.248030517578125,-0.4966188073158264,-1.3682215213775635,2.2826597690582275
1761311881193644500,5.26664453125,-0.33474430441856384,-2.45255184173584,2.367567539215088
1761311881212257300,5.28525732421875,-0.41537612676620483,-2.195995807647705,2.3028178215026855
1761311881230871300,5.303871337890625,-1.0757020711898804,-1.5698775053024292,1.883165717124939
1761311881249483800,5.32248388671875,-1.6779974699020386,-0.30046048760414124,1.2527713775634766
1761311881268098000,5.34109814453125,-1.313321590423584,0.8143357634544373,0.699954628944397
1761311881286710500,5.35971044921875,-0.3268032968044281,1.2346750497817993,0.2540360987186432
1761311881305324500,5.378324462890625,0.618253767490387,1.0837193727493286,0.07994463294744492
1761311881323937300,5.396937255859375,1.279801368713379,1.4564125537872314,0.31389912962913513
1761311881342551300,5.41555126953125,1.686625599861145,1.9524205923080444,0.3981960713863373
1761311881361163800,5.434163818359375,1.6713544130325317,2.0348849296569824,-0.10888352245092392
1761311881379778000,5.452778076171875,1.3531030416488647,1.8192558288574219,-0.9695672988891602
1761311881398390500,5.471390625,0.9456679224967957,1.8003195524215698,-1.869956135749817
1761311881417004800,5.4900048828125,0.5247178077697754,2.154611110687256,-2.6310718059539795
1761311881435617300,5.5086171875,0.1710372269153595,2.066038131713867,-3.1332645416259766
1761311881454231300,5.527231201171875,-0.10689827054738998,1.5150538682937622,-3.2652077674865723
1761311881472844000,5.545843994140625,-0.4300364851951599,0.2047101855278015,-2.9744443893432617
1761311881491458000,5.5644580078125,-0.6065713167190552,-1.2173422574996948,-2.244405508041382
1761311881510070800,5.58307080078125,-0.6218425035476685,-1.919282078742981,-1.291483759880066
1761311881528684800,5.601684814453125,-0.4746283292770386,-1.5863703489303589,-0.337340384721756
1761311881547297300,5.62029736328125,-0.20768806338310242,-0.8416711688041687,0.3688753843307495
1761311881565911600,5.63891162109375,-0.10017894953489304,-0.8123505115509033,0.7097281813621521
1761311881584524000,5.65752392578125,-0.13744063675403595,-1.1012812852859497,1.0322555303573608
1761311881603138000,5.676137939453125,-0.14721418917179108,-0.676131546497345,1.3602805137634277
1761311881621750800,5.694750732421875,0.06169557198882103,-0.37742725014686584,1.5203224420547485
1761311881640364800,5.71336474609375,0.474017471075058,-0.4647783935070038,1.508716344833374
1761311881658977300,5.731977294921875,0.6573479771614075,-0.4098021686077118,1.3718866109848022
1761311881677591600,5.750591552734375,0.5125008225440979,-0.7524874806404114,1.0505809783935547
1761311881696204000,5.7692041015625,0.4049917459487915,-1.1776371002197266,0.45256146788597107
1761311881714818000,5.787818115234375,0.29565006494522095,-0.9424609541893005,-0.30313295125961304
1761311881733430800,5.8064306640625,0.1429382562637329,-0.4873797595500946,-0.9799517393112183
1761311881752044800,5.825044921875,0.3042019307613373,-0.1355317384004593,-1.0477557182312012
1761311881770657500,5.843657470703125,0.9090170860290527,0.6524612307548523,-0.34039464592933655
1761311881789271600,5.862271484375,1.149690866470337,0.789901852607727,0.4904339909553528
1761311881807884000,5.880884033203125,0.6622347831726074,0.16928105056285858,0.8025769591331482
1761311881826498300,5.899498291015625,0.10750912129878998,-0.5472427606582642,0.6107708811759949
1761311881845110800,5.91811083984375,-0.2999260127544403,-0.8581640720367432,-0.06551336497068405
1761311881863724800,5.936724853515625,-0.42698222398757935,-0.28396761417388916,-0.9286405444145203
1761311881882337500,5.955337646484375,-0.17958909273147583,-0.03290939703583717,-1.8491873741149902
1761311881900951600,5.97395166015625,0.2754921019077301,-0.5008183717727661,-2.6536731719970703
1761311881919564000,5.99256396484375,0.4746283292770386,-0.5368583798408508,-2.946345329284668
1761311881938178300,6.01117822265625,0.14049486815929413,-0.010918894782662392,-2.455758810043335
1761311881956790800,6.029790771484375,-0.4294256269931793,0.5089121460914612,-1.3629529476165771
1761311881975405000,6.048405029296875,-0.8741224408149719,0.4789806008338928,-0.16691401600837708
1761311881994017500,6.067017578125,-1.073258638381958,-0.33711132407188416,0.7439355850219727
1761311882012631600,6.085631591796875,-1.063485026359558,-1.3040825128555298,1.2906439304351807
1761311882031244300,6.104244384765625,-0.9523108601570129,-1.6822733879089355,1.4818390607833862
1761311882049858300,6.1228583984375,-0.9333745837211609,-1.3920445442199707,1.462291955947876
1761311882068470800,6.141470703125,-1.0109522342681885,-0.8502230048179626,1.3169103860855103
1761311882087085000,6.1600849609375,-1.1074661016464233,-0.2546469569206238,1.2008494138717651
1761311882105697500,6.178697509765625,-1.0995250940322876,0.21631628274917603,1.1391538381576538
1761311882124311600,6.1973115234375,-1.156944751739502,0.46126604080200195,1.0157626867294312
1761311882142924300,6.21592431640625,-1.2009257078170776,0.5284592509269714,0.9705599546432495
1761311882161538300,6.234538330078125,-1.0451596975326538,0.6713975071907043,1.0536351203918457
1761311882180151000,6.253151123046875,-0.7232431769371033,0.7801283001899719,1.1220500469207764
1761311882198765000,6.27176513671875,-0.3836120665073395,0.2871745824813843,1.0682954788208008
1761311882217377500,6.29037744140625,-0.24311721324920654,-1.1733611822128296,0.8349518179893494
1761311882235991800,6.30899169921875,-0.3261924386024475,-2.684062957763672,0.4843255281448364
1761311882254604300,6.327604248046875,-0.5955760478973389,-2.5386812686920166,0.05795413255691528
1761311882273218300,6.34621826171875,-0.6255075931549072,-1.0811232328414917,-0.2670929729938507
1761311882291831000,6.3648310546875,-0.2486148327589035,0.9181798100471497,-0.333064466714859
1761311882310445000,6.383445068359375,0.023212196305394173,2.0764224529266357,-0.27197974920272827
1761311882329057500,6.4020576171875,0.208298921585083,1.6940321922302246,-0.3489464819431305
1761311882347671800,6.420671875,0.3042019307613373,0.17111359536647797,-0.5871769189834595
1761311882366284300,6.4392841796875,0.3939964771270752,-0.9968263506889343,-0.7490514516830444
1761311882384898300,6.457898193359375,0.6133670210838318,-1.7323628664016724,-0.8938222527503967
1761311882403511000,6.476510986328125,0.789901852607727,-2.0756590366363525,-1.213295340538025
1761311882422125000,6.495125,0.7673004865646362,-1.573542594909668,-1.5297142267227173
1761311882440737800,6.51373779296875,0.5149442553520203,-0.6345939636230469,-1.6769284009933472
1761311882459351800,6.532351806640625,0.183865025639534,0.4942517876625061,-1.44053053855896
1761311882477964300,6.55096435546875,-0.10201149433851242,1.1588536500930786,-0.904817521572113
1761311882496578600,6.56957861328125,-0.23151111602783203,0.9334509968757629,-0.3434488773345947
1761311882515191000,6.58819091796875,-0.16065283119678497,0.10575293004512787,0.018249060958623886
1761311882533805000,6.60680517578125,0.04214845970273018,-0.4214082658290863,0.24670593440532684
1761311882552417800,6.625417724609375,0.11239589750766754,-0.4879906177520752,0.45256146788597107
1761311882571031800,6.64403173828125,-0.1044548824429512,-0.227769672870636,0.671855628490448
1761311882589644300,6.662644287109375,-0.43858832120895386,0.3513135313987732,0.8966473937034607
1761311882608258600,6.681258544921875,-0.7146912813186646,0.8021187782287598,1.1031137704849243
1761311882626871000,6.69987109375,-0.9022213816642761,1.0061417818069458,1.2637666463851929
1761311882645485300,6.7184853515625,-0.9187142848968506,1.0855519771575928,1.3572262525558472
1761311882664097800,6.737097900390625,-0.6908682584762573,1.2646065950393677,1.449464201927185
1761311882682711800,6.7557119140625,-0.4306473135948181,1.314695954322815,1.6290532350540161
1761311882701324300,6.77432421875,-0.3384093940258026,0.8253310322761536,1.7683264017105103
1761311882719938600,6.7929384765625,-0.23028941452503204,-0.12820157408714294,1.7157936096191406
1761311882738551000,6.811551025390625,-0.12705622613430023,-0.954067051410675,1.6308858394622803
1761311882757165300,6.830165283203125,-0.03542914241552353,-1.8068861961364746,1.3724974393844604
1761311882775777800,6.84877783203125,0.33718767762184143,-2.039618968963623,0.9180271029472351
1761311882794391800,6.867391845703125,0.7178218960762024,-1.1238826513290405,0.5680115818977356
1761311882813004500,6.886004638671875,0.7275954484939575,0.0880383625626564,0.44095537066459656
1761311882831618600,6.90461865234375,0.6549046039581299,1.0324082374572754,0.5136461853981018
1761311882850231300,6.923231201171875,0.669564962387085,0.8992435336112976,0.5533512830734253
1761311882868845300,6.94184521484375,0.5210527181625366,0.1937149316072464,0.38964420557022095
1761311882887457800,6.960457763671875,0.37200596928596497,-0.9613972306251526,0.019470756873488426
1761311882906072000,6.979072021484375,0.46424391865730286,-1.3297381401062012,-0.5700731873512268
1761311882924684500,6.9976845703125,0.7251520752906799,-1.0230927467346191,-1.6048485040664673
1761311882943298600,7.016298583984375,0.8558733463287354,-0.8471688032150269,-2.7343814373016357
1761311882961911300,7.034911376953125,0.9389485716819763,-0.7683694958686829,-3.3232381343841553
1761311882980525300,7.053525390625,0.8082273006439209,-0.3426089584827423,-3.081953525543213
1761311882999137800,7.0721376953125,0.32313820719718933,0.6304707527160645,-2.403836727142334
1761311883017752000,7.090751953125,-0.40010493993759155,1.524216651916504,-1.8345270156860352
1761311883036364500,7.109364501953125,-1.086086392402649,1.774664044380188,-1.3354648351669312
1761311883054978600,7.127978515625,-1.504516839981079,1.255443811416626,-0.7459971904754639
1761311883073591300,7.14659130859375,-1.4977974891662598,0.6164212226867676,-0.16691401600837708
1761311883092205300,7.165205322265625,-1.300493836402893,0.19676917791366577,0.21555273234844208
1761311883110818000,7.183818115234375,-1.1373976469039917,0.004352286923676729,0.3810923397541046
1761311883129432000,7.20243212890625,-0.9749122262001038,-0.15385715663433075,0.45744824409484863
1761311883148044500,7.22104443359375,-0.7513421177864075,-0.3071798086166382,0.49287739396095276
1761311883166658800,7.239658935546875,-0.4330907166004181,-0.25892287492752075,0.6535302400588989
1761311883185271300,7.258271240234375,-0.12766708433628082,-0.17829103767871857,0.9876636862754822
1761311883203885300,7.27688525390625,0.14660334587097168,-0.3279486298561096,1.2930872440338135
1761311883222498000,7.295498046875,0.43981003761291504,-0.5600705742835999,1.550253987312317
1761311883241112000,7.314112060546875,0.5992411375045776,-0.5716766715049744,1.9143189191818237
1761311883259724800,7.332724853515625,0.5320479869842529,-0.7005654573440552,2.1928653717041016
1761311883278338800,7.3513388671875,0.2877090573310852,-1.0908968448638916,2.049926996231079
1761311883296951300,7.369951416015625,-0.04214845970273018,-1.5796509981155396,1.2662099599838257
1761311883315565600,7.388565673828125,-0.04581354558467865,-0.9497911334037781,0.5588488578796387
1761311883334178000,7.407177978515625,0.40254834294319153,0.26396235823631287,0.35177165269851685
1761311883352792000,7.4257919921875,0.9090170860290527,0.9444462060928345,0.6645254492759705
1761311883371404800,7.44440478515625,1.0177478790283203,0.3476484417915344,0.8380060791969299
1761311883390018800,7.463018798828125,0.6988856196403503,-1.1318236589431763,0.3981960713863373
1761311883408631300,7.48163134765625,0.2919849753379822,-2.2179863452911377,-0.5676298141479492
1761311883427245600,7.50024560546875,0.2754921019077301,-2.309002637863159,-1.816812515258789
1761311883445858000,7.518858154296875,0.38727715611457825,-1.6798299551010132,-2.833338737487793
1761311883464472000,7.53747216796875,0.31825143098831177,-1.1403754949569702,-3.4649546146392822
1761311883483084800,7.556084716796875,-0.13316470384597778,-0.7335512042045593,-3.478393316268921
1761311883501698800,7.57469873046875,-0.9058864712715149,-0.3053472638130188,-2.728883743286133
1761311883520311600,7.5933115234375,-1.6590611934661865,-0.4366794228553772,-1.6451643705368042
1761311883538925600,7.611925537109375,-1.7409147024154663,-0.4464530050754547,-0.4503471553325653
1761311883557538000,7.6305380859375,-1.4367127418518066,-0.45561569929122925,0.23021306097507477
1761311883576152300,7.64915234375,-1.458092451095581,-1.1709178686141968,0.2638096511363983
1761311883594764800,7.667764892578125,-1.7751221656799316,-1.97853422164917,0.02680092304944992
1761311883613378800,7.68637890625,-1.8575865030288696,-1.6456224918365479,-0.2945810854434967
1761311883631991600,7.704991455078125,-1.5466653108596802,-1.3346248865127563,-0.36849361658096313
1761311883650605600,7.72360546875,-1.1648857593536377,-1.0627979040145874,0.026190076023340225
1761311883669218000,7.742218017578125,-0.786771297454834,-0.537469208240509,0.8508338928222656
1761311883687832300,7.760832275390625,-0.5424323678016663,-0.1355317384004593,1.6547088623046875
1761311883706444800,7.77944482421875,-0.4337015450000763,0.13812783360481262,2.2887682914733887
1761311883725059000,7.79805908203125,-0.5906893014907837,0.1008661538362503,2.734152317047119
1761311883743671600,7.816671630859375,-0.9419264793395996,-0.13797512650489807,2.8483808040618896
1761311883762285600,7.83528564453125,-1.0598199367523193,0.04527905210852623,2.5404374599456787
1761311883780898300,7.853898193359375,-0.6914790868759155,0.49180838465690613,2.0370993614196777
1761311883799512300,7.87251220703125,-0.130721315741539,0.14973393082618713,1.190464973449707
1761311883818124800,7.891124755859375,0.25655585527420044,-0.7298861145973206,-0.3348970115184784
1761311883836739000,7.909739013671875,0.41354358196258545,-1.827044129371643,-2.4972963333129883
1761311883855351600,7.9283515625,0.4056025743484497,-1.7745113372802734,-4.347629070281982
1761311883873965600,7.946965576171875,0.5522059202194214,-0.2796916961669922,-5.232135772705078
1761311883892578300,7.965578369140625,1.6841822862625122,0.3623087704181671,-4.051979064941406
1761311883911192300,7.9841923828125,2.3225176334381104,0.7862367630004883,-2.337254285812378
1761311883929805000,8.00280517578125,2.249216079711914,1.2945380210876465,-0.5798467397689819
1761311883948419000,8.021419189453125,1.7269415855407715,1.3776133060455322,0.7915816903114319
1761311883967031600,8.040031494140624,1.0085852146148682,1.491230845451355,1.0481375455856323
1761311883985645800,8.058645751953126,0.5265503525733948,1.1160943508148193,0.6345939636230469
1761311884004258300,8.07725830078125,0.4300364851951599,0.5974849462509155,-0.42163732647895813
1761311884022872300,8.095872314453125,0.8796964287757874,0.4050680994987488,-1.7624469995498657
1761311884041485000,8.114485107421874,1.4850460290908813,0.3128301501274109,-3.3269033432006836
1761311884060099000,8.13309912109375,1.7190005779266357,0.48508909344673157,-4.549208641052246
1761311884078711600,8.151711669921875,1.6139347553253174,0.3470376133918762,-4.822868347167969
1761311884097325800,8.170325927734375,1.3543246984481812,-0.5674007534980774,-4.435591220855713
1761311884115938300,8.188938232421876,1.0800542831420898,-1.392655372619629,-3.909651517868042
1761311884134552300,8.20755224609375,0.39949411153793335,-1.7818413972854614,-3.452737808227539
1761311884153165000,8.2261650390625,-0.291374146938324,-1.5118470191955566,-2.946345329284668
1761311884171779000,8.244779052734375,-0.8551861643791199,-1.037142276763916,-2.4636998176574707
1761311884190391600,8.2633916015625,-1.0396620035171509,-0.8911498188972473,-1.7850483655929565
1761311884209005800,8.282005859375,-0.9217684864997864,-1.0481375455856323,-0.8522846102714539
1761311884227618300,8.300618408203125,-0.846023440361023,-1.083566665649414,0.06284090876579285
1761311884246232300,8.319232421875,-0.9474241137504578,-0.5515187382698059,0.7237776517868042
1761311884264845000,8.337844970703125,-1.178935170173645,0.8662577867507935,1.1788588762283325
1761311884283459000,8.356458984375,-1.165496587753296,3.3689754009246826,1.861175298690796
1761311884302071800,8.37507177734375,-0.40132665634155273,6.111755847930908,2.9803237915039062
1761311884320685800,8.393685791015624,0.8351045846939087,8.81238842010498,3.9350781440734863
1761311884339298300,8.41229833984375,1.753208041191101,8.700602531433105,4.067020893096924
1761311884357912600,8.43091259765625,1.808184266090393,3.4868688583374023,3.112877607345581
1761311884376525000,8.449525146484374,1.3292800188064575,-0.9931612610816956,1.7982579469680786
1761311884395139000,8.46813916015625,0.19424942135810852,-1.8887397050857544,0.1459161341190338
1761311884413751800,8.486751708984375,-0.4178195297718048,0.1008661538362503,-0.15286453068256378
1761311884432365800,8.50536572265625,0.0024433890357613564,0.817389965057373,0.4910448491573334
1761311884450978300,8.523978271484374,0.261442631483078,0.6573479771614075,1.0188168287277222
1761311884469592600,8.542592529296876,0.1954711228609085,-0.2522035539150238,1.281481146812439
1761311884488205000,8.561205078125,-0.29687178134918213,-0.8929823637008667,1.4366364479064941
1761311884506819300,8.5798193359375,-0.9339854717254639,-1.3254622220993042,1.4922235012054443
1761311884525431800,8.598431884765626,-1.300493836402893,-1.2191747426986694,1.6003434658050537
1761311884544045800,8.6170458984375,-1.2907202243804932,-0.8257891535758972,1.6944139003753662
1761311884562658600,8.635658447265625,-0.9040539264678955,-0.22899135947227478,1.847125768661499
1761311884581272600,8.6542724609375,-0.41232189536094666,0.6756734251976013,2.0254931449890137
1761311884599885000,8.672885009765626,0.06169557198882103,1.246891975402832,2.023049831390381
1761311884618499300,8.691499267578125,0.3836120665073395,1.5480396747589111,1.8825548887252808
1761311884637111800,8.71011181640625,0.5589252710342407,1.5040587186813354,1.4922235012054443
1761311884655725800,8.728725830078124,0.5173876285552979,1.315917730331421,0.9858311414718628
1761311884674338600,8.747338623046875,0.314586341381073,1.2157387733459473,0.5490753054618835
1761311884692952600,8.76595263671875,0.023823043331503868,0.6933879852294922,0.1996707022190094
1761311884711565000,8.78456494140625,-0.13744063675403595,0.22608983516693115,0.0683385357260704
1761311884730179300,8.803179443359374,-0.12339114397764206,0.193104088306427,0.20761170983314514
1761311884748791800,8.821791748046875,-0.03787253051996231,0.37269318103790283,0.546631932258606
1761311884767405800,8.84040576171875,-0.004275931045413017,0.29145050048828125,0.8581640720367432
1761311884786018600,8.8590185546875,-0.004886778071522713,0.062993623316288,1.022481918334961
1761311884804632600,8.877632568359376,-0.004886778071522713,-0.18012358248233795,1.0346988439559937
1761311884823245300,8.896245361328125,0.017714571207761765,-0.542356014251709,0.8398386240005493
1761311884841859300,8.914859375,0.028098974376916885,-0.806242048740387,0.4250733256340027
1761311884860471800,8.933471923828124,0.1172826737165451,-1.2747619152069092,0.02008160389959812
1761311884879086000,8.952086181640626,-0.017714571207761765,-1.0078216791152954,-0.007482878863811493
1761311884897698600,8.970698486328125,-0.2644968628883362,-0.45744824409484863,-0.02764083817601204
1761311884916312600,8.9893125,-0.02748812735080719,0.30366745591163635,-0.30740886926651
1761311884934925300,9.00792529296875,0.3762819170951843,1.1649620532989502,-0.7124006152153015
1761311884953539300,9.026539306640625,0.605426013469696,1.6647114753723145,-1.145491361618042
1761311884972151800,9.04515185546875,0.9902597665786743,1.325080394744873,-1.6072918176651
1761311884990766000,9.06376611328125,1.151523470878601,0.4154524803161621,-1.6775392293930054
1761311885009378600,9.082378662109376,0.7734090089797974,-0.3707079291343689,-1.0092723369598389
1761311885027992600,9.10099267578125,0.2223484069108963,-1.0377531051635742,-0.06245913356542587
1761311885046605300,9.119605224609375,-0.13866232335567474,-1.2985849380493164,0.588780403137207
1761311885065219300,9.13821923828125,-0.33413344621658325,-0.8318976163864136,0.8490013480186462
1761311885083831800,9.156831787109375,-0.4489727318286896,-0.0811663269996643,0.9161945581436157
1761311885102446000,9.175446044921875,-0.5870242118835449,0.38429927825927734,0.8178481459617615
1761311885121058600,9.19405859375,-0.6371136903762817,0.2749576270580292,0.5319716334342957
1761311885139672600,9.212672607421876,-0.49417543411254883,-0.2558686435222626,0.24426254630088806
1761311885158285300,9.231285400390625,-0.30847787857055664,-0.8367843627929688,0.1740151196718216
1761311885176899300,9.2498994140625,-0.2608317732810974,-1.042639970779419,0.4122455418109894
1761311885195511800,9.26851171875,-0.3261924386024475,-0.723166823387146,0.7561525702476501
1761311885214126000,9.2871259765625,-0.37139514088630676,-0.20333577692508698,1.0065999031066895
1761311885232738600,9.305738525390625,-0.4068242609500885,0.19860170781612396,1.135488748550415
1761311885251352600,9.3243525390625,-0.446529358625412,0.39712706208229065,1.1984059810638428
1761311885269965300,9.34296533203125,-0.37322768568992615,0.47653722763061523,1.1580899953842163
1761311885288579300,9.361579345703126,-0.17348061501979828,0.38552096486091614,1.0346988439559937
1761311885307192000,9.380192138671875,0.05008947476744652,0.4178958833217621,0.9668948650360107
1761311885325806000,9.39880615234375,0.20341213047504425,0.7080483436584473,0.9791117906570435
1761311885344418600,9.41741845703125,0.25777754187583923,0.8613709807395935,0.9070318341255188
1761311885363032600,9.436032470703125,0.24067382514476776,0.637190043926239,0.6871268153190613
1761311885381645300,9.454645263671875,0.3133646547794342,0.10514208674430847,0.41407808661460876
1761311885400259300,9.47325927734375,0.4202629029750824,-0.25831204652786255,0.20516832172870636
1761311885418872000,9.4918720703125,0.3029802441596985,-0.11476293206214905,0.07139277458190918
1761311885437486000,9.510486083984375,-0.04886778071522713,-0.04756972938776016,-0.23288552463054657
1761311885456098600,9.5290986328125,-0.20646637678146362,-0.1349208950996399,-0.5810684561729431
1761311885474712800,9.547712890625,-0.16492876410484314,-0.019470756873488426,-0.6720846891403198
1761311885493325300,9.5663251953125,0.1973036676645279,-0.09155073016881943,-0.626882016658783
1761311885511939300,9.584939208984375,0.6432985067367554,-0.40308284759521484,-0.45950984954833984
1761311885530552000,9.603552001953124,0.7355364561080933,-0.9302440285682678,-0.26281702518463135
1761311885549166000,9.622166015625,0.5998520255088806,-1.7610726356506348,-0.5975613594055176
1761311885567778600,9.640778564453125,0.4324798583984375,-2.1575124263763428,-1.3024790287017822
1761311885586392800,9.659392822265625,0.25350162386894226,-1.6492875814437866,-1.800930380821228
1761311885605005300,9.67800537109375,0.16187451779842377,-0.36582115292549133,-1.6622681617736816
1761311885623619300,9.696619384765626,0.07452336698770523,0.7660788297653198,-0.9713998436927795
1761311885642232000,9.715232177734375,0.006108472589403391,1.2261232137680054,-0.27320143580436707
1761311885660846000,9.73384619140625,0.04337015375494957,1.0232455730438232,0.18867544829845428
1761311885679458600,9.75245849609375,0.06413896381855011,0.5388436317443848,0.5112028121948242
1761311885698072800,9.77107275390625,0.05864133685827255,0.040392275899648666,0.7488223910331726
1761311885716685300,9.789685302734375,0.04459185153245926,-0.21982865035533905,0.9003124833106995
1761311885735299300,9.80829931640625,-0.006719320081174374,-0.16729579865932465,0.9180271029472351
1761311885753912000,9.826912109375,-0.0916270911693573,-0.0035887276753783226,0.7873057723045349
1761311885772526000,9.845526123046875,-0.15393351018428802,0.2822877764701843,0.648643434047699
1761311885791138600,9.864138671875,-0.20463383197784424,0.5199073553085327,0.6315397024154663
1761311885809752800,9.8827529296875,-0.25411245226860046,0.7367581725120544,0.773867130279541
1761311885828365300,9.901365234375,-0.23334364593029022,0.9817079305648804,0.9949938058853149
1761311885846979300,9.919979248046875,-0.036039989441633224,1.0061417818069458,1.1104439496994019
1761311885865592000,9.938592041015625,0.32069480419158936,0.7294279932975769,1.2112337350845337
1761311885884206000,9.9572060546875,0.715989351272583,0.14667969942092896,1.203292727470398
1761311885902818600,9.975818603515625,0.7935669422149658,-0.3859791159629822,0.7243884801864624
1761311885921432800,9.994432861328125,0.418430358171463,-0.5435777306556702,-0.11010521650314331
1761311885940045300,10.01304541015625,0.29748260974884033,-0.21921780705451965,-0.7588250041007996
1761311885958659300,10.031659423828126,0.6946097016334534,0.33298811316490173,-1.130831003189087
1761311885977272000,10.05027197265625,1.0018658638000488,0.7337039113044739,-1.2328424453735352
1761311885995886000,10.068885986328125,0.8815289735794067,0.3598653972148895,-1.1619842052459717
1761311886014498600,10.08749853515625,0.7660788297653198,-0.6364265084266663,-0.9610154628753662
1761311886033112800,10.10611279296875,0.8228875994682312,-1.674943208694458,-0.8822161555290222
1761311886051725300,10.124725341796875,0.6750625967979431,-1.835595965385437,-0.8449544906616211
1761311886070339300,10.14333935546875,0.35856732726097107,-1.2979741096496582,-0.9713998436927795
1761311886088952000,10.1619521484375,0.2504473626613617,-0.9723924994468689,-1.3983820676803589
1761311886107566000,10.180566162109375,0.3164188861846924,-0.8166264295578003,-1.735569715499878
1761311886126178600,10.199178466796875,0.17348061501979828,-0.11293038725852966,-1.492452621459961
1761311886144792800,10.217792724609374,-0.21623992919921875,0.6597914099693298,-0.8205205798149109
1761311886163405300,10.2364052734375,-0.6016845703125,1.0415709018707275,-0.2426590770483017
1761311886182019300,10.255019287109375,-0.7965448498725891,1.1099858283996582,0.11231953650712967
1761311886200632000,10.273632080078125,-0.7721109390258789,0.93284010887146,0.352993369102478
1761311886219246000,10.29224609375,-0.5485408306121826,0.5681642889976501,0.6089383363723755
1761311886237858600,10.310858642578125,-0.2852656841278076,0.23769593238830566,0.8263999819755554
1761311886256472800,10.329472900390625,-0.22540263831615448,0.24136102199554443,0.8960365653038025
1761311886275085300,10.348085205078124,-0.3408527672290802,0.428891122341156,0.9656731486320496
1761311886293699300,10.36669921875,-0.4049917459487915,0.5412870049476624,1.1202175617218018
1761311886312312000,10.38531201171875,-0.35856732726097107,0.5015819668769836,1.2692642211914062
1761311886340232000,10.41323193359375,-0.2498365342617035,0.12346750497817993,1.3529503345489502
1761311886358846200,10.43184619140625,-0.10934165865182877,0.322603702545166,1.4067049026489258
1761311886377458700,10.450458740234374,0.04031591862440109,0.7294279932975769,1.5325393676757812
1761311886396072700,10.46907275390625,0.1575985997915268,0.7734090089797974,1.5991218090057373
1761311886414685200,10.487685302734375,0.291374146938324,0.3488701283931732,1.3108018636703491
1761311886433299500,10.506299560546875,0.33352261781692505,-0.4757736623287201,0.6071057915687561
1761311886451912000,10.524911865234374,-0.02504473738372326,-1.1776371002197266,-0.3477247953414917
1761311886470526000,10.54352587890625,-0.39827242493629456,-0.9662840366363525,-1.238340139389038
1761311886489138700,10.562138671875,-0.4825693368911743,-0.5307499170303345,-1.8278076648712158
1761311886507752700,10.580752685546875,-0.3249707520008087,0.34337252378463745,-1.7954328060150146
1761311886526365200,10.599365234375,0.08612946420907974,0.9719343185424805,-1.2267340421676636
1761311886544979500,10.6179794921875,0.5686988234519958,0.6744517087936401,-0.5835118293762207
1761311886563592000,10.636592041015625,0.7776849269866943,-0.1727934181690216,-0.072843536734581
1761311886582206000,10.6552060546875,0.7098808884620667,-0.5649573802947998,0.17645850777626038
1761311886600818700,10.673818603515626,0.5625903010368347,-0.4843255281448364,0.1361425817012787
1761311886619432700,10.6924326171875,0.4202629029750824,-0.01885990984737873,-0.06673506647348404
1761311886638045200,10.711045166015625,0.37139514088630676,0.5076904296875,-0.23410721123218536
1761311886656659500,10.729659423828124,0.4086568057537079,0.9029086232185364,-0.3067980408668518
1761311886675272000,10.74827197265625,0.4294256269931793,1.1142617464065552,-0.30252209305763245
1761311886703192600,10.776192626953126,0.43919917941093445,1.2028346061706543,-0.11621369421482086
1761311886721805300,10.794805419921875,0.4306473135948181,1.0537878274917603,0.12270393967628479
1761311886740419300,10.81341943359375,0.4721849262714386,1.0641722679138184,0.42690587043762207
1761311886759032000,10.832031982421874,0.3811686933040619,0.8943567276000977,0.9021450281143188
1761311886777646000,10.85064599609375,0.4453076422214508,0.6384117603302002,0.8880955576896667
1761311886796258600,10.869258544921875,0.4599680006504059,0.07704310864210129,0.5851153135299683
1761311886814872600,10.88787255859375,0.33169007301330566,-0.27419406175613403,0.01885990984737873
1761311886833485300,10.9064853515625,-0.062306419014930725,0.05016583204269409,-0.5633538961410522
