time,seconds_elapsed,z,y,x
1761752974002014500,0.061014404296875,0,0,0
1761752974039676200,0.09867626953125,-0.8138017654418945,-0.27426278591156006,0.8446199893951416
1761752974077338600,0.136338623046875,1.424168586730957,-0.3696683645248413,-1.3432302474975586
1761752974115001300,0.17400146484375,3.225709915161133,-1.1469712257385254,-1.4397287368774414
1761752974152663800,0.211663818359375,-0.5601902008056641,-0.9450104236602783,0.05889463424682617
1761752974190326500,0.249326416015625,-2.6267833709716797,-0.3297748565673828,-0.7548381090164185
1761752974227989000,0.286989013671875,-1.058065414428711,-1.304869294166565,-0.5921008586883545
1761752974265651500,0.3246513671875,-2.307004928588867,-0.5747702717781067,-1.4033162593841553
1761752974303314200,0.362314208984375,-3.9867448806762695,0.7294631004333496,0.5504013299942017
1761752974340977000,0.399976806640625,-3.112071990966797,-0.41261911392211914,0.008793473243713379
1761752974378639400,0.437639404296875,-4.825857162475586,-1.0570671558380127,-1.5191603899002075
1761752974416302000,0.475302001953125,-4.160974502563477,-1.2293810844421387,-1.7502894401550293
1761752974453964500,0.512964599609375,-1.6506805419921875,-0.9133954048156738,-0.30199146270751953
1761752974491627000,0.550626953125,-3.437068462371826,-0.8425382375717163,-0.18114995956420898
1761752974529289700,0.588289794921875,-0.48790454864501953,-0.4952479600906372,-0.14421629905700684
1761752974566952200,0.6259521484375,1.9648256301879883,1.0657964944839478,-0.45292723178863525
1761752974604615000,0.663614990234375,1.3924560546875,1.2101047039031982,-5.138123035430908
1761752974642277400,0.70127734375,1.1505661010742188,-2.1039183139801025,0.34506547451019287
1761752974679940000,0.738940185546875,0.16759395599365234,-1.9676676988601685,-0.3971715569496155
1761752974717602600,0.7766025390625,6.3540849685668945,-2.814649820327759,-0.9306085705757141
1761752974755265300,0.814265380859375,3.3069028854370117,-2.4980742931365967,0.39765065908432007
1761752974792927700,0.851927734375,-3.409616470336914,-0.7029247283935547,-2.3902132511138916
1761752974830590200,0.889590087890625,-4.517531871795654,-0.27036404609680176,-1.9736480712890625
1761752974868253000,0.9272529296875,-0.4132499694824219,-0.2560502886772156,-0.2687833905220032
1761752974905915600,0.96491552734375,-3.812293529510498,-0.649186909198761,-0.9837934970855713
1761752974943578000,1.002578125,-8.560718536376953,-2.2637581825256348,0.4062742590904236
1761752974981240600,1.040240478515625,-3.1576504707336426,-0.35488831996917725,-1.5876346826553345
1761752975018903300,1.0779033203125,0.9571914672851562,-0.7603476643562317,-0.40832653641700745
1761752975056565800,1.115565673828125,-2.0373129844665527,-1.174452543258667,0.5572725534439087
1761752975094228200,1.153228271484375,1.2612428665161133,-0.18838763236999512,0.31142890453338623
1761752975131891000,1.190890869140625,0.9973983764648438,-1.147151231765747,0.8455880880355835
1761752975169553700,1.2285537109375,2.7651185989379883,-0.8053327798843384,-0.4877350330352783
1761752975207216000,1.266216064453125,6.485406875610352,-1.5992820262908936,3.6561267375946045
1761752975244878600,1.303878662109375,11.465596199035645,0.9736220240592957,2.315620183944702
1761752975282541300,1.341541259765625,11.16359806060791,1.0494352579116821,3.1988866329193115
1761752975320203800,1.379203857421875,2.714470863342285,2.0715949535369873,3.5119478702545166
1761752975357866200,1.4168662109375,-1.4369287490844727,1.8650617599487305,-0.11206603050231934
1761752975395529000,1.454529052734375,-0.7830362319946289,2.067857265472412,-1.0257701873779297
1761752975433191400,1.49219140625,-5.752593994140625,2.8458657264709473,-2.0210132598876953
1761752975470854100,1.529854248046875,-10.597156524658203,2.7375171184539795,-2.3004722595214844
1761752975508516600,1.5675166015625,-7.802994728088379,2.5335302352905273,-6.014947891235352
1761752975546179000,1.605178955078125,-4.806512832641602,-0.45501360297203064,-4.395869255065918
1761752975583841800,1.642841796875,2.3999080657958984,-3.130204677581787,-2.7966458797454834
1761752975621504300,1.680504150390625,-1.9131441116333008,-3.218888282775879,-0.5636744499206543
1761752975659167000,1.7181669921875,1.2173080444335938,-5.1114301681518555,-2.727806329727173
1761752975696829400,1.755829345703125,9.971131324768066,-6.879281997680664,0.5594196915626526
1761752975734492000,1.793491943359375,2.5197439193725586,-4.00466251373291,1.203593134880066
1761752975772154600,1.831154541015625,-2.848454475402832,0.4552347958087921,3.115647315979004
1761752975809817000,1.868817138671875,1.7501955032348633,1.6033424139022827,0.28587985038757324
1761752975847479800,1.906479736328125,-1.2693424224853516,3.1188323497772217,-1.3055976629257202
1761752975885142300,1.944142333984375,-5.008898735046387,1.8482351303100586,-2.285637855529785
1761752975922804700,1.9818046875,-4.540122985839844,-0.38485920429229736,-2.3544235229492188
1761752975960467200,2.01946728515625,1.1236228942871094,-1.7093931436538696,0.9954679012298584
1761752975998130000,2.0571298828125,5.19913387298584,-1.3415406942367554,1.6828532218933105
1761752976035792400,2.09479248046875,11.07401180267334,-3.4892075061798096,2.4425201416015625
1761752976073455000,2.132455078125,9.222511291503906,-3.8110783100128174,2.892704963684082
1761752976111117600,2.17011767578125,0.17418575286865234,-0.5037124156951904,0.05225729942321777
1761752976148780000,2.207780029296875,-4.283995628356934,2.9575822353363037,-1.4799500703811646
1761752976186442500,2.2454423828125,-1.3461666107177734,2.0984947681427,-2.2025365829467773
1761752976224105200,2.283105224609375,-4.247802734375,0.8281091451644897,-3.340357780456543
1761752976261767700,2.320767578125,-8.186765670776367,-1.4748510122299194,-4.189104080200195
1761752976299430400,2.358430419921875,-9.575886726379395,-2.358147144317627,-3.9197001457214355
1761752976337092900,2.3960927734375,-4.830552101135254,-1.1783051490783691,-2.652431011199951
1761752976374755300,2.43375537109375,0.6460428237915039,-1.422755479812622,-0.0793871209025383
1761752976412418000,2.47141796875,1.6675615310668945,-2.1576151847839355,0.016478776931762695
1761752976450080500,2.50908056640625,2.566155433654785,-2.2510199546813965,0.6128830313682556
1761752976487743000,2.546742919921875,8.04685115814209,-3.238528251647949,4.562129974365234
1761752976525405400,2.584405517578125,4.300444602966309,-2.3530545234680176,5.555294036865234
1761752976563068200,2.622068115234375,-4.503769397735596,-1.2429137229919434,2.5255117416381836
1761752976600730600,2.659730712890625,-2.02762508392334,0.09822846949100494,1.8923147916793823
1761752976638393000,2.69739306640625,-0.7817306518554688,1.6189135313034058,1.9826700687408447
1761752976676055800,2.735055908203125,-2.6900839805603027,0.6077346801757812,-0.8175091743469238
1761752976713718300,2.77271826171875,-4.461872100830078,-0.9520940780639648,-0.4634920060634613
1761752976751380700,2.810380615234375,-4.6767401695251465,-1.8187148571014404,2.220278263092041
1761752976789043500,2.84804345703125,3.576228141784668,-2.763150930404663,2.0087263584136963
1761752976826706000,2.885705810546875,14.279111862182617,-3.3165831565856934,2.1587982177734375
1761752976864368400,2.923368408203125,7.707261085510254,-5.026581764221191,4.463751792907715
1761752976902030800,2.96103076171875,2.624814033508301,-0.15803158283233643,-1.3376872539520264
1761752976939693600,2.998693603515625,0.3599262237548828,1.6340309381484985,-0.7817040681838989
1761752976977356000,3.03635595703125,-6.0849809646606445,3.3756093978881836,-1.3604077100753784
1761752977015018500,3.0740185546875,-6.198060035705566,3.9898080825805664,-2.0254769325256348
1761752977052681000,3.111680908203125,-7.04710578918457,2.0120654106140137,-3.2411723136901855
1761752977090343700,3.14934375,-8.649881362915039,0.6525963544845581,-2.235090732574463
1761752977128006100,3.187006103515625,-5.721136093139648,1.0454508066177368,-4.16568660736084
1761752977165668600,3.224668701171875,6.056304931640625,-1.4702303409576416,-2.3913486003875732
1761752977203331000,3.2623310546875,3.9947614669799805,-0.7237828373908997,0.3855026960372925
1761752977240993800,3.299993896484375,5.80015754699707,-2.488469123840332,0.22141852974891663
1761752977278656300,3.33765625,10.737894058227539,-2.966796636581421,6.792478561401367
1761752977316318700,3.375318603515625,3.8133773803710938,-0.014284312725067139,6.131357669830322
1761752977372812500,3.4318125,-2.8920698165893555,-0.021008774638175964,-0.6998636722564697
1761752977410475000,3.46947509765625,1.3586435317993164,-0.6329265832901001,2.1131319999694824
1761752977448137700,3.5071376953125,-3.11724853515625,-2.330456495285034,-0.783022403717041
1761752977485800200,3.54480029296875,-7.152994155883789,-4.705943584442139,-6.271066665649414
1761752977523462700,3.582462646484375,-2.7010951042175293,-0.3098163604736328,2.076622486114502
1761752977561125000,3.620125,-2.134366035461426,-0.3818950653076172,11.02597713470459
1761752977598787600,3.65778759765625,3.483898162841797,-1.8702991008758545,9.030309677124023
1761752977636450300,3.6954501953125,-4.035892486572266,-1.0840590000152588,2.934553384780884
1761752977674112800,3.73311279296875,0.7202529907226562,0.3920779824256897,2.2558796405792236
1761752977711775200,3.770775146484375,-3.7714943885803223,1.8078808784484863,0.70387864112854
1761752977749437700,3.808437744140625,-2.9084768295288086,1.482994556427002,-2.541856527328491
1761752977787100400,3.846100341796875,-4.72294807434082,0.8749260902404785,-2.967552900314331
1761752977824763000,3.883762939453125,-7.073722839355469,0.25790563225746155,-3.6978681087493896
1761752977862425300,3.92142529296875,-0.99578857421875,0.844184160232544,-4.029205322265625
1761752977900087800,3.959087890625,12.450701713562012,1.621778964996338,-3.974966049194336
1761752977937750500,3.99675048828125,15.52565860748291,-1.7101163864135742,-5.147916316986084
1761752977975413000,4.0344130859375,8.68480110168457,-2.34747314453125,4.199056148529053
1761752978013075500,4.072075439453125,-4.159460067749023,1.9115917682647705,5.94578742980957
1761752978050738000,4.109738037109375,1.663895606994629,-0.05461478233337402,-0.27884307503700256
1761752978088400400,4.147400390625,-3.32781982421875,-0.5823525190353394,1.8614976406097412
1761752978126062800,4.185062744140625,-10.84146785736084,-0.2532099485397339,3.4639017581939697
1761752978163725300,4.222725341796875,-1.723917007446289,-2.7341604232788086,4.275472640991211
1761752978201388000,4.260387939453125,-0.6849088668823242,-3.251236915588379,3.672513484954834
1761752978239050500,4.298050537109375,12.440105438232422,-3.4975192546844482,-1.4226419925689697
1761752978276713000,4.335712890625,13.21020221710205,-2.898176431655884,-1.5489850044250488
1761752978314375400,4.37337548828125,-4.058087348937988,3.2455217838287354,4.331714630126953
1761752978352038100,4.4110380859375,-4.73056697845459,3.694493293762207,1.6290276050567627
1761752978389700600,4.44870068359375,-5.701145648956299,-0.027180194854736328,-5.383190155029297
1761752978427363000,4.486363037109375,-13.521308898925781,-0.6082710027694702,-1.931694746017456
1761752978465025500,4.524025634765625,-9.888092994689941,-2.1628952026367188,-5.312013626098633
1761752978502688000,4.56168798828125,3.5223703384399414,-2.899515151977539,-2.896742343902588
1761752978540350500,4.5993505859375,4.1479997634887695,-1.2638938426971436,0.9866978526115417
1761752978578013000,4.637012939453125,8.269804954528809,-4.073152542114258,-2.7824177742004395
1761752978615675600,4.674675537109375,13.78524112701416,-3.817189931869507,0.6925390362739563
1761752978653338000,4.712338134765625,4.1337127685546875,0.6250515580177307,3.3744561672210693
1761752978691000600,4.75000048828125,-2.7908735275268555,2.4385721683502197,1.166146993637085
1761752978728663000,4.7876630859375,0.9286623001098633,-1.398536205291748,-2.9155173301696777
1761752978766325500,4.825325439453125,-6.860956192016602,-1.7142030000686646,1.5556933879852295
1761752978803988000,4.862988037109375,-10.955440521240234,-2.763462543487549,1.3717455863952637
1761752978841650400,4.900650390625,-9.072065353393555,-4.219465255737305,-0.25566112995147705
1761752978879313000,4.93831298828125,-3.7344274520874023,-6.282909870147705,-3.2342376708984375
1761752978916975600,4.9759755859375,-2.1435413360595703,-3.2125062942504883,1.752785086631775
1761752978954638000,5.01363818359375,9.851715087890625,-6.2414655685424805,-3.6427865028381348
1761752978992300500,5.051300537109375,16.63792610168457,-7.405982971191406,-2.3986663818359375
1761752979029963000,5.088962890625,10.451842308044434,-3.0363259315490723,6.341121196746826
1761752979067625500,5.12662548828125,-4.146900653839111,0.41744399070739746,6.89101505279541
1761752979105288000,5.164287841796875,-7.663792610168457,0.7387111186981201,3.6215081214904785
1761752979142950400,5.201950439453125,-6.499828338623047,-1.0774577856063843,-2.660027027130127
1761752979180613000,5.239613037109375,-6.487656593322754,-2.1418745517730713,-2.32242488861084
1761752979218275600,5.277275634765625,-6.494221210479736,-4.180509567260742,-1.1384133100509644
1761752979255938000,5.31493798828125,-0.7119436264038086,-4.647850513458252,1.4405114650726318
1761752979293600500,5.3526005859375,3.456178665161133,-3.8644347190856934,1.5159523487091064
1761752979331263000,5.390262939453125,9.428984642028809,-5.523209571838379,3.91001033782959
1761752979368925400,5.427925537109375,15.595457077026367,-7.886205673217773,3.3242435455322266
1761752979406588000,5.465587890625,5.477076530456543,-4.644171714782715,-0.07226216793060303
1761752979444250400,5.50325048828125,3.616079330444336,-2.309328556060791,0.20836007595062256
1761752979481912800,5.540912841796875,2.4088010787963867,-1.4315887689590454,-1.9082454442977905
1761752979519575300,5.5785751953125,-0.7566280364990234,-0.15948879718780518,-1.0301342010498047
1761752979557237800,5.61623779296875,-3.626704692840576,-1.0697911977767944,-0.39665859937667847
1761752979594900200,5.653900146484375,-8.234975814819336,-1.4455528259277344,-0.004697084426879883
1761752979632562700,5.691562744140625,-7.882411003112793,-2.0779004096984863,-0.5274829864501953
1761752979670225400,5.729225341796875,-9.580504417419434,-2.161043405532837,0.8451827764511108
1761752979707887900,5.766887939453125,-7.472769737243652,-2.8145008087158203,0.8070427775382996
1761752979745550300,5.80455029296875,-4.836665630340576,-2.853931427001953,0.08848215639591217
1761752979783212800,5.842212890625,1.9747743606567383,-2.8083624839782715,0.15409493446350098
1761752979820875300,5.879875244140625,4.163633346557617,-2.4558558464050293,0.273000031709671
1761752979858537700,5.917537841796875,6.464081764221191,-1.2195338010787964,0.28186145424842834
1761752979896200200,5.9552001953125,5.560733795166016,-0.33920037746429443,3.401956796646118
1761752979933862700,5.992862548828125,8.063563346862793,-0.08728498220443726,4.839385032653809
1761752979971525000,6.030525146484375,8.049112319946289,-0.5633755326271057,1.901115894317627
1761752980009187600,6.0681875,-0.5650787353515625,2.4194486141204834,-0.48511868715286255
1761752980046850000,6.10585009765625,-2.0469870567321777,2.584059715270996,0.9703840613365173
1761752980084512500,6.143512451171875,-1.795790672302246,2.190060615539551,-2.536283016204834
1761752980122175000,6.181175048828125,-8.652700424194336,1.293483018875122,-2.684566020965576
1761752980159837400,6.21883740234375,-12.88035774230957,1.631542444229126,1.6228861808776855
1761752980197500000,6.2565,-7.227175712585449,-0.08803439140319824,2.551372766494751
1761752980235162400,6.294162353515625,-2.3713765144348145,-1.4999873638153076,1.696897029876709
1761752980272824800,6.331824951171875,3.011591911315918,1.8816492557525635,2.0593957901000977
1761752980310487300,6.3694873046875,10.715815544128418,2.7752976417541504,2.8444390296936035
1761752980348149800,6.407149658203125,5.788033485412598,6.747264385223389,-2.286099433898926
1761752980385812200,6.444812255859375,11.051342964172363,5.130059719085693,-2.9441375732421875
1761752980423474700,6.482474609375,-1.2962865829467773,4.530642509460449,0.5809537172317505
1761752980461137200,6.52013720703125,-5.541879653930664,3.22800612449646,-0.6899722218513489
1761752980498799600,6.557799560546875,-1.0035085678100586,1.4393033981323242,-2.5294625759124756
1761752980536462000,6.595462158203125,-4.725078582763672,2.1492955684661865,-2.340700149536133
1761752980574124500,6.63312451171875,14.846638679504395,-0.1022651195526123,-2.281248092651367
1761752980611787000,6.670787109375,13.222241401672363,-2.5561254024505615,0.3263542652130127
1761752980649449500,6.708449462890625,6.4830121994018555,-1.5520081520080566,3.433633327484131
1761752980687112000,6.74611181640625,3.426793098449707,0.2986629009246826,1.8520925045013428
1761752980724774400,6.7837744140625,-0.5305194854736328,4.192933559417725,-1.7774112224578857
1761752980762436900,6.821436767578125,-0.4193887710571289,6.105538368225098,0.10108928382396698
1761752980800099300,6.859099365234375,-5.834733963012695,5.918771743774414,1.10287606716156
1761752980837761800,6.89676171875,-7.527529716491699,5.497507095336914,3.035444974899292
1761752980875424300,6.93442431640625,-3.4643306732177734,-0.3924591541290283,-0.8993819952011108
1761752980913086700,6.972086669921875,-5.576667785644531,-3.9183990955352783,1.1055419445037842
1761752980950749200,7.009749267578125,-8.027775764465332,-4.088680744171143,2.5104570388793945
1761752980988411600,7.04741162109375,3.391329765319824,-2.2044811248779297,1.185863971710205
1761752981026074000,7.08507421875,15.745221138000488,-1.8449188470840454,1.301922082901001
1761752981063736600,7.122736572265625,10.24834156036377,3.0438528060913086,-1.5081853866577148
1761752981101399000,7.16039892578125,3.693105697631836,5.780523777008057,-1.3075355291366577
1761752981139061200,7.198061279296875,-1.8495659828186035,3.371882915496826,-2.9706878662109375
1761752981176724000,7.235723876953125,-7.916053295135498,0.2071702778339386,-2.7368361949920654
1761752981214386200,7.27338623046875,-14.680837631225586,-0.34700649976730347,-3.3818750381469727
1761752981252048600,7.311048583984375,-9.977352142333984,-1.12898588180542,-4.952620506286621
1761752981289711000,7.348711181640625,3.292520523071289,-0.8624372482299805,-0.3515569567680359
1761752981327373600,7.38637353515625,6.244686126708984,0.9136433601379395,-2.29141902923584
1761752981365036000,7.4240361328125,10.838737487792969,0.7750216722488403,-3.3635427951812744
1761752981402698500,7.461698486328125,10.31704330444336,-2.383054494857788,9.104713439941406
1761752981440361000,7.49936083984375,6.690362930297852,0.4915064573287964,3.6220221519470215
1761752981478023400,7.5370234375,-3.8715920448303223,-0.8405029773712158,-5.611292362213135
1761752981515686000,7.574685791015625,-8.168257713317871,-1.217106580734253,-4.7727203369140625
1761752981553348400,7.612348388671875,-9.313786506652832,-4.343721866607666,2.28318190574646
1761752981591010800,7.6500107421875,-10.916550636291504,-4.086916446685791,-1.2229034900665283
1761752981628673000,7.687673095703125,-4.490514278411865,-1.3403830528259277,-1.6837191581726074
1761752981666335500,7.72533544921875,17.21519660949707,-3.668086290359497,5.21651029586792
1761752981703998000,7.762998046875,14.509933471679688,-4.626542568206787,0.5592210292816162
1761752981741660400,7.800660400390625,4.692238807678223,-0.9473005533218384,1.5828862190246582
1761752981779323000,7.838322998046875,-3.077894687652588,3.0376052856445312,0.19362449645996094
1761752981816985300,7.8759853515625,-6.403033256530762,3.211939573287964,-4.455669403076172
1761752981854647800,7.913647705078125,-4.786381244659424,2.9489619731903076,-8.510479927062988
1761752981892310000,7.95131005859375,-9.774142265319824,1.5417002439498901,-3.597520589828491
1761752981929972500,7.988972412109375,-3.16574764251709,-0.700378954410553,-7.056077480316162
1761752981967635000,8.026635009765625,9.450902938842773,-4.343421936035156,-3.7118382453918457
1761752982005297400,8.06429736328125,-0.7496042251586914,-6.253808498382568,2.467252254486084
1761752982042960000,8.1019599609375,8.784154891967773,-6.281097412109375,0.5888919830322266
1761752982080622300,8.139622314453124,6.677040100097656,-3.4823741912841797,-2.5442802906036377
1761752982118284800,8.177284912109375,-3.0615434646606445,-0.2902001142501831,-0.8023961782455444
1761752982155947000,8.214947021484376,-7.087302207946777,-0.8579046726226807,-0.007703065872192383
1761752982193609500,8.252609375,-2.696291923522949,-1.1929384469985962,-0.9681528806686401
1761752982231272000,8.29027197265625,-6.478133201599121,-2.5005016326904297,-0.896613597869873
1761752982268934400,8.327934326171874,-11.173437118530273,-1.7860536575317383,3.1932265758514404
1761752982306596900,8.365596923828125,1.3176889419555664,-0.03174996376037598,5.098365783691406
1761752982344259000,8.403259033203126,5.953919410705566,-5.146111488342285,-0.9541040658950806
1761752982381921800,8.440921875,14.790216445922852,-6.089753150939941,1.1820852756500244
1761752982419584000,8.478583984375,-3.5783143043518066,-0.07308942079544067,5.867753982543945
1761752982457246500,8.51624658203125,0.8184604644775391,0.2636781930923462,3.029132604598999
1761752982494909000,8.553908935546875,2.143540382385254,2.287418842315674,-1.5277422666549683
