time,seconds_elapsed,z,y,x
1761369638841822000,0.205822021484375,-0.9920159578323364,0.7074374556541443,-0.6445965766906738
1761369638860432000,0.224431884765625,-1.041494607925415,0.17294612526893616,-0.8168554902076721
1761369638879043300,0.243043212890625,-1.1221264600753784,-0.07078192383050919,-0.8840487003326416
1761369638897653000,0.261653076171875,-1.1850436925888062,-0.11415208131074905,-0.8229639530181885
1761369638916264700,0.2802646484375,-1.1209046840667725,-0.06284090876579285,-0.7136223316192627
1761369638934874400,0.298874267578125,-0.9657495021820068,0.10392039269208908,-0.5957288146018982
1761369638953485800,0.31748583984375,-0.8790091872215271,0.3128301501274109,-0.5444176197052002
1761369638972095700,0.336095703125,-0.8594620823860168,0.5333459973335266,-0.47050508856773376
1761369638990707200,0.354707275390625,-0.8026533126831055,0.3531460762023926,-0.29030516743659973
1761369639009317000,0.373317138671875,-0.6878139972686768,-0.04390464723110199,-0.12110047042369843
1761369639027928600,0.391928466796875,-0.5515950918197632,-0.38781166076660156,-0.11743538826704025
1761369639046538500,0.41053857421875,-0.3946073353290558,-0.8154047131538391,-0.24937839806079865
1761369639065150000,0.42914990234375,-0.24372805655002594,-1.0988378524780273,-0.279920756816864
1761369639083759900,0.447759765625,-0.22540263831615448,-1.300417423248291,-0.21211670339107513
1761369639102371300,0.466371337890625,-0.3029802441596985,-1.3584479093551636,-0.14370182156562805
1761369639120981200,0.484981201171875,-0.32374903559684753,-1.1128873825073242,0.012751436792314053
1761369639139592700,0.5035927734375,-0.22784602642059326,-0.41774317622184753,0.18317782878875732
1761369639158202400,0.522202392578125,-0.007941014133393764,0.4178958833217621,0.44400960206985474
1761369639176813800,0.540813720703125,0.008551862090826035,1.098990559577942,0.8496121764183044
1761369639195423700,0.559423828125,-0.07330167293548584,1.5413203239440918,1.3724974393844604
1761369639214035200,0.57803515625,0.025655584409832954,1.838192105293274,2.049316167831421
1761369639232645000,0.59664501953125,-0.04031591862440109,2.478971004486084,2.5343289375305176
1761369639251256600,0.615256591796875,-0.10323318839073181,1.0580638647079468,2.3755085468292236
1761369639269866500,0.633866455078125,-0.17225892841815948,-1.0249253511428833,1.6504329442977905
1761369639288478000,0.65247802734375,0.28404396772384644,-1.5393351316452026,0.9601755142211914
1761369639307088000,0.671087890625,0.46302223205566406,-1.0670738220214844,1.0823450088500977
1761369639325699300,0.68969921875,0.34818294644355774,-0.28518930077552795,1.6180580854415894
1761369639344309200,0.708309326171875,0.5241069197654724,0.43805384635925293,1.4323604106903076
1761369639362920700,0.726920654296875,0.7697439193725586,0.7874584794044495,0.8575531840324402
1761369639381530600,0.745530517578125,0.6677324175834656,0.5724402666091919,0.5179221034049988
1761369639400142000,0.76414208984375,0.41293275356292725,0.06116108223795891,0.21066594123840332
1761369639418752000,0.782751953125,0.11422843486070633,-0.2790808379650116,-0.35138988494873047
1761369639437363200,0.80136328125,-0.182643324136734,-0.5270848274230957,-1.1662601232528687
1761369639455973400,0.819973388671875,-0.4599680006504059,-1.0120975971221924,-1.9096612930297852
1761369639474584600,0.83858447265625,-0.92054682970047,-1.670667290687561,-2.1857643127441406
1761369639493194800,0.85719482421875,-1.349361538887024,-1.4727526903152466,-2.1283445358276367
1761369639511806000,0.875805908203125,-1.5497194528579712,-0.9742250442504883,-1.972578525543213
1761369639530415900,0.894415771484375,-1.6321839094161987,-0.5851153135299683,-1.6524945497512817
1761369639549027300,0.91302734375,-1.6034740209579468,-0.32611608505249023,-1.2102410793304443
1761369639567637200,0.93163720703125,-1.5381133556365967,-0.433625191450119,-0.7918107509613037
1761369639586248700,0.950248779296875,-1.4397670030593872,-0.6046624183654785,-0.3996468186378479
1761369639604858600,0.968858642578125,-1.202147364616394,-0.8722135424613953,0.03168770298361778
1761369639623470000,0.987469970703125,-1.0286667346954346,-0.911918580532074,0.3303920030593872
1761369639642080000,1.006080078125,-0.9089407324790955,-0.7390488386154175,0.537469208240509
1761369639660691500,1.02469140625,-0.9181034564971924,-0.35116082429885864,0.6590278148651123
1761369639679301400,1.04330126953125,-0.9822424054145813,0.21265120804309845,0.6907919049263
1761369639697912800,1.061912841796875,-0.9272661209106445,0.6512395143508911,0.7634826898574829
1761369639716522800,1.080522705078125,-0.7110261917114258,0.8015079498291016,0.8257891535758972
1761369639735134200,1.09913427734375,-0.38727715611457825,0.7978428602218628,0.8373952507972717
1761369639753744100,1.117744140625,0.03665083646774292,0.8705337047576904,0.8398386240005493
1761369639772355600,1.13635546875,0.5919110178947449,0.9920923113822937,0.9870527982711792
1761369639790965500,1.154965576171875,1.0592855215072632,1.0372949838638306,1.2979741096496582
1761369639809577000,1.173576904296875,1.24681556224823,1.0855519771575928,1.5679686069488525
1761369639828187000,1.192186767578125,1.2303227186203003,0.4441623091697693,1.7536661624908447
1761369639846798300,1.21079833984375,0.8894699811935425,-1.43480384349823,1.8288003206253052
1761369639865408000,1.229407958984375,0.49051034450531006,-2.7378175258636475,1.9833446741104126
1761369639884019500,1.24801953125,0.036039989441633224,-2.557617425918579,1.9387528896331787
1761369639902629400,1.26662939453125,-0.5442649126052856,-2.2778494358062744,1.2112337350845337
1761369639921240800,1.28524072265625,-0.5375455617904663,-2.144073963165283,0.20272493362426758
1761369639939850800,1.303850830078125,0.30603447556495667,-1.0713497400283813,-0.8547280430793762
1761369639958462200,1.322462158203125,1.3592115640640259,0.21692712604999542,-1.843078851699829
1761369639977072000,1.341072021484375,1.673797845840454,0.38246673345565796,-2.790579319000244
1761369639995683600,1.35968359375,1.275525450706482,-0.7115607261657715,-3.5199310779571533
1761369640014293500,1.37829345703125,0.6579588651657104,-1.530172348022461,-3.698909282684326
1761369640032905000,1.396905029296875,0.08735115826129913,-1.420143485069275,-3.238330364227295
1761369640051515000,1.415514892578125,-0.37506023049354553,-1.2332242727279663,-2.4514827728271484
1761369640070126300,1.434126220703125,-0.522885262966156,-1.2607123851776123,-1.4600776433944702
1761369640088736300,1.452736328125,-0.6322268843650818,-1.2045143842697144,-0.4680617153644562
1761369640107347700,1.47134765625,-0.7965448498725891,-1.0579110383987427,0.38903334736824036
1761369640125957600,1.48995751953125,-0.8759549856185913,-0.8557206392288208,0.9809443354606628
1761369640144569000,1.508569091796875,-0.8344173431396484,-0.41713231801986694,1.194740891456604
1761369640163179000,1.527178955078125,-0.6132906675338745,0.15095563232898712,1.1336561441421509
1761369640181790500,1.54579052734375,-0.19424942135810852,0.5644991993904114,0.888706386089325
1761369640200400400,1.564400390625,0.30908870697021484,0.7300388216972351,0.639480710029602
1761369640219011600,1.583011474609375,0.5540384650230408,0.7837933897972107,0.5405234694480896
1761369640237621800,1.601621826171875,0.5155550837516785,0.6677324175834656,0.6303179860115051
1761369640256233000,1.62023291015625,0.3683409094810486,0.28045526146888733,0.7555416822433472
1761369640274843100,1.638843017578125,0.4446968138217926,-0.2613662779331207,0.7983010411262512
1761369640293454300,1.657454345703125,0.8289960622787476,-0.33833301067352295,0.7958576083183289
1761369640312064300,1.676064208984375,1.1277004480361938,-0.3022930324077606,0.9143620133399963
1761369640330675700,1.69467578125,1.1160943508148193,-0.06528430432081223,1.1880215406417847
1761369640349285600,1.71328564453125,0.9346726536750793,0.2321983128786087,1.5893481969833374
1761369640367897000,1.73189697265625,0.8693119883537292,0.25357797741889954,1.9827338457107544
1761369640386507000,1.750507080078125,0.956052303314209,-0.34993913769721985,2.0908539295196533
1761369640405118500,1.769118408203125,0.901076078414917,-1.203292727470398,1.9192057847976685
1761369640423728400,1.787728271484375,0.5821374654769897,-1.1415971517562866,1.481228232383728
1761369640442339800,1.80633984375,0.21929416060447693,-0.41774317622184753,0.6663579940795898
1761369640460949800,1.82494970703125,0.06169557198882103,0.053830914199352264,-0.4931064546108246
1761369640479561200,1.843561279296875,0.16248537600040436,0.3507026731967926,-1.6060701608657837
1761369640498171100,1.862171142578125,0.3958290219306946,0.803340494632721,-2.3592448234558105
1761369640516782600,1.880782470703125,0.5387672781944275,1.1625187397003174,-2.8156239986419678
1761369640535392500,1.899392578125,0.5686988234519958,1.3574553728103638,-3.20717716217041
1761369640554004000,1.91800390625,0.4862344264984131,0.854040801525116,-3.198625326156616
1761369640572614000,1.93661376953125,0.3115321099758148,0.3623087704181671,-2.560824394226074
1761369640591225300,1.955225341796875,0.03237490355968475,0.022677704691886902,-1.6579921245574951
1761369640609835300,1.973835205078125,-0.2089097648859024,-0.24181915819644928,-0.7380561828613281
1761369640628446700,1.99244677734375,-0.3970507085323334,-0.2625879645347595,-0.055739812552928925
1761369640647056400,2.011056396484375,-0.5583143830299377,-0.1599656194448471,0.24792763590812683
1761369640665667800,2.029667724609375,-0.6371136903762817,-0.05184566229581833,0.23082390427589417
1761369640684277800,2.04827783203125,-0.6426113247871399,0.1265217363834381,-0.056961506605148315
1761369640702889200,2.06688916015625,-0.5766398310661316,0.4325562119483948,-0.4246915578842163
1761369640721499100,2.0854990234375,-0.3658975064754486,0.9108496308326721,-0.5615213513374329
1761369640740110600,2.104110595703125,-0.030542362481355667,1.2621631622314453,-0.5682406425476074
1761369640758720500,2.122720458984375,0.2602209448814392,1.400214672088623,-0.48272204399108887
1761369640777332000,2.14133203125,0.4324798583984375,1.2297883033752441,-0.20906247198581696
1761369640795942000,2.15994189453125,0.5008947253227234,0.7727981209754944,0.22349373996257782
1761369640814553300,2.17855322265625,0.3970507085323334,0.5125772356987,0.5942780375480652
1761369640833163300,2.197163330078125,0.13866232335567474,0.1790546029806137,0.7763105034828186
1761369640851774700,2.215774658203125,0.13499724864959717,-0.2253262847661972,0.954067051410675
1761369640870384600,2.234384521484375,0.29565006494522095,-0.5991647839546204,1.2875896692276
1761369640888996000,2.25299609375,0.20524467527866364,-0.9723924994468689,1.657763123512268
1761369640907606000,2.27160595703125,-0.0910162404179573,-1.5375025272369385,1.9094321727752686
1761369640926217500,2.290217529296875,-0.4605788290500641,-1.6957119703292847,2.1201744079589844
1761369640944827400,2.308827392578125,-0.5308262705802917,-1.5484977960586548,2.180037498474121
1761369640963438800,2.32743896484375,-0.5296045541763306,-0.514867901802063,1.9247033596038818
1761369640982048800,2.346048828125,-0.5986303091049194,0.15034478902816772,0.9742250442504883
1761369641000660200,2.36466015625,-0.6432221531867981,0.4698179066181183,-0.36788275837898254
1761369641019270100,2.383270263671875,-0.994459331035614,0.5235724449157715,-2.1069648265838623
1761369641037881300,2.40188134765625,-1.1783243417739868,1.546207070350647,-3.6158339977264404
1761369641056491500,2.420491455078125,-0.5540384650230408,3.0617191791534424,-4.28287935256958
1761369641075102700,2.439102783203125,0.47951510548591614,3.816115617752075,-4.104511737823486
1761369641093712600,2.457712646484375,1.0043092966079712,2.8454792499542236,-3.1778564453125
1761369641112324000,2.476323974609375,0.8949676156044006,0.47348299622535706,-1.7984870672225952
1761369641130934000,2.49493408203125,0.5705313682556152,-1.6932686567306519,-0.520594596862793
1761369641149545500,2.51354541015625,0.3042019307613373,-2.381082534790039,-0.00259610079228878
1761369641168155400,2.5321552734375,0.4282039403915405,-1.8026102781295776,-0.20967331528663635
1761369641186766800,2.550766845703125,0.6707866191864014,-0.5900021195411682,-0.8180772066116333
1761369641205376800,2.569376708984375,0.8473215103149414,0.15645325183868408,-1.403268814086914
1761369641223988200,2.58798828125,0.8632035255432129,0.2841203212738037,-1.5834687948226929
1761369641242598100,2.60659814453125,0.669564962387085,0.24197186529636383,-1.1937482357025146
1761369641261209600,2.625209716796875,0.5131117105484009,0.1949366331100464,-0.39231663942337036
1761369641279819500,2.643819580078125,0.6219188570976257,0.10025530308485031,0.39147675037384033
1761369641298431000,2.662430908203125,0.8186116814613342,-0.1587439328432083,0.907642662525177
1761369641317041000,2.681041015625,0.9505546689033508,-0.5130353569984436,1.2124555110931396
1761369641335652400,2.69965234375,0.9316184520721436,-0.8716026544570923,1.3297381401062012
1761369641354262300,2.71826220703125,0.7312605381011963,-0.8703809976577759,1.3395116329193115
1761369641372873700,2.736873779296875,0.7227086424827576,-0.5447993874549866,1.4512966871261597
1761369641391483600,2.755483642578125,0.8198333978652954,-0.05123481526970863,1.6235556602478027
1761369641410094800,2.7740947265625,0.818000853061676,-0.010918894782662392,1.7805434465408325
1761369641428704800,2.792704833984375,0.7257629036903381,-0.4757736623287201,1.8868308067321777
1761369641447316200,2.811316162109375,0.6280273199081421,-1.0853992700576782,2.008389472961426
1761369641465926100,2.829926025390625,0.4489727318286896,-1.532004952430725,2.07252836227417
1761369641484537600,2.84853759765625,-0.12155860662460327,-1.4715310335159302,2.0016701221466064
1761369641503147500,2.8671474609375,-0.6872031688690186,-0.9943829774856567,1.6101170778274536
1761369641521759000,2.885759033203125,-0.8405258059501648,-0.7610393166542053,0.5173112750053406
1761369641540369000,2.904368896484375,-0.7995990514755249,-0.5393017530441284,-0.9616262912750244
1761369641558980400,2.92298046875,-0.8350282311439514,-0.2546469569206238,-2.4105560779571533
1761369641577590300,2.94159033203125,-0.962695300579071,0.9933140277862549,-3.3128538131713867
1761369641596201700,2.96020166015625,-1.1917630434036255,2.2462379932403564,-3.9310312271118164
1761369641614811600,2.978811767578125,-1.5509412288665771,2.719644784927368,-4.620067119598389
1761369641633423000,2.997423095703125,-1.9498244524002075,2.899233818054199,-5.229692459106445
1761369641652033000,3.016032958984375,-2.196683168411255,3.0989809036254883,-5.533360004425049
1761369641670644500,3.03464453125,-2.215008497238159,3.089207410812378,-5.208923816680908
1761369641689254400,3.05325439453125,-1.927833914756775,2.4050583839416504,-4.336633682250977
1761369641707865600,3.071865478515625,-1.4324368238449097,0.7886801958084106,-2.9359610080718994
1761369641726475800,3.090475830078125,-0.6780404448509216,-1.2112337350845337,-1.3330214023590088
1761369641745087000,3.1090869140625,-0.09834641218185425,-2.386580228805542,0.12636902928352356
1761369641763697200,3.127697265625,0.11239589750766754,-2.563115119934082,1.5050512552261353
1761369641782308400,3.146308349609375,0.09284878522157669,-1.9406617879867554,2.878923177719116
1761369641800918300,3.164918212890625,0.012827792204916477,-1.2955306768417358,3.9063682556152344
1761369641819529700,3.18352978515625,0.0390942245721817,-0.8178481459617615,4.366947174072266
1761369641838139600,3.2021396484375,0.09590301662683487,-0.46966519951820374,4.411539077758789
1761369641856751000,3.220751220703125,0.2492256760597229,-0.43118181824684143,4.233171463012695
1761369641875361000,3.239361083984375,0.5509842038154602,-0.4995967149734497,3.862387180328369
1761369641893972500,3.257972412109375,0.8607601523399353,-0.4085804522037506,3.2796390056610107
1761369641912582400,3.27658251953125,1.124035358428955,-0.1862320601940155,2.8624303340911865
1761369641931193900,3.29519384765625,1.2633085250854492,-0.010918894782662392,2.555097818374634
1761369641949803800,3.3138037109375,1.201612949371338,-0.2815242409706116,2.2643344402313232
1761369641968415200,3.332415283203125,0.9126821756362915,-0.6816291809082031,2.0823018550872803
1761369641987025200,3.351025146484375,0.3671191930770874,-1.0004914999008179,2.090242862701416
1761369642005636600,3.36963671875,-0.08674030750989914,-1.2808703184127808,2.199584722518921
1761369642024246500,3.38824658203125,-0.660936713218689,-1.1654201745986938,2.133002281188965
1761369642042858000,3.40685791015625,-0.9859074950218201,-0.19722731411457062,1.5166573524475098
1761369642061468000,3.425468017578125,-0.8997780084609985,0.8992435336112976,0.5167004466056824
1761369642080079000,3.4440791015625,-0.6212316751480103,1.408766508102417,-0.5267030596733093
1761369642098689300,3.462689208984375,-0.3005368411540985,0.7837933897972107,-1.389830231666565
1761369642117300500,3.481300537109375,-0.3042019307613373,-0.0005344913806766272,-2.270672082901001
1761369642135910400,3.499910400390625,-0.5234960913658142,-0.06100837141275406,-3.065460681915283
1761369642154521900,3.51852197265625,-0.9022213816642761,0.6213080286979675,-3.256655693054199
1761369642173131800,3.5371318359375,-1.369519591331482,1.0794434547424316,-3.6011736392974854
1761369642191743200,3.5557431640625,-1.9046217203140259,1.0470685958862305,-4.036707878112793
1761369642210353200,3.574353271484375,-2.240664005279541,0.8754204511642456,-4.060530662536621
1761369642228964600,3.592964599609375,-2.3084681034088135,0.7074374556541443,-3.5174875259399414
1761369642247574500,3.611574462890625,-2.0402297973632812,0.44782739877700806,-2.420940399169922
1761369642266186000,3.63018603515625,-1.5827052593231201,0.1020878478884697,-0.8107470273971558
1761369642284796000,3.6487958984375,-1.2736165523529053,-0.46844348311424255,0.8416711688041687
1761369642303407400,3.667407470703125,-0.9547542929649353,-1.4825263023376465,2.067030668258667
1761369642322017300,3.686017333984375,-0.5638120174407959,-1.7415255308151245,2.9931516647338867
1761369642340628700,3.704628662109375,-0.19974705576896667,-1.5900354385375977,3.7646517753601074
1761369642359238700,3.72323876953125,-0.016492875292897224,-1.5008517503738403,4.288147926330566
1761369642377850000,3.74185009765625,0.013438640162348747,-1.3529503345489502,4.365725517272949
1761369642396459800,3.760459716796875,-0.03665083646774292,-1.1935192346572876,3.9295804500579834
1761369642415071200,3.7790712890625,-0.0018325417768210173,-0.7763105034828186,3.0762267112731934
1761369642433681200,3.79768115234375,0.012216945178806782,-0.11537377536296844,2.0890212059020996
1761369642452292600,3.816292724609375,-0.07574506103992462,0.40812233090400696,1.5136032104492188
1761369642470902500,3.834902587890625,-0.1692046970129013,0.7856259346008301,1.1599225997924805
1761369642489514000,3.853513916015625,-0.22479179501533508,0.7917343974113464,0.9143620133399963
1761369642508124000,3.8721240234375,-0.24006296694278717,0.43561044335365295,0.829454243183136
1761369642526735400,3.8907353515625,-0.1716480851173401,-0.16912832856178284,0.875267744064331
1761369642545345300,3.90934521484375,-0.2883199155330658,-0.754930853843689,0.9485694169998169
1761369642563956700,3.927956787109375,-0.6499415040016174,-1.148316502571106,1.0915076732635498
1761369642582566700,3.946566650390625,-1.0738694667816162,-1.687770962715149,1.253993034362793
1761369642601178000,3.96517822265625,-0.9064973592758179,-2.835552930831909,0.7842515110969543
1761369642619788000,3.9837880859375,0.18630841374397278,-3.7744252681732178,-0.8064711093902588
1761369642638399500,4.0023994140625,1.6383687257766724,-3.0597338676452637,-2.703839063644409
1761369642657009400,4.021009521484375,2.9070985317230225,-1.7286977767944336,-3.866892099380493
1761369642675620600,4.03962060546875,3.4068479537963867,-1.2142879962921143,-4.202247142791748
1761369642694230800,4.058230712890625,3.4178431034088135,-0.6126034259796143,-3.6359920501708984
1761369642712842000,4.076842041015625,2.700632095336914,0.6121453046798706,-2.670166015625
1761369642731452000,4.095451904296875,1.7868045568466187,0.5437304377555847,-2.1045215129852295
1761369642750063400,4.1140634765625,1.016526222229004,0.056274302303791046,-1.5370444059371948
1761369642768673300,4.13267333984375,0.4593571424484253,-0.09827005118131638,-0.7942541241645813
1761369642787284700,4.15128466796875,0.33291175961494446,0.13446275889873505,0.07444700598716736
1761369642805894700,4.169894775390625,0.6286382079124451,0.4142307937145233,0.8856521844863892
1761369642824506000,4.188506103515625,0.6921663284301758,0.8039513230323792,1.5148248672485352
1761369642843116000,4.207115966796875,0.4330907166004181,0.6811710596084595,2.052981376647949
1761369642861727500,4.2257275390625,0.12644538283348083,0.31527355313301086,2.5459349155426025
1761369642880337400,4.24433740234375,0.02076880633831024,-0.02008160389959812,2.924125909805298
1761369642898948900,4.262948974609375,0.08368607610464096,-0.1617981642484665,3.1140992641448975
1761369642917558800,4.281558837890625,0.17653486132621765,0.030007870867848396,3.147696018218994
1761369642936170200,4.300170166015625,0.25655585527420044,0.3867426812648773,3.037132501602173
1761369642954780200,4.3187802734375,0.3671191930770874,0.8063947558403015,2.90396785736084
1761369642973391600,4.3373916015625,0.48073679208755493,0.854651689529419,2.8043997287750244
1761369642992001300,4.356001220703125,0.5363239049911499,0.1937149316072464,2.6448922157287598
1761369643010612700,4.37461279296875,0.1569877415895462,-0.62543123960495,2.194697856903076
1761369643029222700,4.39322265625,0.037261683493852615,-1.0988378524780273,1.7390058040618896
1761369643047834000,4.411834228515625,0.23823043704032898,-0.5735092163085938,1.4005963802337646
1761369643066444000,4.430444091796875,0.09895725548267365,0.20226679742336273,0.8923714756965637
1761369643085055500,4.449055419921875,-0.6181774139404297,0.30366745591163635,0.4501180648803711
1761369643103665400,4.46766552734375,-1.3774605989456177,0.9126821756362915,0.5967214107513428
1761369643122276900,4.48627685546875,-1.855754017829895,0.9224557280540466,0.616879403591156
1761369643140886800,4.50488671875,-1.9272230863571167,0.39712706208229065,-0.19195875525474548
1761369643159498200,4.523498291015625,-1.5985872745513916,0.10819631814956665,-1.314695954322815
1761369643178108200,4.542108154296875,-1.0030112266540527,0.04161396995186806,-2.3274807929992676
1761369643196719600,4.5607197265625,-0.3970507085323334,-0.10987614840269089,-3.14853572845459
1761369643215329500,4.57932958984375,-0.261442631483078,0.5938199162483215,-3.8015315532684326
1761369643233941000,4.59794091796875,-0.5625903010368347,2.157665252685547,-4.130167484283447
1761369643252550700,4.616550537109375,-0.9950701594352722,3.268796443939209,-4.182700157165527
1761369643271162000,4.635162109375,-1.0891406536102295,3.271239757537842,-3.8039748668670654
1761369643289772000,4.65377197265625,-0.9724688529968262,2.49363112449646,-2.8730437755584717
1761369643308383500,4.672383544921875,-0.8283088803291321,1.5681976079940796,-1.606680989265442
1761369643326993400,4.690993408203125,-0.7464553713798523,0.7300388216972351,-0.20967331528663635
1761369643345604900,4.70960498046875,-0.7293516397476196,0.039170581847429276,0.7891383171081543
1761369643364214800,4.72821484375,-0.7098045349121094,-0.28396761417388916,1.2295591831207275
1761369643382826200,4.746826171875,-0.6084038615226746,-0.20639002323150635,1.3095802068710327
1761369643401436200,4.765436279296875,-0.37139514088630676,-0.07750124484300613,1.3804384469985962
1761369643420047600,4.784047607421875,-0.0910162404179573,-0.11170869320631027,1.4922235012054443
1761369643438657500,4.802657470703125,0.06169557198882103,-0.16301986575126648,1.508716344833374
1761369643457269000,4.82126904296875,0.0036650835536420345,-0.06467345356941223,1.514214038848877
1761369643475879000,4.83987890625,-0.2357870489358902,-0.0561215914785862,1.6033977270126343
1761369643494490400,4.858490478515625,-0.4587462842464447,-0.11781716346740723,1.6919705867767334
1761369643513100000,4.87710009765625,-0.6652126908302307,-0.1477486789226532,1.7292321920394897
1761369643531711500,4.89571142578125,-0.7812736630439758,-0.24609509110450745,1.8013122081756592
1761369643550321400,4.9143212890625,-0.8435800671577454,-0.4586699306964874,1.8807224035263062
1761369643568932900,4.932932861328125,-1.2045907974243164,-1.0090433359146118,1.939363718032837
1761369643587542800,4.951542724609375,-2.1472043991088867,-1.4990191459655762,2.3687891960144043
1761369643606154200,4.970154296875,-2.3927650451660156,-1.4733636379241943,3.0536253452301025
1761369643624764200,4.98876416015625,-1.5161229372024536,-1.1611442565917969,2.9406187534332275
1761369643643375600,5.007375732421875,-0.24189551174640656,-0.9326874017715454,1.3053042888641357
1761369643661985500,5.025985595703125,0.8027296662330627,-0.46722179651260376,-0.4766135811805725
1761369643680597000,5.044596923828125,1.345162034034729,0.31710609793663025,-1.6830369234085083
1761369643699207000,5.06320703125,1.1484692096710205,0.9450570940971375,-1.9145480394363403
1761369643717818400,5.081818359375,0.6103127598762512,0.9591065645217896,-1.4093773365020752
1761369643736428300,5.10042822265625,0.30603447556495667,0.8247201442718506,-0.8596147894859314
1761369643755039700,5.119039794921875,0.25533416867256165,0.5571690797805786,-0.9109259843826294
1761369643773649400,5.1376494140625,0.46607646346092224,0.5528931021690369,-1.5822471380233765
1761369643792260900,5.1562607421875,0.5668662786483765,0.6775059700012207,-2.1704931259155273
1761369643810870800,5.174870849609375,0.5332696437835693,0.7453100085258484,-2.1766014099121094
1761369643829482200,5.193482177734375,0.23945212364196777,0.5455629825592041,-1.5627000331878662
1761369643848092200,5.212092041015625,0.038483377546072006,0.3623087704181671,-0.7698202729225159
1761369643866703600,5.23070361328125,-0.09590301662683487,0.41056570410728455,-0.30435463786125183
1761369643885313500,5.2493134765625,-0.046424392610788345,0.2890070974826813,-0.30435463786125183
1761369643903925000,5.267925048828125,0.16615045070648193,0.29267218708992004,-0.6549809575080872
1761369643922535000,5.286534912109375,0.45324867963790894,0.559001624584198,-0.9940012097358704
1761369643941146400,5.305146484375,0.6866686940193176,0.8467106819152832,-0.9555178284645081
1761369643959756300,5.32375634765625,0.6158103942871094,0.8790855407714844,-0.49677154421806335
1761369643978367500,5.342367431640625,0.4196520745754242,0.5620558261871338,0.20883341133594513
1761369643996977700,5.360977783203125,0.19119518995285034,-0.2515927255153656,0.9846094250679016
1761369644015588900,5.3795888671875,0.014049487188458443,-1.1953517198562622,1.5307068824768066
1761369644034198800,5.39819873046875,-0.21990501880645752,-1.557660460472107,1.624166488647461
1761369644052810200,5.416810302734375,-0.49295374751091003,-1.5552171468734741,1.3663889169692993
1761369644071420200,5.435420166015625,-0.6774296164512634,-1.6303513050079346,1.2063469886779785
1761369644090031600,5.454031494140625,-0.8167027831077576,-1.466567873954773,1.3010282516479492
1761369644108641500,5.4726416015625,-1.0598199367523193,-0.9681165218353271,1.4378581047058105
1761369644127253000,5.4912529296875,-1.298661231994629,-0.8557206392288208,1.4146459102630615
1761369644145863000,5.50986279296875,-1.2418525218963623,-0.856942355632782,1.2955306768417358
1761369644164474400,5.528474365234375,-0.8631271719932556,-0.9326874017715454,0.7598176598548889
1761369644183084000,5.547083984375,-0.4196520745754242,-1.5332266092300415,-0.3715478479862213
1761369644201695700,5.56569580078125,-0.3304683566093445,-1.8129947185516357,-1.7575602531433105
1761369644220305400,5.584305419921875,-0.4850127100944519,-1.3920445442199707,-2.7184994220733643
1761369644238916900,5.602916748046875,-0.29320669174194336,-0.7928034067153931,-2.8748762607574463
1761369644257526800,5.62152685546875,-0.22051586210727692,0.13873867690563202,-2.1912617683410645
1761369644276138200,5.64013818359375,-0.610236406326294,0.5235724449157715,-1.4906200170516968
1761369644294748200,5.658748046875,-1.0146173238754272,0.24075017869472504,-1.2988139390945435
1761369644313359600,5.677359619140625,-1.1147962808609009,-0.28518930077552795,-1.4270919561386108
1761369644331969500,5.695969482421875,-0.8667922616004944,-0.8300650715827942,-1.4961175918579102
1761369644350581000,5.7145810546875,-0.4953971207141876,-0.8606074452400208,-1.2450593709945679
1761369644369191000,5.73319091796875,-0.09284878522157669,-0.6474217176437378,-0.603058934211731
1761369644387802400,5.75180224609375,0.10078980028629303,-0.31206658482551575,0.17157171666622162
1761369644406412300,5.770412353515625,0.09712471067905426,0.011071606539189816,0.7940250635147095
1761369644425023500,5.7890234375,0.0916270911693573,0.193104088306427,1.2185639142990112
1761369644443633400,5.80763330078125,0.1447708010673523,0.17600037157535553,1.485504150390625
1761369644462244900,5.826244873046875,0.1966928243637085,0.07276718318462372,1.7151827812194824
1761369644480854800,5.844854736328125,0.2596100866794586,0.0880383625626564,1.8764463663101196
1761369644499466200,5.86346630859375,0.3439069986343384,0.05566345527768135,2.0071678161621094
1761369644518076200,5.882076171875,0.3286358118057251,-0.018249060958623886,2.029158353805542
1761369644536687600,5.9006875,0.261442631483078,-0.0231358390301466,1.9796795845031738
1761369644555297500,5.919297607421875,0.12583453953266144,0.0019088976550847292,1.8587318658828735
1761369644573909000,5.937908935546875,0.09834641218185425,-0.10498937219381332,1.7273997068405151
1761369644592519000,5.956518798828125,0.15393351018428802,-0.45439401268959045,1.458016037940979
1761369644611130400,5.97513037109375,0.15271180868148804,-0.6920135617256165,0.880154550075531
1761369644629740000,5.993739990234375,0.02748812735080719,-0.8099071383476257,0.19600561261177063
1761369644648351500,6.0123515625,-0.39827242493629456,-0.11170869320631027,0.05978667363524437
1761369644666961400,6.03096142578125,-0.7446228265762329,1.2084085941314697,0.18012358248233795
1761369644685572900,6.04957275390625,-0.4679090082645416,1.9084395170211792,-0.07528692483901978
1761369644704182800,6.068182861328125,-0.05070032179355621,1.4258701801300049,-0.4124746024608612
1761369644722794200,6.086794189453125,0.5839699506759644,-0.015194825828075409,-0.6470399498939514
1761369644741404200,6.105404052734375,0.9682692885398865,-1.112276554107666,-1.0642486810684204
1761369644760015600,6.124015625,1.1319763660430908,-1.1971843242645264,-1.270104169845581
1761369644778625500,6.14262548828125,0.8515974283218384,-0.10682191699743271,-1.0141592025756836
1761369644797237000,6.161237060546875,0.10750912129878998,0.7691330313682556,-0.8412894010543823
1761369644815846700,6.1798466796875,-0.38666632771492004,0.6921663284301758,-1.194969892501831
1761369644834458000,6.1984580078125,-0.44042086601257324,0.19676917791366577,-1.8265860080718994
1761369644853068000,6.217068115234375,-0.11911521852016449,-0.06589514762163162,-2.1252903938293457
1761369644871679500,6.235679443359375,0.07452336698770523,0.09964445978403091,-1.7758857011795044
1761369644890289400,6.254289306640625,0.12705622613430023,0.34276166558265686,-1.1155598163604736
1761369644908900900,6.27290087890625,-0.025655584409832954,0.4325562119483948,-0.279920756816864
1761369644927510800,6.2915107421875,-0.27060532569885254,0.3128301501274109,0.5906129479408264
1761369644946122200,6.310122314453125,-0.420873761177063,0.09353598952293396,1.3450093269348145
1761369644964732200,6.328732177734375,-0.5723638534545898,-0.18195612728595734,1.8532341718673706
1761369644983343400,6.34734326171875,-0.6865923404693604,-0.20333577692508698,2.1837027072906494
1761369645001953300,6.365953369140625,-0.6255075931549072,-0.24976016581058502,2.3376359939575195
1761369645020564700,6.384564697265625,-0.45324867963790894,-0.13675342500209808,2.3871147632598877
1761369645039174700,6.403174560546875,-0.2718270421028137,0.29328304529190063,2.2906007766723633
1761369645057786000,6.4217861328125,-0.028098974376916885,-0.017027366906404495,2.0768043994903564
1761369645076396000,6.44039599609375,0.11361759155988693,-0.0952158197760582,1.8605643510818481
1761369645095007500,6.459007568359375,0.30481278896331787,-0.20516832172870636,1.786651849746704
1761369645113617400,6.477617431640625,0.4459185004234314,-0.3823140263557434,1.689527153968811
1761369645132228900,6.496228759765625,0.2895416021347046,-0.5325824618339539,1.5062730312347412
1761369645150838800,6.5148388671875,-0.1050657257437706,-0.5460211038589478,1.0982270240783691
1761369645169450000,6.533449951171875,-0.24006296694278717,-0.45378315448760986,0.3035147190093994
1761369645188060000,6.552059814453125,-0.28221142292022705,0.3256579339504242,-0.566408097743988
1761369645206671400,6.57067138671875,-0.337798535823822,1.236507534980774,-1.1693143844604492
1761369645225281300,6.58928125,-0.0653606578707695,1.4399197101593018,-1.5437637567520142
1761369645243892700,6.607892822265625,0.12461283802986145,0.8558733463287354,-1.6860911846160889
1761369645262502700,6.626502685546875,0.17653486132621765,0.25479966402053833,-1.760003685951233
1761369645281114000,6.645114013671875,0.19119518995285034,-0.12453648447990417,-1.9524205923080444
1761369645299724000,6.66372412109375,0.24494975805282593,0.19860170781612396,-2.1283445358276367
1761369645318335500,6.68233544921875,-0.23090025782585144,1.113650918006897,-2.3268699645996094
1761369645336945400,6.7009453125,-0.5106683373451233,0.8485432267189026,-2.8296735286712646
1761369645355556600,6.719556640625,-0.17897824943065643,-0.4385119676589966,-3.262153387069702
1761369645374166500,6.73816650390625,0.01710372418165207,-0.9522345066070557,-2.940847873687744
1761369645392778000,6.756778076171875,-0.22662433981895447,-0.227769672870636,-1.9518096446990967
1761369645411388000,6.775387939453125,-0.6853706240653992,0.8448781371116638,-0.5682406425476074
1761369645429999400,6.793999267578125,-0.8032641410827637,0.8864157199859619,0.4531722962856293
1761369645448609300,6.812609375,-0.6627692580223083,0.41056570410728455,1.1415971517562866
1761369645467220700,6.831220703125,-0.3903313875198364,-0.2748049199581146,1.717015266418457
1761369645485830700,6.84983056640625,-0.09773556143045425,-0.8422819972038269,2.2771623134613037
1761369645504441900,6.86844189453125,0.17897824943065643,-1.0725713968276978,2.783630847930908
1761369645523051800,6.8870517578125,0.2858765125274658,-1.1189957857131958,2.9375643730163574
1761369645541663200,6.905663330078125,0.2504473626613617,-0.5619031190872192,2.7689707279205322
1761369645560273200,6.924273193359375,0.11972606182098389,-0.12942326068878174,2.351074695587158
1761369645578884600,6.942884521484375,-0.04153761267662048,0.10636378079652786,1.9973942041397095
1761369645597494500,6.96149462890625,-0.25594499707221985,0.16011834144592285,1.7573312520980835
1761369645616106000,6.98010595703125,-0.5412106513977051,0.2816769480705261,1.5698010921478271
1761369645634716000,6.9987158203125,-0.5723638534545898,0.2309766262769699,1.4995536804199219
1761369645653327400,7.017327392578125,-0.34573954343795776,-0.4098021686077118,1.4354146718978882
1761369645671937000,7.03593701171875,-0.23273280262947083,-1.1232717037200928,1.3089693784713745
1761369645690548500,7.054548583984375,-0.39766156673431396,-1.5240639448165894,1.0261470079421997
1761369645709158400,7.073158447265625,-0.5815265774726868,-1.0090433359146118,0.6156576871871948
1761369645727769900,7.091769775390625,-0.7049177289009094,0.09720107167959213,0.23082390427589417
1761369645746379800,7.1103798828125,-0.7727217674255371,1.057452917098999,-0.26342788338661194
1761369645764991200,7.1289912109375,-0.5772506594657898,1.2566654682159424,-0.7038487792015076
1761369645783601200,7.14760107421875,-0.18997350335121155,0.4661528170108795,-1.2530004978179932
1761369645802212600,7.166212646484375,0.05619794875383377,-0.29679539799690247,-1.926764965057373
1761369645820822500,7.184822509765625,0.0397050715982914,-0.4476746916770935,-2.560824394226074
1761369645839433700,7.203433837890625,0.07146912813186646,0.000687203137204051,-2.9481780529022217
1761369645858043600,7.222043701171875,-0.08002099394798279,0.27679017186164856,-3.1974036693573
1761369645876655000,7.240655029296875,-0.16798299551010132,-0.3407764136791229,-3.675086259841919
1761369645895265000,7.25926513671875,-0.07452336698770523,-1.2472738027572632,-4.089240550994873
1761369645913876500,7.27787646484375,-0.11606097966432571,-1.1287693977355957,-3.973790407180786
1761369645932486400,7.296486328125,-0.3170297145843506,0.03733803704380989,-3.3879878520965576
1761369645951097900,7.315097900390625,-0.46241137385368347,0.9407811164855957,-2.5883126258850098
1761369645969707800,7.333707763671875,-0.49112120270729065,1.0379058122634888,-1.6146219968795776
1761369645988319200,7.3523193359375,-0.42331716418266296,0.4911975562572479,-0.49982577562332153
1761369646006929000,7.370928955078125,-0.2773246467113495,-0.3029038906097412,0.6297071576118469
1761369646025540400,7.389540283203125,-0.08185353130102158,-0.930854856967926,1.583850622177124
1761369646044150300,7.408150390625,0.06902574002742767,-1.1360995769500732,2.2570042610168457
1761369646062761700,7.42676171875,0.13499724864959717,-1.0548568964004517,2.6271777153015137
1761369646081371600,7.44537158203125,0.13377554714679718,-0.8410603404045105,2.6528332233428955
1761369646099983000,7.463983154296875,0.04214845970273018,-0.5814502239227295,2.382227897644043
1761369646118593000,7.482593017578125,-0.182643324136734,-0.29496288299560547,1.9222599267959595
1761369646137204500,7.50120458984375,-0.4611896872520447,-0.09827005118131638,1.4164783954620361
1761369646155814100,7.519814208984375,-0.660936713218689,0.004963133949786425,1.0542460680007935
1761369646174425600,7.538425537109375,-0.7214106321334839,0.11063970625400543,0.8862630128860474
1761369646193035500,7.557035400390625,-0.7299624681472778,0.18333053588867188,0.7714237570762634
1761369646211647000,7.57564697265625,-0.9358180165290833,0.06665870547294617,0.45500484108924866
1761369646230257000,7.5942568359375,-1.4922997951507568,-0.21555273234844208,-0.08017370104789734
1761369646248868400,7.612868408203125,-1.8887397050857544,-0.5747309327125549,-0.7276718020439148
1761369646267478300,7.631478271484375,-1.6529526710510254,-0.6987329125404358,-1.2780451774597168
1761369646286089500,7.65008935546875,-1.1300674676895142,-0.5356366634368896,-1.3586770296096802
1761369646304699400,7.668699462890625,-0.29381752014160156,-0.11537377536296844,-1.260941505432129
1761369646323310800,7.687310791015625,0.4599680006504059,0.17172443866729736,-1.825364351272583
1761369646341920800,7.705920654296875,0.9334509968757629,0.1259108930826187,-2.769810438156128
1761369646360532200,7.7245322265625,1.119759440422058,-0.31389912962913513,-3.650041341781616
1761369646379142100,7.74314208984375,0.9084062576293945,-0.3462740480899811,-4.651831150054932
1761369646397753600,7.761753662109375,0.43614494800567627,0.15828579664230347,-5.663470268249512
1761369646416363500,7.780363525390625,0.2510582208633423,0.8008971214294434,-5.954233646392822
1761369646434974700,7.798974609375,0.4214846193790436,1.1893960237503052,-5.276727676391602
1761369646453584600,7.817584716796875,0.6384117603302002,0.8057838678359985,-3.9047646522521973
1761369646472196000,7.836196044921875,0.5332696437835693,-0.09032903611660004,-2.4863009452819824
1761369646490806000,7.854805908203125,0.06658235192298889,-0.8795437216758728,-1.4185400009155273
1761369646509417500,7.87341748046875,-0.22051586210727692,-1.167252779006958,-0.6360446810722351
1761369646528027400,7.89202734375,0.09345962852239609,-1.093340277671814,0.14469444751739502
1761369646546638800,7.910638916015625,0.7459208369255066,-0.7017871737480164,1.0212602615356445
1761369646565248800,7.929248779296875,1.2407071590423584,-0.2662530541419983,1.8422390222549438
1761369646583860200,7.947860107421875,1.3378318548202515,-0.03229855000972748,2.5111167430877686
1761369646602470000,7.966469970703125,1.0226346254348755,0.0892600566148758,2.921682357788086
1761369646621081300,7.985081298828125,0.34451785683631897,0.1808871477842331,2.9986491203308105
1761369646639691300,8.003691162109375,-0.2999260127544403,0.28839626908302307,2.869760513305664
1761369646658302700,8.022302734375,-0.5992411375045776,0.4685961902141571,2.722546339035034
1761369646676912600,8.04091259765625,-0.4874561131000519,0.6084802150726318,2.6981122493743896
1761369646695524000,8.059524169921875,-0.2363978922367096,0.664678156375885,2.7579753398895264
1761369646714134000,8.078134033203124,-0.12583453953266144,0.5803812742233276,2.78302001953125
1761369646732745500,8.096745361328125,-0.14171656966209412,0.30427828431129456,2.6913931369781494
1761369646751355100,8.115355224609376,-0.2223484069108963,-0.21066594123840332,2.297930955886841
1761369646769966600,8.133966552734375,-0.3023693859577179,-0.5692332983016968,1.8434606790542603
1761369646788576500,8.152576416015625,-0.4459185004234314,-0.8618291020393372,1.4464099407196045
1761369646807188000,8.17118798828125,-0.5613686442375183,-1.2588798999786377,0.8642725348472595
1761369646825798000,8.1897978515625,-0.4214846193790436,-1.3633347749710083,-0.0068720318377017975
1761369646844409300,8.208409423828124,0.02504473738372326,-0.9717816114425659,-1.148545503616333
1761369646863019300,8.227019287109375,0.7086591720581055,-0.12026055157184601,-2.1540000438690186
1761369646881630700,8.245630615234376,1.2547565698623657,0.5321243405342102,-2.9310741424560547
1761369646900240400,8.264240478515624,1.4526711702346802,0.5040253400802612,-3.565133571624756
1761369646918851800,8.282851806640625,1.3720393180847168,0.405678927898407,-3.848566770553589
1761369646937461800,8.301461669921874,1.2113864421844482,0.5730510950088501,-3.738614320755005
1761369646956073200,8.3200732421875,1.012250304222107,0.7703547477722168,-3.417919397354126
1761369646974683100,8.33868310546875,0.794788658618927,0.5681642889976501,-3.0520219802856445
1761369646993294600,8.357294677734375,0.6335249543190002,0.039170581847429276,-2.574263095855713
1761369647011904500,8.375904541015625,0.5088357925415039,-0.4232407808303833,-1.9890713691711426
1761369647030515700,8.394515625,0.393385648727417,-0.46844348311424255,-1.4112098217010498
1761369647049125600,8.413125732421875,0.3573456406593323,-0.20333577692508698,-0.8742751479148865
1761369647067737000,8.431737060546874,0.45019441843032837,0.03855973482131958,-0.2939702570438385
1761369647086347000,8.450346923828125,0.5894675850868225,0.2340308576822281,0.4232407808303833
1761369647104958500,8.46895849609375,0.6811710596084595,0.2816769480705261,1.2112337350845337
1761369647123568400,8.487568359375,0.6500178575515747,0.19982340931892395,1.9344769716262817
1761369647142179800,8.506179931640625,0.46729815006256104,0.007406522985547781,2.3773412704467773
1761369647160789800,8.524789794921874,0.26816195249557495,-0.15752223134040833,2.484239339828491
1761369647179401000,8.54340087890625,0.10262233763933182,-0.07689040154218674,2.2515065670013428
1761369647198011000,8.562010986328126,-0.06291726976633072,0.1656159609556198,1.8526233434677124
1761369647216622300,8.580622314453125,-0.21685077250003815,0.4050680994987488,1.638826847076416
1761369647235232300,8.599232177734375,-0.4324798583984375,0.5205182433128357,1.5398695468902588
1761369647253843700,8.61784375,-0.833195686340332,0.4911975562572479,1.3529503345489502
1761369647272453600,8.63645361328125,-1.5478869676589966,0.39895960688591003,0.963229775428772
1761369647291065000,8.655065185546874,-1.8759119510650635,0.7874584794044495,1.106778860092163
1761369647309675000,8.673675048828125,-1.484358787536621,0.8815289735794067,1.9454721212387085
1761369647328286500,8.692286376953126,-0.7159129977226257,0.19860170781612396,2.431095838546753
1761369647346896100,8.710896240234375,-0.37444937229156494,-1.0786799192428589,2.129948139190674
1761369647365507600,8.729507568359375,-0.41293275356292725,-2.337712526321411,1.282702922821045
1761369647384117500,8.748117431640624,-0.3017585575580597,-3.304072856903076,-0.031916771084070206
1761369647402729000,8.76672900390625,0.1820324808359146,-3.196563720703125,-1.5498721599578857
1761369647421339000,8.7853388671875,0.8326611518859863,-1.7378604412078857,-2.8260085582733154
1761369647439950300,8.803950439453125,1.1857309341430664,-0.02557922899723053,-3.499162197113037
1761369647458560300,8.822560302734376,1.035462498664856,0.9120712876319885,-3.5639119148254395
1761369647477171700,8.841171630859375,0.7966212034225464,0.983540415763855,-3.077066659927368
1761369647495781400,8.859781494140625,0.7563052773475647,0.3745257258415222,-2.3073227405548096
1761369647514392800,8.878392822265624,0.9218448400497437,-0.6370373368263245,-1.4344221353530884
1761369647533002800,8.897002685546875,1.1032664775848389,-1.4067049026489258,-0.3880407214164734
1761369647551614200,8.9156142578125,1.257200002670288,-1.5008517503738403,0.6565844416618347
1761369647570224000,8.93422412109375,1.4264047145843506,-1.0536351203918457,1.5026079416275024
1761369647588835600,8.952835693359376,1.576673150062561,-0.47027602791786194,2.255171775817871
1761369647607445500,8.971445556640624,1.5271944999694824,-0.4513397812843323,3.0243048667907715
1761369647626057000,8.990056884765625,1.2492589950561523,-0.9528453946113586,3.5624611377716064
1761369647644667000,9.0086669921875,0.7734090089797974,-1.2087904214859009,3.63637375831604
1761369647663278300,9.0272783203125,0.15943112969398499,-1.282702922821045,3.3101813793182373
1761369647681888000,9.045887939453126,-0.4489727318286896,-1.0463049411773682,2.6883387565612793
1761369647700499500,9.06449951171875,-0.8118160367012024,-0.5050943493843079,1.9686843156814575
1761369647719109400,9.083109375,-0.9150491952896118,0.17111359536647797,1.3034716844558716
1761369647737720800,9.101720947265624,-0.8319739699363708,0.7935669422149658,0.8001335263252258
1761369647756330800,9.120330810546875,-0.8289197087287903,0.9529981017112732,0.6413132548332214
1761369647774942200,9.138942138671876,-0.9694145917892456,0.40934401750564575,0.8978691101074219
1761369647793552100,9.15755224609375,-1.277281641960144,-0.6846834421157837,1.3010282516479492
1761369647812163600,9.17616357421875,-1.4452645778656006,-1.8398720026016235,1.6205013990402222
1761369647830773500,9.1947734375,-1.428771734237671,-2.152014970779419,1.9100430011749268
1761369647849384700,9.213384765625,-1.1465603113174438,-1.6016415357589722,1.8391847610473633
1761369647867994600,9.23199462890625,-0.8790091872215271,-0.7640935778617859,1.0805124044418335
1761369647886606000,9.250606201171875,-0.7696675658226013,-0.3737621605396271,-0.06429167091846466
1761369647905216000,9.269216064453126,-0.5137225389480591,-0.23509983718395233,-1.2591089010238647
1761369647923827500,9.287827392578125,-0.23823043704032898,0.5498389005661011,-2.2340211868286133
1761369647942437400,9.306437255859375,-0.07574506103992462,1.5346009731292725,-2.772864818572998
1761369647961048800,9.325048828125,-0.12155860662460327,2.0440475940704346,-2.9304633140563965
1761369647979658800,9.34365869140625,-0.39888325333595276,2.0177812576293945,-3.0752341747283936
1761369647998270200,9.362270263671874,-0.7281299233436584,1.6201196908950806,-3.3666083812713623
1761369648016879900,9.3808798828125,-0.8521319031715393,1.1374739408493042,-3.626829147338867
1761369648035491300,9.3994912109375,-0.7598940134048462,0.8998543620109558,-3.392263889312744
1761369648054101200,9.418101318359374,-0.582748293876648,1.1606861352920532,-2.331756591796875
1761369648072712700,9.436712646484375,-0.5259394645690918,1.2249014377593994,-0.8437327742576599
1761369648091322600,9.455322509765624,-0.5277720093727112,0.7593594789505005,0.4739411175251007
1761369648109934000,9.47393408203125,-0.6914790868759155,-0.0811663269996643,1.5068838596343994
1761369648128544000,9.4925439453125,-0.9138274788856506,-0.875267744064331,2.22951602935791
1761369648147155500,9.511155517578125,-1.0781453847885132,-1.1373212337493896,2.503786563873291
1761369648165765400,9.529765380859375,-1.1777135133743286,-0.7433247566223145,2.4616382122039795
1761369648184376800,9.548376953125,-1.0824213027954102,-0.059175826609134674,2.2570042610168457
1761369648202986500,9.566986572265625,-0.9071081876754761,0.642076849937439,1.832465410232544
1761369648221598000,9.585597900390624,-0.762948215007782,1.0653939247131348,1.2112337350845337
1761369648240208000,9.604207763671875,-0.6084038615226746,1.236507534980774,0.7115607261657715
1761369648258819300,9.6228193359375,-0.49234288930892944,1.0623397827148438,0.6889593601226807
1761369648277429200,9.64142919921875,-0.4422534108161926,0.8057838678359985,0.8911498188972473
1761369648296040700,9.660040771484375,-0.5436540842056274,0.1790546029806137,1.1244934797286987
1761369648314650600,9.678650634765624,-0.6963658928871155,-0.45256146788597107,1.4586268663406372
1761369648333262000,9.697261962890625,-0.8350282311439514,-1.0401965379714966,1.653487205505371
1761369648351872000,9.7158720703125,-0.8112051486968994,-1.5949221849441528,1.4335821866989136
1761369648370483200,9.734483154296875,-0.8631271719932556,-1.8252116441726685,0.8141830563545227
1761369648389093400,9.75309326171875,-1.1997040510177612,-2.0200719833374023,0.11659546941518784
1761369648407704600,9.77170458984375,-1.2516260147094727,-2.033510446548462,-0.4906630516052246
1761369648426314500,9.790314453125,-0.8570187091827393,-1.051802635192871,-1.1131163835525513
1761369648444926000,9.808926025390624,-0.03542914241552353,-0.029855160042643547,-1.592631459236145
1761369648463535900,9.827535888671875,0.5796940326690674,0.4117874205112457,-2.0147268772125244
1761369648482147300,9.846147216796876,0.896189272403717,0.22181391716003418,-1.9658591747283936
1761369648500757200,9.86475732421875,0.845488965511322,-0.23204560577869415,-1.4503041505813599
1761369648519368700,9.88336865234375,0.4337015450000763,-0.963229775428772,-0.8968765139579773
1761369648537978600,9.901978515625,-0.15454435348510742,-1.666391372680664,-0.7062921524047852
1761369648556590000,9.920590087890625,-0.38422292470932007,-1.9247796535491943,-0.9457442760467529
1761369648575200000,9.939199951171876,-0.09773556143045425,-1.5100144147872925,-1.1015102863311768
1761369648593811500,9.9578115234375,0.42453885078430176,-1.1788588762283325,-0.8590039610862732
1761369648612421000,9.976421142578126,0.7752415537834167,-1.0157626867294312,-0.3605526089668274
1761369648631032600,9.995032470703125,0.7764632105827332,-0.703619658946991,0.2112767994403839
1761369648649642500,10.013642578125,0.6701757907867432,-0.41285640001296997,0.6938461065292358
1761369648668254000,10.03225390625,0.47890424728393555,-0.14408360421657562,1.092118501663208
1761369648686864000,10.05086376953125,0.1435490995645523,0.18943901360034943,1.3761625289916992
1761369648705475300,10.069475341796876,-0.1948602795600891,0.5522822737693787,1.4195326566696167
1761369648724085200,10.088085205078125,-0.4031592011451721,0.8155574202537537,1.2710968255996704
1761369648742696700,10.10669677734375,-0.5650337338447571,0.7538618445396423,1.0609652996063232
1761369648761306600,10.125306640625,-0.6719319820404053,0.5437304377555847,0.8086854219436646
1761369648779918000,10.14391796875,-0.70308518409729,0.6683432459831238,0.6871268153190613
1761369648798528000,10.162528076171874,-0.656660795211792,0.8216659426689148,0.6492542624473572
1761369648817139500,10.181139404296875,-0.517998456954956,0.766689658164978,0.6229878664016724
1761369648835749400,10.199749267578126,-0.30725616216659546,0.6958313584327698,0.611992597579956
1761369648854360800,10.21836083984375,-0.1698155403137207,0.558390736579895,0.514867901802063
1761369648872970500,10.236970458984375,-0.19058434665203094,0.0293970238417387,0.3413872718811035
1761369648891582000,10.25558203125,-0.1698155403137207,-0.1459161341190338,0.2919086217880249
1761369648910191900,10.27419189453125,0.029320668429136276,0.15889663994312286,0.28580015897750854
1761369648928803300,10.29280322265625,0.1185043677687645,0.817389965057373,0.13003410398960114
1761369648947413200,10.311413330078125,-0.29381752014160156,1.2267340421676636,-0.12659808993339539
1761369648966024700,10.330024658203126,-0.9529217481613159,0.5712185502052307,-0.6598677635192871
1761369648984634600,10.348634521484374,-0.8454126119613647,0.0067956759594380856,-1.4185400009155273
1761369649003246000,10.36724609375,-0.39949411153793335,0.3091650605201721,-1.9548639059066772
1761369649021856000,10.38585595703125,0.01038440316915512,0.482034832239151,-2.1161277294158936
1761369649040467500,10.404467529296875,0.21318569779396057,0.3268796503543854,-1.6689873933792114
1761369649059077400,10.423077392578126,-0.08796200156211853,0.13629528880119324,-0.7533273696899414
1761369649077688800,10.441688720703125,-0.5479300022125244,-0.27297237515449524,-0.13270656764507294
1761369649096298800,10.460298828125,-0.6719319820404053,-0.7964684963226318,-0.12720894813537598
1761369649114910200,10.47891015625,-0.3805578351020813,-1.0004914999008179,-0.4937172830104828
1761369649133520000,10.497519775390625,0.026877280324697495,-0.8691592812538147,-0.9042066335678101
1761369649152131300,10.51613134765625,0.18691925704479218,-0.4879906177520752,-1.0373713970184326
1761369649170741200,10.5347412109375,0.21807247400283813,-0.1611873209476471,-0.9500201940536499
1761369649189352700,10.553352783203126,0.21440738439559937,-0.23571068048477173,-0.6843016147613525
1761369649207962600,10.571962646484375,0.16492876410484314,-0.2124984860420227,-0.1766875684261322
1761369649226574000,10.590573974609375,0.08796200156211853,-0.08483141660690308,0.4916556775569916
1761369649245184000,10.60918408203125,-0.0024433890357613564,0.058717694133520126,1.0292012691497803
1761369649263795500,10.62779541015625,-0.16492876410484314,0.0880383625626564,1.2655991315841675
1761369649282405400,10.6464052734375,-0.2522799074649811,0.2309766262769699,1.3718866109848022
1761369649301016800,10.665016845703125,-0.22540263831615448,0.34642675518989563,1.3401225805282593
1761369649319626800,10.683626708984375,-0.1985253542661667,0.35558944940567017,1.125104308128357
1761369649338238200,10.70223828125,-0.10873081535100937,0.48569992184638977,1.00965416431427
1761369649356848000,10.72084814453125,0.08429691940546036,0.39651623368263245,1.0273687839508057
1761369649375459600,10.73945947265625,0.16615045070648193,0.013514995574951172,0.9919396042823792
1761369649394069500,10.758069580078125,-0.024433890357613564,-0.4464530050754547,0.8184589743614197
1761369649412680700,10.7766806640625,-0.13988402485847473,-0.6797966361045837,0.5924454927444458
1761369649431291000,10.795290771484375,-0.12094775587320328,-0.1996707022190094,0.6229878664016724
1761369649449902000,10.813902099609376,-0.3683409094810486,0.3598653972148895,0.746379017829895
1761369649468512300,10.83251220703125,-0.7293516397476196,0.6078693866729736,0.7103390097618103
1761369649487123500,10.85112353515625,-0.5613686442375183,0.6591805219650269,0.6504759788513184
1761369649505733400,10.8697333984375,-0.04031591862440109,0.03978142887353897,0.3847574293613434
1761369649524344800,10.8883447265625,0.5369347333908081,-0.6498651504516602,0.013973130844533443
1761369649542954800,10.906954833984376,0.7263737320899963,-0.990717887878418,-0.6164975762367249
1761369649561566200,10.925566162109375,0.6445202231407166,-0.593667209148407,-1.2389509677886963
1761369649580176100,10.944176025390625,0.5717530250549316,-0.1740151196718216,-1.5773603916168213
1761369649598787600,10.96278759765625,0.5625903010368347,-0.406137079000473,-1.5119997262954712
